Packet number,Gyroscope X (deg/s),Gyroscope Y (deg/s),Gyroscope Z (deg/s),Accelerometer X (g),Accelerometer Y (g),Accelerometer Z (g)
0,0.000000,-0.122072,0.000000,0.010986,-0.020264,1.013321
1,-0.244144,-0.061036,0.000000,0.007080,-0.021241,0.995621
2,0.061036,0.061036,0.000000,0.008423,-0.011475,1.006485
3,-0.183108,-0.061036,-0.122072,0.011231,-0.019898,1.007218
4,0.244144,0.000000,-0.244144,0.006226,-0.015991,1.000504
5,0.183108,-0.122072,-0.305180,0.008179,-0.011841,0.997940
6,0.000000,0.000000,-0.183108,0.004883,-0.022461,1.000259
7,0.610361,-0.122072,-0.244144,0.011353,-0.014160,0.998550
8,0.061036,-0.305180,-0.305180,0.002686,-0.015381,0.997696
9,0.122072,-0.244144,-0.366217,0.006104,-0.018921,1.006607
10,0.183108,-0.305180,-0.305180,0.006958,-0.017090,1.000259
11,-0.061036,-0.244144,-0.244144,0.005737,-0.021729,1.008804
12,0.244144,0.000000,-0.305180,0.006714,-0.017456,0.995987
13,-0.122072,-0.061036,-0.183108,0.005493,-0.021729,0.996719
14,0.366217,0.000000,-0.183108,0.004761,-0.016724,1.000992
15,-0.122072,-0.244144,-0.183108,0.002808,-0.015869,1.007462
16,0.305180,-0.122072,-0.183108,0.008911,-0.014771,0.995010
17,-0.061036,-0.183108,-0.244144,0.003052,-0.019165,1.003555
18,0.183108,-0.183108,-0.183108,0.005859,-0.011841,1.011002
19,-0.366217,-0.061036,-0.244144,0.002686,-0.014649,0.997086
20,-0.305180,-0.061036,0.000000,0.003784,-0.016846,1.001602
21,0.000000,0.000000,-0.183108,0.005982,-0.010620,1.000626
22,-0.549325,-0.305180,-0.183108,0.004028,-0.018677,0.995254
23,-0.488289,-0.305180,-0.183108,0.001099,-0.018189,1.002335
24,-0.915541,-0.305180,-0.183108,0.005982,-0.015869,1.002457
25,-0.915541,-0.183108,-0.244144,0.007935,-0.022583,0.998306
26,-0.183108,0.000000,-0.122072,0.006958,-0.018311,0.994888
27,-0.427253,0.244144,0.000000,0.002808,-0.022461,1.002213
28,0.000000,0.305180,0.000000,0.005371,-0.018311,1.007462
29,0.244144,0.366217,0.000000,0.007813,-0.013794,1.002945
30,0.122072,0.183108,-0.122072,0.004761,-0.015869,0.997818
31,0.366217,0.183108,-0.122072,0.001587,-0.010010,0.997086
32,-0.061036,-0.122072,-0.244144,0.003784,-0.011475,0.995499
33,-0.366217,-0.244144,-0.244144,0.002930,-0.019043,0.997452
34,-0.183108,-0.488289,-0.122072,0.005982,-0.012329,0.999405
35,-0.122072,-0.244144,-0.305180,0.000122,-0.017456,0.992203
36,-1.098650,-0.610361,-0.183108,0.006348,-0.018677,1.003433
37,-0.122072,-0.183108,-0.183108,0.001587,-0.016358,0.992935
38,-0.671397,-0.366217,-0.122072,0.005982,-0.010010,1.001724
39,-0.976577,-0.305180,-0.122072,0.000855,-0.023926,1.004044
40,0.061036,0.000000,-0.183108,0.009766,-0.015259,1.009171
41,-0.366217,-0.061036,-0.122072,-0.000855,-0.013916,0.999039
42,-0.183108,0.000000,-0.183108,0.014527,-0.024292,1.003555
43,0.671397,0.183108,-0.183108,0.003662,-0.016480,1.005997
44,0.000000,0.061036,-0.183108,0.008301,-0.015747,1.006363
45,0.732433,0.061036,-0.183108,0.002197,-0.016968,1.002823
46,0.366217,0.000000,0.000000,0.004761,-0.014527,0.997452
47,0.549325,0.061036,0.000000,0.003174,-0.014282,0.995987
48,0.183108,0.000000,-0.122072,0.006592,-0.014282,1.000504
49,0.122072,-0.122072,0.000000,0.006226,-0.013550,1.002090
50,0.427253,0.122072,-0.183108,0.004883,-0.013916,0.993668
51,-1.037613,-0.244144,0.000000,0.006348,-0.021363,1.003067
52,0.183108,0.244144,-0.122072,0.004273,-0.015015,0.998428
53,-0.671397,-0.061036,0.000000,0.004761,-0.015015,1.007706
54,0.061036,0.122072,-0.122072,0.003296,-0.020142,1.004410
55,0.122072,0.183108,-0.122072,0.007446,-0.018555,1.004898
56,0.305180,0.244144,0.000000,-0.000122,-0.021241,0.994400
57,0.305180,0.122072,-0.183108,0.002319,-0.012573,0.990860
58,0.732433,0.366217,-0.183108,0.000977,-0.016114,0.997696
59,0.366217,0.000000,-0.122072,0.012696,-0.015015,0.999161
60,0.488289,0.488289,-0.244144,-0.003296,-0.014771,0.995010
61,0.488289,0.000000,0.000000,-0.004028,-0.018433,0.996719
62,0.366217,0.183108,-0.244144,0.010376,-0.016358,0.995743
63,-0.183108,-0.183108,0.000000,0.003052,-0.020020,1.002213
64,0.427253,0.061036,-0.183108,0.000244,-0.011475,0.995621
65,-0.610361,-0.427253,0.000000,0.007324,-0.012207,1.005509
66,-0.427253,-0.244144,0.000000,0.001099,-0.019898,1.004044
67,-0.366217,-0.366217,-0.122072,0.005493,-0.014038,1.001724
68,0.000000,0.000000,-0.244144,0.002808,-0.018921,1.002945
69,0.000000,-0.244144,-0.122072,0.004150,-0.018433,1.004532
70,0.427253,0.000000,-0.122072,0.003296,-0.017090,0.995621
71,0.427253,-0.244144,-0.244144,0.001953,-0.018433,0.996597
72,0.305180,-0.183108,-0.122072,0.004028,-0.017090,1.003433
73,0.427253,-0.244144,-0.122072,0.002075,-0.013794,1.000870
74,0.061036,-0.305180,0.000000,0.006226,-0.020386,0.996353
75,0.671397,-0.122072,0.000000,-0.001099,-0.010620,0.996109
76,-0.061036,-0.366217,0.061036,0.007691,-0.017700,1.001602
77,0.244144,-0.244144,0.000000,0.000122,-0.018677,0.995499
78,-0.244144,-0.488289,0.000000,0.002686,-0.016480,0.990127
79,0.000000,-0.549325,0.000000,0.004761,-0.018311,0.976577
80,-0.427253,-0.427253,-0.305180,-0.007568,-0.019287,0.988907
81,-0.122072,-0.427253,0.000000,0.011109,-0.014038,1.013443
82,0.610361,-0.305180,-0.122072,-0.002808,-0.009522,0.996475
83,-0.793469,-0.610361,0.000000,0.014649,-0.021241,0.995865
84,0.732433,-0.366217,-0.244144,0.001831,-0.019654,0.997574
85,0.061036,-0.488289,0.000000,0.004150,-0.015991,0.998550
86,0.427253,-0.366217,0.000000,0.002075,-0.020386,1.014542
87,1.586938,-0.305180,0.000000,0.000000,-0.017090,1.003555
88,1.342794,-0.854505,0.000000,0.017945,-0.006470,1.002213
89,0.000000,0.000000,-0.122072,0.006226,-0.035279,0.994522
90,3.479057,0.122072,0.000000,-0.005249,-0.004395,0.982315
91,0.000000,-0.244144,0.061036,-0.000366,-0.002686,0.988540
92,0.000000,-0.488289,0.061036,0.005371,-0.016480,0.995865
93,0.671397,-0.305180,-0.122072,-0.001099,-0.008057,0.990494
94,-0.488289,-0.671397,0.061036,-0.005005,-0.028199,1.013199
95,1.831083,-0.488289,-0.122072,0.033570,-0.007568,1.005753
96,-0.549325,-0.427253,0.061036,-0.001831,-0.025757,1.022110
97,2.990768,0.122072,0.000000,0.011597,-0.012207,1.012833
98,1.525902,0.061036,0.061036,-0.004883,-0.011841,0.998672
99,2.746624,-0.549325,-0.122072,0.025391,0.000488,1.008316
100,0.610361,-0.366217,-0.305180,-0.007446,-0.002075,0.998795
101,0.610361,-0.610361,-0.244144,0.002564,-0.007813,0.993545
102,0.061036,-0.793469,-0.427253,0.002686,0.004517,0.971328
103,-2.502480,-1.464866,-0.122072,0.007568,-0.011719,0.999527
104,-0.549325,-1.037613,-0.183108,0.007813,-0.008667,1.007706
105,-1.770047,-0.732433,0.000000,0.010498,-0.014282,1.009049
106,-0.793469,-0.671397,0.000000,0.005615,-0.017090,0.999771
107,-1.159686,-0.671397,0.000000,0.004273,-0.018799,1.004410
108,-0.610361,-0.549325,0.000000,-0.001221,-0.009888,0.994400
109,-1.586938,-0.732433,0.000000,0.009766,-0.015137,0.999771
110,-0.366217,-0.671397,-0.183108,0.014038,-0.010132,1.002701
111,-0.915541,-0.732433,-0.122072,0.003296,-0.014893,1.002335
112,-0.427253,-0.549325,0.000000,0.004028,-0.020630,1.006241
113,0.183108,-0.427253,0.000000,0.010010,-0.010864,1.009293
114,-0.061036,-0.122072,0.000000,-0.000732,-0.016968,1.002213
115,0.244144,-0.244144,0.000000,0.007324,-0.015869,0.993545
116,0.000000,-0.183108,0.061036,0.006104,-0.011841,1.002945
117,0.610361,-0.183108,0.000000,0.005982,-0.015625,1.007340
118,1.037613,0.244144,0.000000,0.003784,-0.020508,1.017472
119,2.441444,0.183108,0.122072,0.015503,-0.021363,1.025650
120,3.234913,0.549325,0.000000,0.017578,-0.020142,1.039933
121,5.371176,0.305180,0.122072,0.013428,-0.022095,1.033097
122,6.042573,0.854505,0.122072,-0.032593,-0.036011,1.015152
123,10.742351,0.732433,-0.183108,0.026978,0.005371,0.968154
124,6.347753,0.244144,0.000000,-0.014893,0.012329,0.971817
125,5.554284,-0.915541,-0.183108,0.010864,0.010254,0.962539
126,4.333562,-1.281758,-0.610361,-0.007324,0.029419,0.942641
127,-1.098650,-3.112840,-0.488289,0.006836,0.007568,0.987686
128,-0.610361,-2.868696,-0.488289,0.007080,-0.010864,0.989151
129,-0.305180,-2.624552,-0.122072,0.002075,-0.005249,0.990738
130,-0.976577,-3.173877,0.305180,-0.000366,-0.004883,0.983169
131,-1.770047,-3.540093,0.488289,0.006958,-0.010498,1.018936
132,-0.488289,-3.479057,0.366217,0.020142,-0.014649,1.009415
133,-0.244144,-2.929732,0.305180,0.000488,-0.013306,0.995865
134,-0.305180,-3.173877,0.488289,0.022461,-0.015503,1.018448
135,0.976577,-2.624552,0.488289,0.003296,-0.007324,1.012589
136,1.770047,-2.380407,0.122072,0.012207,-0.012207,0.980240
137,2.136263,-2.746624,0.244144,0.016602,-0.003174,1.009659
138,2.075227,-2.258335,0.122072,0.005982,-0.004150,0.990982
139,1.770047,-2.502480,0.061036,0.025879,-0.000732,0.995010
140,1.037613,-1.831083,0.000000,0.005249,-0.004150,0.995499
141,1.098650,-2.075227,0.183108,0.009888,-0.007202,1.008072
142,1.586938,-1.709010,0.183108,0.017212,-0.006104,1.005875
143,1.953155,-1.709010,0.183108,0.008789,-0.000244,0.998306
144,1.281758,-1.892119,0.366217,0.013916,-0.007813,1.002213
145,2.014191,-1.892119,0.732433,0.011963,-0.002808,0.992935
146,1.709010,-2.197299,0.793469,-0.002319,-0.009400,0.946304
147,1.281758,-3.234913,0.915541,0.008301,0.026612,0.960952
148,-2.685588,-4.333562,0.488289,0.005737,0.016236,0.943374
149,-5.737392,-5.004959,0.671397,0.024048,-0.008301,0.995743
150,-3.906310,-3.662165,0.549325,0.031617,-0.010864,1.031266
151,-3.112840,-2.929732,0.793469,0.014771,-0.014405,1.017472
152,-0.061036,-1.770047,0.732433,0.029664,-0.007080,1.018448
153,-0.671397,-1.403830,0.793469,0.020386,-0.009888,0.998795
154,0.732433,-1.098650,0.854505,0.015015,-0.006470,1.013809
155,0.854505,-1.037613,0.793469,0.016358,-0.008667,1.017594
156,0.610361,-1.159686,0.793469,0.013062,-0.007324,0.993545
157,1.953155,-1.220722,0.793469,0.020142,0.001221,0.998306
158,1.342794,-1.403830,0.793469,0.013062,0.014160,0.996719
159,0.976577,-1.953155,0.671397,0.012818,0.011475,0.944717
160,-3.234913,-2.441444,0.671397,0.019409,0.006470,0.997330
161,-2.807660,-2.075227,0.793469,0.034668,-0.011597,1.027481
162,-0.488289,-1.037613,0.671397,0.032593,-0.002686,1.005020
163,-1.098650,-0.854505,0.671397,0.014771,-0.005371,1.021622
164,0.732433,-0.488289,0.183108,0.026368,-0.010254,1.010513
165,0.366217,-0.305180,0.000000,0.022583,-0.009033,1.022354
166,2.136263,-0.244144,-0.244144,0.020020,-0.010254,1.011490
167,2.685588,-0.183108,-0.122072,0.026368,-0.003784,0.998428
168,2.685588,0.000000,0.000000,0.018555,0.008545,0.977554
169,0.793469,-0.488289,-0.183108,0.006470,0.016602,0.967910
170,-1.892119,-1.342794,0.061036,0.022217,0.005249,0.984878
171,-2.502480,-1.037613,0.122072,0.022583,-0.004395,0.989273
172,-2.563516,-0.732433,0.183108,0.026123,-0.007568,1.003189
173,-1.525902,-0.366217,0.000000,0.017578,-0.002686,0.997696
174,-2.441444,-0.671397,0.000000,0.019532,-0.013062,1.008438
175,-0.427253,-0.732433,-0.244144,0.019409,-0.007813,1.006607
176,-0.061036,-0.854505,-0.488289,0.014893,-0.000488,0.990372
177,-0.793469,-1.403830,-0.488289,0.025513,-0.006348,1.003311
178,0.183108,-1.220722,-0.793469,0.026246,-0.001465,0.993912
179,-0.732433,-1.525902,-0.732433,0.019532,0.004028,0.987076
180,-1.281758,-1.586938,-0.854505,0.029419,0.010254,0.970962
181,-4.333562,-1.586938,-0.854505,0.027344,0.013306,0.974502
182,-5.920500,-1.098650,-0.915541,0.035767,0.009644,0.998917
183,-8.361944,-0.305180,-0.488289,0.037598,-0.015015,1.026505
184,-5.371176,1.342794,-0.488289,0.029786,-0.007568,1.006119
185,-6.591897,1.586938,-0.183108,0.028443,-0.021607,1.019913
186,-4.211490,2.441444,-0.122072,0.026978,-0.018433,1.015030
187,-3.479057,2.624552,-0.122072,0.016236,-0.016846,1.005997
188,-2.807660,2.502480,0.000000,0.015503,-0.018433,1.010758
189,-1.647974,2.319371,-0.244144,0.014282,-0.019043,1.000015
190,-0.976577,1.953155,-0.427253,0.013306,-0.013306,1.003799
191,-0.610361,1.525902,-0.427253,0.008423,-0.007568,0.988540
192,-1.586938,0.732433,-0.366217,0.014038,-0.013916,0.995621
193,-1.464866,0.854505,-0.305180,0.016724,-0.014160,1.001358
194,-1.586938,0.915541,0.000000,0.026490,-0.017212,1.006241
195,-0.793469,1.403830,0.061036,0.014282,-0.015259,1.008438
196,-0.488289,1.464866,0.122072,0.015869,-0.014893,1.005264
197,-0.427253,1.281758,0.000000,0.012573,-0.015869,1.012100
198,0.793469,1.098650,-0.244144,0.016358,-0.021241,1.006241
199,1.159686,0.915541,-0.305180,0.017212,-0.015381,1.009537
200,2.197299,0.671397,-0.488289,0.005859,-0.018677,0.988540
201,2.197299,0.122072,-0.427253,0.009522,0.003418,0.969375
202,-0.244144,-0.549325,-0.427253,0.005859,-0.000244,0.981338
203,-1.586938,-1.037613,-0.488289,0.014038,-0.010254,0.992081
204,-1.464866,-1.281758,-0.488289,0.020752,0.000244,0.982193
205,-4.089418,-1.403830,-0.366217,0.023926,-0.018311,1.011246
206,-2.014191,-0.671397,-0.366217,0.027344,-0.021485,1.024186
207,-1.709010,0.122072,-0.183108,0.020996,-0.015259,1.008072
208,-1.525902,0.427253,-0.183108,0.025025,-0.019409,1.007950
209,-0.610361,0.915541,-0.183108,0.023804,-0.013306,1.008682
210,-1.098650,1.342794,-0.183108,0.015991,-0.020264,1.014542
211,0.122072,1.892119,-0.122072,0.021241,-0.022461,0.999527
212,0.671397,1.525902,-0.122072,0.009644,0.002319,0.969375
213,-2.319371,0.610361,0.183108,0.010132,-0.008301,0.982315
214,-2.868696,0.000000,0.427253,0.020630,-0.007202,0.980850
215,-5.188067,-0.366217,0.671397,0.007080,-0.010498,0.982925
216,-5.737392,-1.098650,0.671397,0.010132,-0.010742,0.993545
217,-5.859464,-1.159686,0.671397,0.021973,-0.019165,1.001114
218,-6.103609,-1.281758,0.793469,0.019409,-0.026490,1.006485
219,-4.089418,-0.854505,0.671397,0.024292,-0.022339,1.010880
220,-4.760815,-0.183108,0.915541,0.030396,-0.029297,1.019913
221,-2.990768,0.976577,1.159686,0.015991,-0.018555,1.014176
222,-3.173877,1.037613,1.342794,0.017212,-0.022705,0.996109
223,-3.784237,0.915541,1.464866,0.009400,-0.013184,0.972549
224,-6.469825,-0.244144,1.586938,-0.005859,0.006470,0.946304
225,-11.841001,-2.624552,1.586938,-0.011353,-0.001343,0.945693
226,-14.831769,-4.394598,1.342794,0.003174,-0.009522,0.970230
227,-16.906996,-5.249104,1.464866,0.000977,-0.022461,0.983536
228,-16.784924,-5.554284,1.342794,0.013306,-0.027710,0.994522
229,-17.639429,-5.615320,1.586938,0.025025,-0.025147,0.997574
230,-17.761501,-5.493248,1.770047,0.016968,-0.038697,1.022721
231,-17.517357,-5.127031,2.014191,0.021607,-0.033814,1.006241
232,-17.822538,-4.821851,1.647974,0.027832,-0.026734,0.999405
233,-19.714656,-5.249104,1.586938,0.013794,-0.047120,0.997818
234,-19.409476,-4.821851,2.014191,0.008423,-0.054566,1.036149
235,-20.325017,-4.028382,2.075227,0.034668,-0.048585,1.000504
236,-23.010605,-3.967346,2.441444,0.037964,-0.020142,0.974136
237,-26.489662,-2.441444,2.502480,0.061036,0.018555,0.959121
238,-37.048905,-1.342794,3.540093,0.022705,-0.000488,0.997330
239,-40.100710,-1.281758,3.906310,0.019776,-0.045289,0.981827
240,-42.114900,-0.610361,3.418021,0.061402,-0.055787,1.010513
241,-42.298009,0.427253,1.831083,0.017456,-0.076783,1.024063
242,-40.894179,1.586938,1.098650,0.047364,-0.102419,1.006119
243,-35.950256,3.967346,1.220722,0.002686,-0.096315,0.993179
244,-31.494621,5.859464,1.342794,0.036011,-0.077028,0.983169
245,-39.307240,5.493248,-2.502480,-0.015137,-0.148806,0.998062
246,-35.523003,5.310140,-0.915541,0.045289,-0.150637,0.932143
247,-41.443503,3.173877,-11.291676,-0.029541,-0.111696,1.006485
248,-45.532921,-0.732433,-16.235599,0.007691,-0.065431,1.023697
249,-47.913329,-2.075227,-19.409476,0.046021,-0.200809,0.984024
250,-43.579767,-0.427253,-8.422980,0.059937,-0.110353,1.032364
251,-48.645762,3.051804,-7.019150,0.010864,-0.093263,1.012467
252,-52.491035,2.624552,-5.432212,-0.000610,-0.134646,0.985733
253,-60.608835,2.807660,-4.882887,0.023072,-0.124025,0.979751
254,-57.557031,0.183108,-5.493248,0.073121,-0.047364,0.954726
255,-74.280919,3.845274,-5.920500,0.033936,-0.018921,0.894911
256,-114.564736,1.831083,3.112840,-0.040040,-0.171145,0.953017
257,-125.368124,-0.854505,9.033341,0.119142,-0.114626,1.167010
258,-118.593118,13.488975,-11.841001,0.104738,-0.041016,0.909438
259,-157.228962,15.136950,-21.118486,-0.047730,-0.048341,1.071305
260,-205.874723,18.127718,-7.751583,0.126955,-0.073610,1.164813
261,-232.364385,21.362631,-6.103609,-0.037720,-0.091066,1.146014
262,-272.648203,8.422980,-3.540093,0.112673,0.069947,1.352560
263,-331.975280,23.315785,1.709010,0.152468,-0.155642,1.290425
264,-354.070344,40.711070,5.432212,0.179568,-0.190555,1.335592
265,-382.757305,63.599603,14.526589,0.187137,-0.324468,1.536400
266,-400.701915,86.488136,68.360418,-0.711925,-0.603769,1.999969
267,-340.886549,39.551385,50.843061,-1.274311,-0.140505,1.999969
268,42.786297,-10.864424,10.254063,-0.395148,-0.065431,1.999969
269,151.186389,-1.281758,-4.577707,-0.239872,0.608652,1.139544
270,22.888533,-15.503166,38.452735,-0.048341,0.557870,0.868666
271,-39.978637,-11.657893,40.772107,0.249882,0.019165,0.688609
272,40.588998,21.301595,9.826810,0.327886,0.246464,0.623056
273,29.907683,28.747997,-9.033341,0.379767,0.404059,0.394049
274,-2.197299,20.019837,-18.860151,0.349737,0.296269,0.661387
275,30.884260,10.742351,-34.119173,0.294316,0.302495,0.812024
276,46.631571,-3.479057,-43.274586,0.220951,0.368292,0.841566
277,52.002747,-14.282444,-47.547112,0.141115,0.308232,0.972183
278,74.891279,-14.953841,-51.270314,0.042603,0.279667,0.994522
279,87.953002,-14.892805,-50.782025,-0.040894,0.275151,1.015396
280,98.878462,-14.282444,-46.692607,-0.139040,0.241459,1.175921
281,118.471046,-12.085145,-39.673457,-0.211063,0.220096,1.277852
282,138.735027,-7.873655,-32.227054,-0.228275,0.136721,1.220722
283,154.482338,-2.807660,-22.888533,-0.225834,0.104616,1.182269
284,166.079194,1.342794,-13.855192,-0.192142,0.063111,1.100237
285,174.441138,4.882887,-6.530861,-0.136477,0.043824,1.037491
286,177.615015,7.507439,-0.915541,-0.069459,0.025269,1.011978
287,179.140917,9.582666,2.197299,-0.009766,0.019287,1.036637
288,181.216144,9.521630,3.662165,0.059571,0.021729,1.090715
289,183.474479,6.713970,2.563516,0.111940,0.035645,1.191058
290,187.747005,3.418021,0.244144,0.169802,0.043336,1.267353
291,190.615702,1.342794,-4.516670,0.193606,0.016480,1.312886
292,194.216831,0.305180,-10.193027,0.198611,-0.012696,1.318990
293,194.949264,2.502480,-16.174563,0.190066,-0.043214,1.310445
294,191.409171,5.798428,-21.423667,0.154665,-0.071290,1.334737
295,186.709392,8.361944,-25.207904,0.097658,-0.097780,1.480735
296,186.648356,9.033341,-27.100023,0.054932,-0.119875,1.708522
297,192.263676,8.728161,-27.832456,0.021729,-0.148928,1.897368
298,205.142290,8.178836,-29.236286,0.060304,-0.170901,1.949371
299,216.128786,8.484016,-32.593271,0.139895,-0.231083,1.861112
300,221.377890,8.484016,-39.246204,0.152468,-0.328252,1.731350
301,222.842756,8.728161,-47.241932,0.162356,-0.403693,1.565820
302,215.091173,10.070954,-54.749371,0.167605,-0.496834,1.477073
303,205.264363,13.733120,-61.219196,0.081178,-0.588510,1.376364
304,196.414130,14.648661,-64.820325,0.005005,-0.645151,1.274556
305,182.925155,15.625238,-64.942397,-0.084108,-0.691417,1.194720
306,168.459602,18.432898,-62.073701,-0.151980,-0.738415,1.090105
307,152.895399,24.231327,-57.251850,-0.220218,-0.778698,0.951797
308,131.288624,31.433585,-48.096437,-0.307744,-0.813611,0.906020
309,110.963607,34.912642,-33.569848,-0.407477,-0.847425,0.967788
310,99.244678,33.875029,-14.343481,-0.459724,-0.883680,1.066545
311,88.197147,29.358358,9.277485,-0.505867,-0.964248,1.169696
312,87.586786,25.207904,34.241245,-0.480110,-1.073991,1.107805
313,87.586786,23.620966,57.862211,-0.405402,-1.158221,0.884291
314,74.341955,22.461280,78.126192,-0.248417,-1.235981,0.656992
315,55.420768,22.522316,91.798276,-0.062623,-1.267475,0.508797
316,33.325704,21.789883,96.742199,0.102541,-1.258442,0.532845
317,13.061723,22.949569,94.728008,0.210452,-1.159930,0.634775
318,-42.175937,54.444190,79.468986,0.728649,-1.318746,0.025757
319,-95.826658,83.680476,59.449149,0.101564,-1.502464,0.004273
320,-127.321279,75.196460,52.857252,-0.041505,-1.614649,-0.071412
321,-127.260243,8.789197,34.912642,0.242802,-0.167849,0.606821
322,-77.576867,-39.612421,7.263294,0.369879,0.810315,1.999969
323,-98.146029,-17.212177,5.249104,0.034791,0.962539,1.548363
324,-132.631418,-23.376822,4.272526,-0.340581,0.095460,0.016358
325,-166.384375,-48.279545,20.996414,-0.297856,-0.183719,0.120485
326,-203.067063,-32.898451,37.354086,0.076905,0.025513,1.286519
327,-208.316167,-30.029755,34.302281,0.517098,-0.023682,1.999969
328,-144.411383,-21.789883,16.418708,0.669078,-0.166995,1.999969
329,-77.027543,4.943923,-4.943923,0.278813,0.013550,1.408347
330,-89.112688,17.151141,-3.784237,-0.398566,-0.006592,1.286397
331,-112.245365,-11.718929,20.447089,-0.880262,-0.283330,1.636988
332,-61.097124,-43.579767,30.273899,-0.443854,-0.245975,1.024430
333,-41.382467,-66.102083,27.893492,0.518318,0.295903,1.855985
334,-52.613108,-43.457694,19.043259,0.802014,0.098268,1.667140
335,-20.630198,-2.807660,2.807660,-0.053101,0.050416,1.191547
336,-36.133364,-13.183795,8.606088,-0.305669,0.028199,1.106218
337,-28.625925,-23.193713,5.798428,0.192752,0.016602,1.329244
338,-11.841001,-5.249104,-1.098650,0.223758,0.039307,1.276020
339,-10.864424,6.286717,1.342794,-0.069947,0.011353,1.048112
340,-6.591897,4.638743,1.892119,-0.043458,0.048219,1.005509
341,-6.042573,5.188067,1.403830,0.028931,0.081788,0.950454
342,-14.465553,7.446403,2.685588,-0.006104,0.043336,0.985611
343,-15.197986,8.972305,3.906310,-0.010376,0.011963,1.057023
344,-8.545052,10.437171,3.601129,-0.020142,0.031617,0.991470
345,-11.535821,9.460594,4.211490,-0.032105,0.036500,0.982559
346,-11.779965,6.103609,4.577707,-0.055543,0.015137,1.015885
347,-6.713970,2.807660,3.234913,-0.051881,0.035035,1.005142
348,-6.408789,-0.183108,2.075227,-0.038453,0.033570,0.976211
349,-5.676356,-1.464866,1.037613,-0.031495,0.042969,1.015518
350,-5.859464,-1.464866,-0.183108,-0.026978,0.043824,1.024186
351,-4.821851,-0.549325,-0.427253,-0.025269,0.028809,1.018082
352,-3.845274,0.610361,-0.976577,-0.018189,0.018921,1.045914
353,-2.990768,2.868696,-0.488289,0.009522,0.006714,1.056779
354,1.220722,5.432212,-0.244144,-0.023438,0.020020,1.008927
355,0.854505,5.798428,0.305180,-0.010986,0.041016,1.011246
356,-0.671397,6.652934,0.244144,-0.008057,0.026123,1.025772
357,2.380407,7.934691,-0.122072,-0.016968,0.020142,1.007950
358,2.990768,8.056764,-0.183108,-0.021973,0.033936,0.991348
359,2.441444,7.263294,-0.366217,-0.042603,0.039063,0.951553
360,2.136263,5.920500,-0.488289,-0.036622,0.047608,0.964981
361,-1.098650,4.882887,-0.366217,-0.026734,0.040040,0.963027
362,-1.586938,4.638743,0.000000,-0.049317,0.032593,0.970596
363,-2.746624,3.295949,0.671397,-0.048951,0.027955,0.987564
364,-2.868696,2.441444,0.854505,-0.042115,0.024903,1.000259
365,-0.610361,2.014191,0.732433,-0.039063,0.027955,0.988663
366,-1.342794,1.342794,1.159686,-0.035279,0.036622,0.970108
367,-2.258335,0.915541,1.159686,-0.040406,0.038209,0.970230
368,-3.540093,0.122072,1.464866,-0.068727,0.045655,0.923110
369,-7.934691,-2.441444,2.136263,-0.043580,0.051514,0.954482
370,-10.742351,-3.295949,2.075227,-0.033936,0.035157,0.962783
371,-10.498207,-2.807660,1.586938,-0.029175,0.041260,0.976822
372,-13.122759,-2.807660,1.831083,-0.038575,0.025513,0.975113
373,-13.672084,-3.418021,1.831083,-0.060304,0.018311,0.993301
374,-13.794156,-5.004959,1.831083,-0.038209,0.006470,1.022232
375,-11.902037,-5.371176,1.525902,-0.030884,-0.000855,1.024674
376,-9.460594,-5.737392,0.976577,-0.047974,0.000000,1.007706
377,-7.629511,-7.141222,0.366217,-0.058106,-0.001099,1.013565
378,-4.882887,-7.385367,-0.305180,-0.014160,0.014160,1.017838
379,-4.272526,-6.469825,-0.610361,-0.043702,0.030640,0.972427
380,-8.484016,-7.446403,-0.610361,-0.016968,0.014038,1.001236
381,-7.995727,-6.408789,-0.488289,-0.020508,0.000610,1.016861
382,-6.836042,-5.371176,-0.305180,-0.018189,0.001465,1.004654
383,-7.141222,-5.127031,0.000000,-0.022461,0.003296,1.005875
384,-6.713970,-4.821851,0.000000,-0.016358,-0.002808,1.012100
385,-4.943923,-4.455634,-0.305180,-0.015137,0.002686,1.006363
386,-5.676356,-3.234913,-1.525902,-0.000366,0.043091,1.020401
387,-4.455634,-3.723201,-1.525902,-0.066651,-0.013306,1.017838
388,-10.315099,-6.836042,-0.549325,0.001709,0.014282,0.949966
389,-9.277485,-5.920500,-1.037613,-0.006470,0.013794,0.990127
390,-12.268254,-5.004959,-0.427253,-0.015137,-0.000488,1.028580
391,-11.169604,-3.051804,0.122072,0.013062,-0.020874,1.030289
392,-8.789197,-0.732433,0.549325,-0.009155,-0.010010,1.016861
393,-8.545052,0.061036,0.671397,-0.013794,-0.003906,1.006241
394,-9.399557,0.427253,0.915541,-0.012451,-0.025147,1.025772
395,-6.225681,1.281758,0.854505,-0.017212,-0.025147,1.018570
396,-4.638743,1.281758,0.793469,-0.024537,-0.014649,1.004166
397,-4.516670,0.915541,0.732433,-0.028321,-0.013062,0.990372
398,-4.577707,0.427253,0.671397,-0.030884,0.006836,0.966201
399,-8.667124,-1.098650,1.037613,-0.028809,0.023316,0.949477
400,-13.488975,-2.319371,1.037613,-0.022339,0.012818,0.959487
401,-16.357671,-2.197299,1.098650,-0.013916,-0.000488,1.024796
402,-14.282444,-1.647974,2.685588,0.061402,0.061402,0.897719
403,-19.104295,0.671397,2.441444,-0.001465,-0.025025,0.970108
404,-20.080873,1.586938,2.746624,-0.008423,-0.046876,1.041276
405,-15.259022,3.173877,2.746624,-0.015381,-0.027100,1.012100
406,-16.357671,2.929732,2.990768,-0.020752,-0.036500,0.996353
407,-17.212177,2.197299,3.723201,-0.030884,-0.045777,1.003433
408,-14.892805,1.647974,3.051804,-0.033082,-0.022461,0.979019
409,-18.799115,-0.183108,2.746624,-0.042115,-0.014405,0.954971
410,-20.874342,-1.525902,2.502480,-0.013184,-0.018067,0.962295
411,-25.329976,-2.868696,2.075227,-0.042115,-0.034058,0.970596
412,-23.926146,-3.967346,1.342794,-0.032105,-0.034058,0.984512
413,-25.696193,-5.004959,0.854505,-0.029175,-0.039673,1.007095
414,-28.503853,-5.798428,0.732433,-0.036744,-0.063233,1.013321
415,-25.635157,-6.408789,0.000000,0.005005,-0.022217,1.032120
416,-25.452049,-5.493248,-2.136263,-0.103151,-0.054200,0.966323
417,-29.236286,-9.155413,0.061036,-0.043702,-0.052003,0.948379
418,-35.584039,-9.460594,0.854505,0.005615,-0.078004,1.022965
419,-32.227054,-8.178836,0.061036,-0.042481,-0.072511,1.002945
420,-28.747997,-7.141222,-1.403830,-0.022095,-0.035157,1.010880
421,-34.180209,-5.737392,-1.647974,-0.011597,-0.045045,1.013077
422,-43.823911,-8.117800,-4.882887,-0.031495,-0.109010,1.016739
423,-45.410849,-7.995727,-9.094377,-0.041749,-0.076295,1.035172
424,-46.509499,-7.690547,-17.639429,-0.000855,-0.157351,1.030045
425,-45.960174,-5.859464,-15.075914,-0.046509,-0.062013,1.094621
426,-48.218509,-2.990768,-17.334249,0.001587,-0.103517,1.087419
427,-49.683375,-1.342794,-11.779965,0.025513,-0.145388,1.070695
428,-48.645762,-1.770047,-4.577707,-0.064942,0.010864,1.055802
429,-55.237659,-3.540093,-11.291676,0.041627,-0.035767,0.977188
430,-68.116274,-3.295949,-13.000687,0.011109,0.051637,0.865126
431,-91.554131,-7.263294,-17.517357,-0.016114,0.268193,0.768322
432,-153.200580,-10.315099,-13.488975,0.019532,0.031617,0.894179
433,-199.038682,-12.146181,-7.080186,0.128786,0.042725,1.044572
434,-211.612116,19.287404,-18.738079,0.114015,-0.030396,1.168475
435,-261.051347,13.916228,-17.273213,0.070192,0.086061,1.137713
436,-329.961090,20.935378,-7.629511,-0.036378,-0.029419,1.725490
437,-369.695583,25.574121,-13.916228,0.164797,0.085939,1.420066
438,-451.789120,44.922560,-7.324331,0.031373,-0.129885,1.332052
439,-493.171588,44.190127,20.630198,0.159548,-0.229252,1.135393
440,-536.140993,64.698253,42.053864,0.223392,-0.922499,1.640528
441,-529.915312,37.048905,98.695354,-1.699855,0.106447,1.999969
442,-185.549706,-51.453422,-31.006332,-0.432258,-1.003433,1.999969
443,168.520638,-33.630884,-23.926146,-0.543221,0.526619,1.999969
444,73.792630,-28.137636,-33.264668,-0.210208,0.236698,1.470726
445,-58.594644,-34.607462,32.715343,-0.079469,0.506722,0.969253
446,-24.292363,-11.474784,27.344167,0.107057,0.231449,1.016861
447,61.951629,13.305867,-2.075227,0.072511,0.381109,0.683848
448,27.222095,1.220722,-1.220722,0.109255,0.403693,0.655528
449,23.071641,-15.747311,-1.709010,0.090089,0.278325,0.905409
450,68.848707,-26.062409,-8.972305,0.080446,0.371099,0.931777
451,76.356146,-36.743725,-10.864424,0.028809,0.399054,0.953994
452,86.182956,-43.823911,-12.268254,-0.013184,0.337285,1.089006
453,115.114061,-45.349813,-15.197986,-0.069215,0.339239,1.141863
454,131.960021,-48.096437,-15.747311,-0.129763,0.326055,1.208392
455,150.331884,-46.448463,-15.075914,-0.203861,0.255497,1.270649
456,173.464561,-40.344854,-13.672084,-0.262455,0.193484,1.256245
457,189.639124,-30.212863,-10.559243,-0.317388,0.114870,1.169085
458,200.625620,-19.714656,-5.493248,-0.367437,0.025147,1.102190
459,209.292744,-12.207218,1.342794,-0.390143,-0.026978,1.084611
460,215.335317,-8.545052,9.277485,-0.373907,-0.048096,1.147478
461,221.805142,-7.385367,16.418708,-0.322271,-0.078981,1.171038
462,229.190509,-9.277485,21.057450,-0.248295,-0.077272,1.227802
463,234.134432,-8.789197,21.301595,-0.124025,-0.075319,1.314351
464,237.613489,1.892119,15.503166,-0.042359,-0.122683,1.275044
465,236.575875,14.953841,6.347753,0.021363,-0.206668,1.204242
466,229.312581,31.433585,-2.990768,0.083253,-0.239994,1.214496
467,217.715724,44.434272,-10.742351,-0.007324,-0.324712,1.194965
468,213.138018,42.664225,-15.320058,0.031861,-0.318730,1.232563
469,202.090486,39.246204,-18.127718,0.008789,-0.328862,1.185809
470,189.456016,33.264668,-20.141909,0.044434,-0.317754,1.383200
471,180.605783,34.729534,-21.362631,0.033326,-0.246586,1.667872
472,179.324025,34.912642,-25.391012,0.009033,-0.315190,1.859037
473,187.380789,39.734493,-28.809033,-0.057984,-0.414191,1.850736
474,194.338903,45.654994,-30.762188,-0.097169,-0.503914,1.665675
475,190.554665,50.598917,-30.518044,-0.132204,-0.541756,1.542626
476,182.558938,52.429999,-28.747997,-0.157351,-0.579599,1.516136
477,180.605783,54.932479,-27.283131,-0.175296,-0.594247,1.477684
478,175.295644,61.036088,-24.963760,-0.181033,-0.594125,1.402243
479,166.689555,69.703212,-21.911955,-0.165896,-0.601450,1.320821
480,155.519951,74.586099,-17.029068,-0.143801,-0.570932,1.505760
481,148.439765,69.520104,-8.972305,-0.129519,-0.591196,1.805203
482,164.492256,58.228428,-1.464866,-0.045899,-0.656138,1.812284
483,180.056458,47.547112,4.577707,0.010498,-0.752331,1.654810
484,180.666819,36.621653,12.268254,0.034668,-0.938857,1.422873
485,180.605783,28.870069,19.226368,0.057496,-1.160174,1.103044
486,166.872663,23.559930,24.475471,0.186404,-1.403708,0.819104
487,138.368811,20.691234,22.278172,0.393927,-1.667750,0.640513
488,111.635004,26.184482,6.713970,0.636851,-1.892241,0.363165
489,89.906157,40.894179,-16.357671,0.707897,-1.944976,-0.069581
490,50.049592,41.077287,-28.564889,0.532479,-1.838407,-0.366339
491,-4.455634,12.573434,-23.010605,0.265141,-1.608423,-0.207279
492,-41.687648,-30.884260,-9.948882,0.031861,-1.343526,0.323369
493,-113.344015,-87.098497,-9.948882,0.016358,-1.469505,-0.440925
494,-201.358053,-128.725109,12.878614,0.212161,-0.903822,0.611337
495,-114.320592,-63.965820,0.122072,-0.098146,0.197513,1.822904
496,-88.563363,-13.794156,-15.381094,-0.711803,0.812390,1.822171
497,-138.918135,-39.734493,17.761501,-0.598032,0.526864,0.461677
498,-213.321126,-70.130465,33.142596,-0.249760,-0.112917,0.291997
499,-222.659648,-56.519417,43.884947,0.013672,-0.291142,1.278950
500,-211.429007,-39.734493,49.561303,0.623911,-0.081910,1.999969
501,-158.083467,-28.931106,30.945296,1.027237,0.010620,1.999969
502,-88.380255,-6.347753,-2.441444,0.573373,-0.003662,1.999969
503,-63.233387,12.024109,-11.779965,-0.159182,0.019898,1.372091
504,-72.327764,6.408789,4.882887,-1.026871,0.018311,1.236103
505,-78.431373,-33.997101,31.982910,-0.928115,-0.190433,0.479988
506,-76.173037,-77.576867,45.166705,-0.168704,-0.012573,0.497444
507,-94.728008,-102.784772,47.913329,0.796399,0.424689,1.999969
508,-84.779126,-67.261769,22.217136,1.074357,-0.074586,1.999969
509,-25.574121,-15.625238,2.014191,-0.171511,-0.034302,1.298726
510,-38.757916,-24.475471,6.713970,-0.223270,0.083619,1.123919
511,-43.091478,-32.471199,4.028382,0.265751,0.069337,1.227314
512,-26.855879,-14.648661,0.000000,0.085206,0.056397,1.143572
513,-34.790570,-11.535821,3.906310,-0.020996,0.000122,1.058244
514,-25.207904,-7.080186,1.525902,0.116457,0.025513,1.205219
515,-20.202945,-1.831083,1.525902,-0.028077,-0.011353,1.091203
516,-11.230640,-1.892119,1.342794,0.051270,0.018799,1.086442
517,-7.629511,1.709010,1.159686,0.054200,0.025025,1.085222
518,-6.652934,3.967346,1.647974,0.004761,0.036866,0.988785
519,-7.629511,3.601129,1.586938,0.022705,0.035401,1.018570
520,-8.117800,3.967346,1.525902,0.003174,0.016480,1.016739
521,-5.798428,2.685588,1.342794,-0.004150,0.024414,0.992813
522,-5.676356,0.610361,1.037613,-0.017090,0.048951,0.930312
523,-10.131991,-1.098650,-0.610361,-0.020142,0.172366,1.055070
524,-13.611048,-4.638743,0.000000,0.005493,-0.008667,0.982681
525,-14.770733,-5.065995,0.000000,0.012085,-0.010742,0.995377
526,-12.085145,-3.601129,0.183108,0.023560,0.003784,1.052262
527,-10.437171,-1.953155,0.671397,0.012451,0.006226,1.022599
528,-7.751583,-0.732433,0.488289,0.009155,0.022095,0.994644
529,-9.826810,0.854505,-1.709010,0.026978,-0.138186,0.894911
530,-8.117800,0.976577,0.244144,-0.000855,0.046265,1.037613
531,-10.193027,0.366217,1.098650,-0.005249,0.029664,1.017227
532,-9.155413,0.366217,0.976577,0.001221,0.005005,0.960098
533,-10.925460,-0.549325,1.098650,-0.008179,0.013672,0.990005
534,-11.352712,-0.488289,0.793469,-0.003784,0.011963,0.992081
535,-12.573434,-1.098650,0.793469,0.001099,-0.004517,0.998428
536,-10.803388,-1.037613,0.671397,-0.002075,0.012818,0.994400
537,-13.000687,-0.549325,-0.305180,0.008057,0.052979,1.053849
538,-11.352712,-1.098650,-0.183108,0.012085,-0.063722,1.035050
539,-11.230640,-2.197299,0.732433,0.002564,-0.017945,0.987808
540,-9.460594,-2.380407,0.671397,0.005005,-0.010498,1.013199
541,-8.972305,-2.075227,0.854505,0.011353,-0.022827,1.015763
542,-7.568475,-1.403830,1.098650,0.000977,-0.007691,0.999527
543,-7.263294,-2.014191,1.220722,0.002930,-0.007935,0.979751
544,-8.545052,-2.807660,1.037613,-0.010498,0.002075,0.976455
545,-12.146181,-3.723201,1.403830,0.010132,-0.011963,1.001114
546,-11.047532,-3.295949,1.709010,0.019532,-0.016724,1.007218
547,-9.704738,-2.807660,1.647974,0.004395,-0.032715,0.985245
548,-11.657893,-3.662165,2.136263,0.012451,-0.013672,1.009781
549,-11.352712,-3.540093,2.380407,0.013428,0.001587,1.014542
550,-10.986496,-3.906310,2.380407,-0.000366,-0.010376,1.015396
551,-10.131991,-4.394598,2.136263,0.007446,-0.006470,0.984756
552,-12.939651,-5.371176,2.197299,-0.001465,-0.012940,0.979019
553,-14.648661,-6.652934,2.441444,-0.003052,-0.011719,0.975235
554,-17.090105,-7.263294,2.685588,0.012818,-0.010864,0.964248
555,-21.423667,-7.324331,2.685588,0.015015,-0.016480,0.986831
556,-22.278172,-6.775006,2.868696,0.021607,-0.015625,0.990860
557,-25.513085,-6.775006,2.929732,0.013184,-0.018189,0.999039
558,-27.588312,-6.713970,2.807660,0.015259,-0.039429,1.003677
559,-28.015564,-6.347753,2.563516,0.024781,-0.059937,1.009049
560,-25.085832,-5.798428,2.014191,0.017578,-0.061891,1.030533
561,-24.658579,-5.493248,2.136263,0.013794,-0.064820,0.987686
562,-23.682002,-5.615320,2.563516,-0.022705,-0.082521,0.947158
563,-27.344167,-8.361944,2.990768,0.011963,-0.011719,0.961318
564,-34.302281,-10.864424,2.685588,0.000122,-0.007324,0.963882
565,-36.804761,-11.474784,2.014191,0.023072,-0.012573,0.968521
566,-45.716030,-13.672084,1.709010,-0.017823,-0.072389,0.948989
567,-38.635843,-14.221408,1.770047,0.087526,-0.020386,1.190570
568,-50.293736,-6.775006,1.464866,0.010742,-0.105592,0.989517
569,-47.547112,-5.188067,2.197299,0.060182,-0.111574,1.005509
570,-46.509499,-2.075227,2.502480,0.043824,-0.084108,1.008682
571,-53.772793,-1.892119,2.502480,0.026368,-0.063722,1.025040
572,-54.077974,0.244144,-0.244144,0.025269,-0.093629,0.989029
573,-55.359731,0.122072,-4.699779,-0.051392,-0.081788,1.006363
574,-57.740139,0.000000,-13.366903,0.013428,-0.052125,0.936538
575,-70.679789,4.638743,-27.588312,-0.027710,-0.150149,1.011612
576,-88.807507,14.282444,-43.762875,0.054810,-0.247318,1.103777
577,-55.786984,8.545052,-29.846647,0.174075,-0.389532,0.961318
578,-52.307927,-0.366217,-5.065995,0.040894,0.065431,0.967178
579,-87.220569,2.075227,-14.160372,0.022461,0.023682,0.995743
580,-127.321279,10.803388,-14.221408,0.177615,-0.028321,0.832776
581,-112.733654,8.422980,13.611048,0.124758,-0.158694,0.975601
582,-104.554818,0.915541,-0.854505,-0.165652,0.679210,0.975113
583,-204.226749,-24.963760,-24.658579,-0.246464,0.266606,1.187884
584,-384.222171,-10.864424,4.211490,0.256107,0.344366,1.052628
585,-516.670481,-38.147555,45.532921,-0.250370,0.033570,1.923369
586,-528.267338,-54.566262,35.034714,0.161868,-0.294926,0.846937
587,-576.058595,-45.654994,31.128405,0.043824,-0.413947,1.097063
588,-614.389258,-50.659953,38.025483,0.083009,-0.454719,0.833631
589,-667.978943,-61.158160,79.041733,0.337163,-1.512596,1.999969
590,-621.774624,-19.165332,114.808881,-0.808484,0.096925,1.999969
591,-174.441138,-48.035401,-20.813306,-0.000244,-0.496345,1.999969
592,46.692607,-21.545739,-37.170977,-0.125124,0.732555,1.999969
593,-10.803388,-18.249790,-36.438544,-0.043336,0.789929,1.999969
594,-36.255436,-20.386053,-5.615320,-0.136233,0.597543,1.999969
595,92.835889,11.047532,-14.221408,-0.165652,0.419562,1.999969
596,166.872663,24.597543,-20.202945,-0.166873,0.446418,1.316548
597,146.547646,25.879301,-10.925460,-0.179934,0.274296,0.886244
598,158.022431,28.137636,-5.981537,-0.184817,0.080446,0.643076
599,176.333257,30.762188,-2.685588,-0.140993,0.082765,0.390143
600,161.745632,27.710384,2.258335,-0.095583,0.066285,0.310552
601,151.064317,18.066682,6.713970,-0.054444,0.067384,0.443488
602,156.374456,3.479057,7.629511,0.005127,0.144289,0.656748
603,161.379416,-9.399557,6.042573,0.073976,0.228275,0.943496
604,172.365911,-13.244831,0.366217,0.101686,0.245243,1.244770
605,194.033722,-7.690547,-8.789197,0.124025,0.256352,1.431052
606,215.823606,2.441444,-19.226368,0.133669,0.224125,1.507591
607,236.758984,11.963073,-28.076600,0.114260,0.167361,1.520409
608,256.656748,16.540780,-35.095750,0.121950,0.080201,1.545800
609,276.737621,19.226368,-39.978637,0.113649,0.001831,1.558129
610,293.522545,20.813306,-43.701839,0.134524,-0.075807,1.458640
611,304.020752,24.536507,-47.669184,0.160525,-0.148562,1.302266
612,305.912871,31.433585,-53.040360,0.169436,-0.264408,0.965835
613,293.156329,45.899138,-58.777752,0.167239,-0.407355,0.615366
614,261.600671,62.073701,-59.754330,0.179934,-0.420539,0.548226
615,225.650416,61.158160,-58.411536,0.139406,-0.368048,0.920668
616,211.245899,49.195087,-57.679103,0.139773,-0.306157,1.292622
617,212.710765,40.283818,-60.608835,0.143557,-0.175784,1.763577
618,205.630579,43.457694,-62.561990,0.128786,-0.171145,1.999969
619,216.739147,57.862211,-64.026856,0.052613,-0.327886,1.999969
620,245.365072,68.299382,-64.637217,-0.017945,-0.457527,1.999969
621,259.220264,69.398032,-59.143969,-0.132082,-0.539925,1.999969
622,266.422522,61.768521,-48.584726,-0.207156,-0.644175,1.999969
623,284.184024,58.350500,-38.757916,-0.204471,-0.734386,1.999969
624,291.508354,64.698253,-29.968719,-0.135500,-0.773693,1.957061
625,281.010147,73.304341,-21.362631,-0.028931,-0.841566,1.813260
626,273.563745,77.943084,-15.503166,0.056764,-0.916640,1.758083
627,264.469368,76.173037,-10.376135,0.092897,-1.044083,1.689479
628,253.116655,72.632944,-5.127031,0.097658,-1.214130,1.527001
629,237.735561,69.581140,0.000000,0.073854,-1.453758,1.254170
630,212.832837,67.872129,5.798428,0.141115,-1.771389,0.911269
631,172.976272,67.200732,8.606088,0.428107,-2.000031,0.625010
632,124.269474,75.684749,-1.342794,0.776745,-2.000031,0.380987
633,85.755703,96.009766,-27.954528,0.796765,-2.000031,0.121462
634,62.561990,103.150988,-38.941024,0.525643,-2.000031,-0.290654
635,11.413748,67.139696,-22.644388,0.036744,-2.000031,-0.476081
636,-86.182956,-38.269627,13.733120,-0.122072,-2.000031,-1.154437
637,-187.319753,-154.665446,54.688334,0.377081,-1.818509,-0.187381
638,-227.359426,-136.842908,52.307927,0.659678,-1.732204,0.750988
639,-174.807355,-69.275959,36.743725,0.018555,-0.030640,1.426535
640,-140.749218,-66.651408,7.141222,-0.149660,0.552743,1.999969
641,-178.286412,-64.087892,34.851606,0.080201,0.675792,1.517967
642,-248.477913,-61.524376,38.513771,0.179080,-0.113039,0.832166
643,-248.111696,-33.020523,39.185168,0.396735,-0.348150,1.084733
644,-224.734875,-24.414435,30.579080,0.552865,-0.081178,1.999969
645,-205.874723,15.136950,16.845960,0.531014,-0.156497,1.999969
646,-139.040208,28.870069,6.713970,-0.355840,-0.134768,1.914458
647,-146.486610,-34.058137,25.696193,-0.997940,-0.588266,1.999969
648,-59.510185,-81.971466,37.720302,-0.291264,-0.255375,1.331563
649,-61.097124,-91.371023,32.532235,1.252461,0.412360,1.999969
650,-63.172351,-20.386053,19.409476,0.830213,0.025879,1.778470
651,-39.551385,9.643702,8.606088,-0.739025,-0.130129,1.047501
652,-36.926833,-26.916915,14.404517,-0.074098,0.096681,1.063493
653,-34.241245,-19.531548,4.333562,0.507942,0.172244,1.321187
654,-40.405890,0.122072,4.394598,-0.210208,-0.041627,1.141863
655,-27.038987,-9.704738,5.127031,-0.068849,-0.044678,1.090837
656,-17.944610,-5.432212,2.441444,0.178225,0.042603,1.156878
657,-20.508125,3.967346,3.906310,-0.102541,-0.023316,1.025406
658,-14.526589,1.037613,3.906310,-0.005859,0.021485,1.021988
659,-14.831769,4.272526,3.112840,0.035035,0.034302,1.048600
660,-16.968032,7.202258,3.723201,-0.051392,-0.028809,1.059709
661,-11.413748,8.422980,4.028382,0.030762,0.008057,1.055436
662,-12.024109,12.207218,4.577707,-0.005737,0.011231,1.029557
663,-11.718929,12.939651,4.882887,-0.031373,-0.007813,1.030900
664,-9.155413,14.099336,4.211490,-0.008423,0.010254,1.020279
665,-9.765774,15.014878,3.906310,-0.040406,0.005737,1.007095
666,-8.178836,14.343481,3.112840,-0.075074,-0.005493,0.969375
667,-7.812619,11.474784,2.685588,-0.086671,0.015625,0.956191
668,-8.972305,7.507439,2.258335,-0.093141,-0.001343,0.962417
669,-7.507439,4.211490,1.709010,-0.082521,0.007080,0.955703
670,-7.751583,0.732433,1.159686,-0.094728,0.013672,0.931655
671,-11.413748,-3.479057,1.159686,-0.085817,0.013428,0.939590
672,-13.061723,-4.882887,1.220722,-0.044556,0.000488,1.011124
673,-11.779965,-3.356985,0.915541,-0.040528,-0.001465,1.000381
674,-13.672084,-2.502480,1.464866,-0.047120,-0.011963,1.003189
675,-14.099336,-1.770047,2.258335,-0.029541,-0.016236,1.028092
676,-12.451362,0.183108,2.563516,-0.048341,-0.016602,1.015640
677,-10.986496,0.305180,2.685588,-0.053590,-0.024781,0.998550
678,-10.925460,-0.305180,2.563516,-0.060060,-0.015747,1.010147
679,-8.972305,-1.403830,2.319371,-0.062867,-0.029541,1.003433
680,-6.897078,-2.990768,1.770047,-0.083375,-0.017334,0.959731
681,-7.141222,-5.859464,1.098650,-0.064576,-0.002075,0.972549
682,-10.498207,-7.751583,0.244144,-0.068238,0.002075,0.962295
683,-13.488975,-9.643702,-0.244144,-0.065797,-0.019654,0.980972
684,-12.329290,-8.789197,-2.685588,-0.026368,-0.109865,0.900771
685,-11.047532,-10.803388,-0.976577,-0.072755,0.005859,1.071550
686,-16.968032,-12.207218,0.183108,-0.040284,-0.037964,1.008927
687,-9.948882,-11.779965,-0.671397,-0.051026,-0.046754,1.007950
688,-5.981537,-10.925460,-3.234913,-0.027222,-0.073854,0.852064
689,-7.873655,-12.207218,-1.647974,-0.037110,-0.033814,1.043961
690,-11.657893,-11.596857,-0.122072,-0.021729,-0.052003,1.043717
691,-7.690547,-9.765774,-0.305180,-0.017212,-0.040162,1.003067
692,-9.521630,-8.484016,0.061036,0.002686,-0.039918,1.032364
693,-8.972305,-5.920500,0.976577,-0.001953,-0.048707,1.023941
694,-7.324331,-4.028382,1.586938,-0.019287,-0.028443,0.979385
695,-10.193027,-4.272526,2.563516,-0.046021,-0.010010,0.926528
696,-11.779965,-7.751583,1.892119,-0.092164,0.005005,0.917617
697,-18.554971,-12.512398,1.098650,-0.057374,0.003418,0.944228
698,-21.240558,-16.052491,0.061036,-0.044923,0.023438,0.878065
699,-29.236286,-16.418708,-0.183108,-0.057618,-0.044800,0.977432
700,-31.128405,-16.723888,0.183108,0.021973,-0.019654,1.068376
701,-32.776379,-13.672084,0.000000,0.008789,-0.062013,1.029923
702,-34.363317,-12.024109,1.709010,-0.001221,-0.084962,1.013077
703,-28.870069,-10.070954,1.892119,0.007446,-0.064332,1.006363
704,-35.339895,-10.009918,2.502480,-0.022217,-0.059327,0.973281
705,-38.635843,-10.803388,2.380407,-0.011719,-0.041627,0.989395
706,-42.298009,-12.024109,1.892119,-0.053956,-0.059815,0.960586
707,-49.011978,-13.916228,2.685588,-0.008057,-0.078248,0.981704
708,-48.706798,-15.014878,2.563516,-0.009277,-0.098756,1.024063
709,-45.899138,-13.916228,1.037613,0.008423,-0.134524,1.064225
710,-46.448463,-9.338521,0.183108,-0.003052,-0.137331,1.004410
711,-45.960174,-9.155413,-0.854505,-0.019165,-0.108644,1.072160
712,-42.114900,-8.911269,-6.958114,-0.050172,-0.111818,1.025162
713,-42.481117,-9.094377,-9.826810,-0.107912,0.012818,1.236957
714,-49.195087,-9.338521,-24.292363,-0.088869,-0.039185,1.031632
715,-62.928206,-5.065995,-34.912642,0.028931,-0.068238,0.964370
716,-65.247578,1.464866,-37.537194,0.102052,-0.231571,0.965713
717,-40.588998,1.525902,-18.127718,0.095216,-0.294926,1.053239
718,-40.222782,-6.713970,-9.094377,-0.050416,0.022583,1.009659
719,-64.209964,-9.033341,-20.996414,0.028199,0.054810,0.905653
720,-99.916075,-5.798428,-26.001373,0.044800,0.076905,0.893324
721,-121.278706,-6.347753,-17.334249,0.139651,0.016480,0.854505
722,-124.574655,-3.540093,-12.146181,0.079957,0.169680,0.962051
723,-163.881895,-7.812619,-36.377508,-0.040406,0.756237,1.173602
724,-324.895094,-14.892805,-47.913329,0.024292,0.450690,1.241718
725,-540.962844,-6.958114,9.399557,-0.153079,0.400763,1.709743
726,-619.638361,-38.147555,45.471885,-0.311528,-0.043214,1.264790
727,-692.698558,-54.627298,58.350500,0.149172,-0.129519,1.288594
728,-752.025635,-75.318532,64.454108,-0.058839,-0.272587,0.875380
729,-910.902571,-119.874876,137.026017,-0.589731,-1.747951,1.999969
730,-521.492332,-98.451209,88.685435,-1.382223,-0.749767,1.999969
731,190.310521,-78.370336,-27.161059,-0.457160,0.635508,1.999969
732,312.565805,-43.640803,-30.334936,-0.834852,0.949355,1.999969
733,128.603037,-3.295949,-9.277485,-0.530037,0.741588,1.330098
734,-12.756542,-36.194400,58.594644,-0.465827,0.389532,0.239017
735,15.136950,-21.606775,62.684062,-0.221439,0.007568,0.264286
736,115.419242,-7.141222,42.847333,-0.292973,0.239139,0.159915
737,72.327764,-19.104295,52.735180,-0.142580,0.349615,0.207645
738,43.640803,-30.640116,60.059510,-0.108034,0.235477,0.689708
739,94.361791,-31.555657,52.185855,-0.001221,0.336187,0.850477
740,113.771267,-32.959487,44.007019,0.093874,0.456672,0.904067
741,115.419242,-32.715343,35.889220,0.093629,0.409186,1.194965
742,147.219043,-27.954528,23.559930,0.052857,0.345464,1.307759
743,179.751278,-24.963760,12.268254,0.034302,0.310918,1.356588
744,197.512779,-22.522316,4.333562,-0.035035,0.210208,1.438132
745,224.185550,-16.357671,-1.953155,-0.099733,0.058961,1.412375
746,249.637598,-8.484016,-5.493248,-0.168215,-0.060548,1.321798
747,263.309682,-1.953155,-4.333562,-0.214725,-0.166384,1.191180
748,270.695048,1.342794,-0.305180,-0.222171,-0.252689,1.096941
749,274.418250,-0.488289,4.150454,-0.176394,-0.278202,1.109148
750,274.662394,-4.394598,6.286717,-0.088136,-0.289921,1.210346
751,277.836271,-3.662165,4.211490,-0.002075,-0.309575,1.241108
752,275.944152,6.042573,-4.089418,0.114015,-0.407599,1.181537
753,266.056306,23.926146,-15.503166,0.177371,-0.492805,1.044450
754,250.186923,32.715343,-26.306554,0.152956,-0.498787,0.995132
755,231.754025,28.503853,-35.706111,0.135744,-0.500374,1.001968
756,217.288472,22.461280,-45.227741,0.110109,-0.461921,1.225116
757,197.695888,26.245518,-52.307927,0.068605,-0.426764,1.699733
758,190.798810,34.973678,-57.312886,0.000855,-0.413458,1.999969
759,208.499275,44.495308,-62.684062,-0.035401,-0.520882,1.999969
760,230.350195,53.040360,-64.087892,-0.112062,-0.600961,1.999969
761,236.575875,53.162432,-58.411536,-0.152346,-0.643198,1.896025
762,234.317540,46.021210,-49.073014,-0.127443,-0.678477,1.810819
763,236.942092,41.992828,-42.786297,-0.011963,-0.705577,1.725002
764,232.181277,49.317159,-42.359045,0.128542,-0.743420,1.439719
765,213.260090,59.205005,-46.936751,0.188846,-0.779431,1.225727
766,186.953536,65.735866,-52.368963,0.174319,-0.775280,1.425437
767,172.121767,69.092851,-57.923247,0.143069,-0.870985,1.495262
768,170.534829,79.774166,-64.820325,0.167117,-0.912978,1.331563
769,153.994049,91.309987,-69.459068,0.186526,-0.915908,1.320211
770,137.880522,97.535668,-69.886320,0.182376,-0.976211,1.531762
771,141.664759,96.864271,-66.895552,0.154055,-1.040421,1.640528
772,152.651255,91.737240,-59.266041,0.102541,-1.155413,1.564965
773,158.510719,86.610208,-46.204318,0.035523,-1.342916,1.293599
774,158.083467,80.201419,-29.114214,0.014038,-1.540185,0.853162
775,144.045167,68.360418,-12.146181,-0.005859,-1.699977,0.434089
776,112.916762,49.073014,6.225681,0.026856,-1.806180,0.267094
777,81.300069,28.809033,21.972992,0.085939,-1.864897,0.186526
778,24.292363,-11.596857,33.142596,0.092409,-2.000031,-1.381979
779,-77.088579,-90.394446,53.284504,0.310918,-2.000031,-0.903090
780,-136.842908,-129.213397,62.073701,0.663096,-2.000031,-0.657481
781,-215.091173,-146.364538,50.415808,0.745861,-2.000031,-0.332280
782,-125.429160,-122.255283,24.353399,0.513558,-0.066651,1.865019
783,-122.621500,-72.022583,3.723201,0.180667,1.298238,1.999969
784,-212.466621,-66.407263,18.982223,0.063355,0.693004,1.221332
785,-263.248646,-69.031815,21.606775,0.002197,-0.536995,0.768078
786,-221.072709,-48.706798,23.132677,0.056764,-0.457771,1.390646
787,-222.598611,-51.453422,29.663539,0.297856,-0.092653,1.999969
788,-166.506447,-15.869383,22.278172,-0.074708,-0.387457,1.999969
789,-93.812467,-24.048219,31.921874,-0.592905,-0.051637,1.606592
790,-128.480964,-53.223468,48.767834,-0.481086,-0.272831,1.271870
791,-81.666285,-96.620127,46.570535,0.422614,-0.038331,1.999969
792,-46.082246,-71.351186,22.522316,0.857679,0.000977,1.999969
793,-18.799115,-34.729534,10.864424,0.207156,0.068971,1.404074
794,-32.410163,-27.527276,9.033341,-0.099123,0.088991,1.194354
795,-45.471885,-22.888533,-2.380407,0.322271,-0.130617,1.300435
796,-19.958801,-6.408789,-4.638743,0.014038,0.031006,1.024796
797,-41.138323,-8.911269,-2.258335,0.042969,-0.007568,1.202899
798,-23.620966,-5.981537,-2.563516,0.003296,-0.049073,1.139422
799,-12.207218,-4.699779,-2.258335,-0.009644,0.048707,0.979019
800,-24.719615,-6.103609,0.061036,-0.000488,-0.009155,1.045182
801,-14.099336,-5.188067,-0.854505,-0.028199,-0.006836,1.022110
802,-13.794156,-5.127031,0.183108,0.052979,0.009033,1.028092
803,-13.855192,-2.746624,0.488289,0.002564,0.006714,0.991470
804,-14.160372,-2.746624,0.854505,0.022950,0.021485,1.004410
805,-15.991455,-0.915541,1.403830,0.028687,-0.017578,1.044572
806,-11.413748,0.671397,1.892119,0.008911,-0.002808,1.016983
807,-10.803388,1.281758,2.197299,0.000732,0.021729,0.974136
808,-14.831769,0.732433,2.685588,-0.010986,0.009888,0.971328
809,-16.357671,-0.366217,2.746624,-0.008789,-0.014649,1.022232
810,-14.526589,-0.183108,2.807660,0.002441,-0.011475,1.033463
811,-13.488975,0.732433,2.990768,0.011109,-0.014893,1.023941
812,-12.817578,1.342794,2.990768,-0.001221,-0.017823,1.019181
813,-11.413748,1.709010,2.685588,0.005127,-0.009888,1.015518
814,-12.512398,3.418021,1.586938,-0.020630,0.185061,1.235126
815,-7.446403,3.356985,2.685588,0.018555,-0.035279,1.040177
816,-13.672084,2.014191,3.051804,-0.007813,-0.053834,0.963394
817,-9.704738,1.953155,2.319371,-0.009033,-0.032715,1.037980
818,-8.606088,2.624552,2.136263,-0.016114,-0.019165,1.009781
819,-9.094377,2.441444,2.380407,-0.009400,-0.029053,0.990860
820,-9.033341,2.075227,2.136263,-0.008911,-0.017090,0.986465
821,-10.925460,1.342794,2.014191,-0.013428,-0.031861,0.997208
822,-10.070954,1.159686,2.014191,-0.017700,-0.021851,0.985245
823,-10.254063,0.732433,1.892119,-0.016480,-0.021485,0.985489
824,-12.024109,0.000000,2.197299,-0.035401,-0.033814,0.984268
825,-6.164645,-3.845274,1.586938,0.001465,0.099977,0.947036
826,-10.193027,-2.258335,1.586938,-0.039429,-0.026001,0.973770
827,-12.451362,-4.028382,1.525902,-0.014038,-0.055299,1.048234
828,-6.286717,-3.845274,0.671397,-0.005127,-0.048463,1.009415
829,-5.004959,-4.028382,0.366217,-0.013550,-0.037232,0.981460
830,-6.652934,-4.272526,0.671397,-0.005249,-0.038087,1.013565
831,-6.225681,-3.418021,1.342794,0.018189,-0.044678,1.021866
832,-4.943923,-0.732433,1.464866,0.038331,-0.026368,1.019303
833,-6.713970,1.464866,1.892119,0.029664,-0.043580,1.027604
834,-5.615320,4.821851,2.502480,0.021851,-0.054932,1.020035
835,-5.920500,6.652934,3.112840,0.000610,-0.036744,0.991348
836,-7.324331,6.652934,3.479057,-0.011963,-0.027222,0.972061
837,-9.826810,5.493248,3.540093,-0.033082,-0.033814,0.976333
838,-10.009918,4.089418,3.356985,-0.016602,-0.039673,0.990005
839,-9.765774,3.051804,2.319371,-0.013428,-0.034424,0.970962
840,-12.695506,2.136263,2.441444,-0.018921,-0.036011,0.966934
841,-15.808347,0.915541,1.464866,-0.065675,-0.021485,0.943374
842,-18.554971,-2.563516,0.854505,-0.008179,-0.009888,0.938247
843,-23.865110,-3.601129,0.122072,-0.046387,-0.030640,0.952163
844,-28.198672,-5.981537,0.488289,-0.009888,-0.032105,0.974014
845,-32.471199,-5.798428,-0.122072,-0.011353,-0.055543,0.987564
846,-33.997101,-6.225681,0.366217,-0.045655,-0.068605,1.001236
847,-32.532235,-6.225681,1.098650,-0.009888,-0.056153,0.975113
848,-36.072328,-4.211490,2.685588,-0.013062,-0.101320,0.994766
849,-30.701152,-3.723201,3.356985,-0.015869,-0.139651,0.948623
850,-24.231327,-3.906310,-0.427253,-0.040772,-0.054322,0.986954
851,-30.762188,-7.019150,-4.333562,-0.060548,-0.059571,1.037736
852,-42.908370,-9.338521,-15.625238,-0.071656,-0.045045,0.972549
853,-43.152514,-13.855192,-16.235599,-0.068727,-0.036988,1.045060
854,-59.510185,-6.775006,-33.813993,-0.029175,-0.138308,1.121355
855,-58.960861,-3.784237,-32.776379,0.068727,-0.311650,1.108049
856,-29.846647,-7.019150,-9.948882,0.036133,-0.167849,1.022477
857,-36.438544,-7.385367,-7.629511,0.005982,-0.027100,0.977432
858,-63.599603,-6.652934,-8.789197,-0.002441,-0.039185,0.972305
859,-79.285878,-7.263294,-13.000687,-0.032349,-0.024170,0.951675
860,-83.436332,-7.995727,-19.836728,0.057740,0.178347,0.757458
861,-113.038834,-11.169604,-16.418708,0.050538,0.219486,0.868910
862,-171.999695,-8.239872,-11.841001,0.024537,-0.062257,0.947402
863,-169.985504,-13.855192,3.906310,0.162966,0.266239,1.168719
864,-226.321813,15.686275,-52.613108,0.099245,0.780652,1.477317
865,-418.219272,13.122759,-51.758602,-0.209842,0.296513,1.191424
866,-612.924392,3.051804,17.090105,-0.064088,0.319341,1.364279
867,-692.393378,-21.423667,46.326390,0.071290,-0.390021,1.401999
868,-729.808499,-8.361944,67.261769,0.107301,-0.108278,1.044938
869,-805.065995,-6.897078,45.166705,0.480354,-1.070695,1.384665
870,-961.867704,-16.113527,171.389334,-1.062272,-0.404181,1.999969
871,-311.161975,-39.612421,-22.949569,-0.700328,-1.668849,1.999969
872,236.453803,-13.916228,-56.641489,-0.457160,0.823865,1.999969
873,248.233768,-3.845274,-47.974365,-0.570932,1.162249,1.999969
874,76.234073,6.164645,-12.756542,-0.519417,0.510018,1.550072
875,26.123445,-12.817578,40.283818,-0.361700,0.338506,0.578500
876,106.569009,0.366217,29.419394,-0.177127,0.208621,0.298833
877,132.997635,-4.821851,23.315785,-0.151247,0.389776,0.096925
878,84.779126,-17.578393,30.212863,-0.052613,0.302617,0.371710
879,97.352560,-16.296635,27.283131,-0.017090,0.264897,0.812879
880,136.537728,-12.146181,19.165332,0.042237,0.392706,0.988540
881,149.965667,-14.282444,14.648661,0.001099,0.376226,1.108537
882,174.258030,-19.531548,11.169604,-0.019287,0.317632,1.092912
883,204.531930,-22.522316,5.920500,-0.029541,0.302129,0.967178
884,214.053559,-23.071641,2.685588,-0.069093,0.220951,0.934340
885,223.453117,-19.226368,1.037613,-0.134768,0.124758,0.981949
886,236.820020,-13.794156,0.793469,-0.183352,0.044800,1.018448
887,245.670253,-9.765774,3.723201,-0.222660,-0.004028,1.065690
888,254.398413,-9.277485,8.178836,-0.229740,-0.020752,1.212665
889,265.201801,-11.108568,12.878614,-0.183841,-0.030030,1.425315
890,278.385595,-14.221408,14.831769,-0.113649,-0.075074,1.577661
891,301.152056,-13.672084,11.718929,0.018677,-0.103151,1.488914
892,311.528191,-10.437171,2.502480,0.127443,-0.226566,1.157733
893,303.776608,1.159686,-10.986496,0.263066,-0.369635,0.700450
894,272.220951,15.075914,-28.503853,0.258183,-0.401862,0.671763
895,234.378576,20.202945,-40.711070,0.195926,-0.375982,0.973526
896,218.997482,21.240558,-52.063783,0.092287,-0.331304,1.292622
897,211.367971,20.569162,-60.608835,0.010010,-0.224735,1.877592
898,199.282826,30.884260,-62.928206,-0.093385,-0.304082,1.999969
899,218.753338,43.823911,-62.500954,-0.186893,-0.432502,1.999969
900,255.374990,52.002747,-59.693294,-0.237552,-0.574716,1.999969
901,270.939193,50.782025,-52.124819,-0.246098,-0.625498,1.999969
902,276.371405,41.077287,-44.190127,-0.124147,-0.700816,1.999969
903,287.846189,40.588998,-43.640803,0.075074,-0.709239,1.917021
904,276.676585,48.035401,-48.340581,0.215091,-0.680064,1.879301
905,267.154955,52.429999,-54.688334,0.331670,-0.681041,1.874662
906,269.779507,52.185855,-64.881361,0.421027,-0.660533,1.786160
907,262.211032,50.965133,-74.830243,0.488777,-0.688853,1.666041
908,249.393454,52.857252,-83.985657,0.485725,-0.779187,1.527001
909,228.885328,49.927520,-90.089265,0.306401,-1.206806,0.405035
910,189.089799,22.339208,-86.549172,0.363287,-1.173968,1.347921
911,178.530556,52.246891,-86.366064,0.398810,-1.332296,1.400778
912,165.651942,77.271687,-100.953689,0.312627,-1.773587,1.486717
913,140.505074,88.502327,-96.925307,0.371710,-2.000031,0.784558
914,113.954376,86.549172,-91.798276,0.233890,-2.000031,-0.170169
915,77.027543,61.890593,-72.205692,0.001465,-2.000031,-0.906630
916,-6.958114,3.173877,-28.503853,-0.207401,-2.000031,-0.924086
917,-92.347601,-75.562676,21.118486,-0.155520,-2.000031,-0.373663
918,-139.894713,-140.566110,52.002747,0.093996,-1.760281,0.277592
919,-177.920195,-169.253071,58.716716,0.288823,-1.853788,0.485237
920,-209.719997,-125.001907,61.158160,0.131594,-0.777111,0.643565
921,-103.761349,-93.995575,42.420081,-0.034668,0.513069,1.811551
922,-140.688182,-74.708171,47.547112,0.079713,1.052750,1.538109
923,-257.328145,-81.605249,60.364691,0.336553,0.210697,0.582650
924,-275.516899,-68.848707,56.885634,0.498787,-0.454719,1.193133
925,-243.900206,-49.561303,49.927520,0.753918,-0.201907,1.999969
926,-183.596551,-9.338521,30.579080,0.835828,-0.028687,1.999969
927,-131.227588,22.522316,6.897078,0.389166,-0.199466,1.847440
928,-114.320592,27.588312,4.699779,-0.291142,-0.046509,1.623438
929,-123.781186,-11.291676,20.996414,-0.971939,-0.416388,1.779812
930,-66.712444,-60.425727,34.668498,-0.420417,-0.268070,0.883680
931,-66.895552,-95.521477,40.955215,0.615488,0.332647,1.882841
932,-64.698253,-72.022583,25.391012,0.900526,0.013672,1.767727
933,-34.363317,-29.785611,7.385367,-0.058717,0.034058,1.464866
934,-41.687648,-41.809720,13.061723,-0.283452,-0.020142,0.893446
935,-37.537194,-49.195087,7.019150,0.330694,0.194339,1.355123
936,-46.448463,-30.090791,2.014191,0.279789,0.013062,1.234028
937,-33.630884,-18.249790,0.671397,-0.111208,0.006104,1.011734
938,-36.438544,-21.545739,1.159686,0.106813,0.050416,1.065812
939,-38.635843,-13.122759,1.098650,0.101808,-0.018067,1.278218
940,-23.926146,-6.836042,0.549325,0.051270,-0.038575,1.125139
941,-16.906996,-3.784237,0.000000,0.086793,0.002564,1.100237
942,-15.991455,0.244144,1.342794,0.055299,-0.021363,1.072770
943,-10.254063,1.953155,1.403830,0.020874,0.013550,1.011856
944,-11.657893,2.136263,1.892119,0.040040,0.022461,1.005997
945,-12.329290,2.868696,2.014191,0.003418,0.018067,0.974258
946,-14.831769,2.868696,-1.220722,0.045533,-0.197269,0.737072
947,-15.686275,0.061036,0.366217,0.005493,0.000000,1.005264
948,-17.761501,-2.441444,1.647974,-0.022950,0.000366,0.958511
949,-18.005646,-4.577707,1.464866,0.011231,-0.008911,1.010758
950,-16.174563,-4.821851,1.647974,0.024048,-0.026123,1.045426
951,-12.390326,-3.479057,2.014191,0.028199,-0.025025,1.025650
952,-9.216449,-3.601129,0.854505,0.010376,0.062257,1.049699
953,-9.643702,-2.441444,2.258335,0.018799,0.024659,0.981460
954,-12.512398,-2.624552,2.502480,0.022095,0.009400,0.994766
955,-13.488975,-2.990768,2.197299,0.015381,-0.011597,0.965713
956,-15.136950,-3.540093,2.197299,0.019043,-0.005127,0.978653
957,-14.892805,-4.089418,1.770047,0.010376,-0.004273,1.000259
958,-16.418708,-4.577707,1.770047,0.021851,-0.021118,1.004532
959,-15.869383,-4.211490,1.709010,-0.052003,0.020264,1.150530
960,-10.742351,-4.333562,3.234913,0.060060,0.020752,0.904555
961,-14.648661,-3.418021,2.563516,0.024903,-0.034546,0.974746
962,-13.733120,-2.563516,2.197299,0.030518,-0.047608,1.032853
963,-11.841001,-1.953155,2.197299,0.016358,-0.040894,1.016495
964,-11.413748,-2.075227,2.319371,0.020020,-0.022461,1.025528
965,-11.169604,-2.868696,2.075227,0.006836,-0.017700,1.001358
966,-11.169604,-3.845274,1.709010,0.015381,-0.029175,0.975113
967,-12.207218,-5.065995,0.976577,0.021241,-0.047242,0.992813
968,-11.535821,-5.615320,0.671397,0.026978,-0.049317,1.002945
969,-10.559243,-6.042573,0.061036,0.034668,-0.052735,1.025895
970,-9.887846,-4.882887,0.427253,0.049683,-0.067750,1.023087
971,-6.897078,-3.601129,0.793469,0.042603,-0.039429,1.005509
972,-8.972305,-1.892119,-1.159686,0.011719,-0.238895,0.934829
973,-11.474784,-2.258335,0.915541,0.048585,-0.058473,0.896986
974,-20.691234,-4.150454,4.028382,0.023804,-0.005615,0.980850
975,-25.574121,-5.065995,4.943923,0.030030,-0.015259,0.949355
976,-28.442817,-5.798428,3.906310,0.011231,-0.030152,0.971450
977,-30.884260,-6.836042,3.356985,0.038819,-0.065431,1.026993
978,-29.358358,-6.469825,2.990768,0.038331,-0.063111,1.006241
979,-27.100023,-6.713970,2.136263,0.009644,-0.061769,0.981704
980,-29.419394,-8.239872,2.441444,0.031495,-0.064942,1.008072
981,-29.968719,-8.300908,1.464866,0.035523,-0.100099,1.011978
982,-24.841688,-6.530861,3.112840,0.064698,-0.087037,0.980484
983,-28.381781,-6.408789,6.713970,-0.004028,-0.091798,1.027604
984,-25.696193,-6.347753,7.263294,0.039796,-0.057008,0.955459
985,-31.738766,-6.103609,5.920500,0.023804,-0.022705,0.962905
986,-44.556344,-6.775006,4.699779,0.090944,-0.046021,1.042741
987,-45.044633,-3.356985,2.258335,0.033326,-0.072633,0.990127
988,-44.861524,-2.746624,0.000000,0.038453,-0.078981,1.026261
989,-51.392386,-1.403830,-1.647974,0.036011,-0.083742,1.011612
990,-52.246891,0.122072,-3.845274,0.010498,-0.100832,0.995621
991,-55.481804,0.427253,-9.887846,0.004761,-0.128664,0.965225
992,-59.449149,0.000000,-18.249790,0.015503,-0.101076,0.971084
993,-82.459754,10.803388,-41.077287,0.067018,-0.134768,0.981216
994,-74.708171,10.559243,-41.138323,0.124392,-0.572152,1.061173
995,-37.109941,-1.647974,-5.432212,0.133181,-0.221317,1.108049
996,-30.029755,-1.953155,-6.530861,0.089113,0.025391,0.939590
997,-59.693294,7.446403,-15.197986,0.083131,0.191775,0.889296
998,-112.489509,12.878614,-13.366903,0.161501,0.099245,0.948379
999,-130.556191,15.136950,4.943923,0.038941,0.376349,0.557748
1000,-173.342489,3.295949,-17.944610,-0.042725,0.544808,0.650278
1001,-233.646143,-24.719615,-29.541466,-0.228397,0.769909,1.384421
1002,-493.110552,-21.240558,-42.664225,0.054566,0.216312,1.356466
1003,-664.682994,-83.314260,38.086519,-0.359503,-0.153567,1.306538
1004,-726.329442,-167.910277,82.215610,-0.203861,-0.217044,1.274800
1005,-813.427939,-179.995422,100.099184,0.331182,-0.631357,1.059709
1006,-955.092699,-163.881895,181.399252,-0.127321,-2.000031,1.999969
1007,-457.709621,-102.906844,85.999847,-1.016007,-1.021988,1.999969
1008,201.419089,-33.630884,-31.616693,-0.126223,0.876234,1.999969
1009,279.667353,15.747311,-42.420081,-0.521981,1.176165,1.999969
1010,84.901198,30.151827,-26.428626,-0.494759,0.714366,1.373678
1011,-34.546426,-17.212177,45.716030,-0.441169,0.476081,0.563607
1012,-10.986496,-9.399557,52.491035,-0.151858,0.287236,0.488289
1013,106.141756,13.305867,31.738766,-0.219486,0.301884,0.448981
1014,99.488823,9.704738,32.593271,-0.017456,0.450080,0.304326
1015,61.463340,1.586938,32.288090,0.000366,0.359747,0.684703
1016,96.437018,3.051804,23.865110,0.076417,0.377447,0.946059
1017,136.049439,3.356985,11.718929,0.098146,0.463386,0.963638
1018,145.204852,-2.868696,3.418021,0.086305,0.428595,1.049332
1019,169.497215,-4.577707,-5.920500,0.029664,0.358282,1.147967
1020,197.451743,-2.319371,-14.709697,-0.019898,0.287846,1.097673
1021,211.306935,1.098650,-19.470512,-0.056886,0.208011,1.074968
1022,224.551766,5.615320,-22.278172,-0.107424,0.112673,1.080583
1023,238.284886,11.535821,-22.827497,-0.152712,0.039796,1.130022
1024,249.332418,16.113527,-20.386053,-0.186648,-0.000488,1.311055
1025,261.234455,17.395285,-15.930419,-0.213260,-0.061402,1.493919
1026,282.291905,17.883574,-10.742351,-0.163699,-0.113649,1.589502
1027,302.555886,18.860151,-7.507439,-0.066529,-0.149905,1.581933
1028,313.542382,17.883574,-7.446403,0.029419,-0.217899,1.428611
1029,321.293965,19.592584,-13.061723,0.131716,-0.358404,1.065934
1030,307.866026,30.762188,-23.376822,0.239506,-0.476814,0.815930
1031,275.272755,47.180896,-31.738766,0.259403,-0.465217,0.941665
1032,245.365072,56.580453,-39.429313,0.172000,-0.479744,1.122698
1033,237.857633,55.054551,-47.974365,0.167483,-0.448005,1.207904
1034,220.401312,52.002747,-52.368963,0.076295,-0.337163,1.579858
1035,191.531243,52.796216,-51.087205,0.000488,-0.354986,1.999969
1036,200.564584,60.914015,-49.073014,-0.082765,-0.542123,1.999969
1037,239.444572,73.548486,-48.523690,-0.089967,-0.700816,1.999969
1038,252.872511,83.131151,-44.495308,-0.084718,-0.736339,1.999969
1039,238.712139,78.919661,-35.828183,-0.015015,-0.809949,1.999969
1040,245.487144,70.313573,-31.555657,0.168704,-0.815198,1.999969
1041,248.905165,72.327764,-34.424353,0.359258,-0.793591,1.887602
1042,240.238041,77.149615,-40.039673,0.469856,-0.812024,1.695216
1043,231.143664,79.835203,-48.523690,0.493782,-0.844495,1.563867
1044,217.349508,78.187228,-54.871443,0.407721,-0.966201,1.537133
1045,204.104677,74.647135,-54.688334,0.235599,-1.153582,1.563500
1046,194.705119,64.759289,-46.631571,0.119387,-1.412009,1.600000
1047,190.371557,54.505226,-34.302281,0.201663,-1.749538,1.395285
1048,180.178531,54.749371,-27.466239,0.455085,-2.000031,1.011978
1049,151.918822,68.238346,-29.907683,0.581186,-2.000031,0.508553
1050,126.710918,89.600977,-34.119173,0.501961,-2.000031,-0.144533
1051,91.920348,97.840848,-33.691920,0.224735,-2.000031,-0.598886
1052,21.850919,66.773480,-10.437171,-0.057862,-2.000031,-0.542123
1053,-40.161746,8.972305,24.048219,-0.231449,-1.661036,0.151003
1054,-104.859998,-82.215610,46.509499,-0.188113,-1.881010,-0.868544
1055,-197.756924,-176.699474,78.126192,0.480354,-1.390890,0.363897
1056,-227.847715,-159.121080,58.350500,0.856947,-1.281636,0.875257
1057,-98.878462,-76.661326,24.231327,0.158083,0.243778,1.798489
1058,-117.250324,-72.083619,24.231327,0.074830,0.939345,1.411032
1059,-224.429694,-85.938811,39.429313,0.410773,0.511116,0.531624
1060,-281.864652,-66.407263,36.377508,0.339483,-0.463752,0.654551
1061,-260.135805,-70.069429,36.255436,0.361944,-0.213870,1.999969
1062,-238.773175,-43.762875,32.349126,0.365240,-0.416510,1.999969
1063,-128.114748,-9.277485,23.559930,-0.320806,-0.554818,1.999969
1064,-88.563363,-52.185855,33.875029,-0.473030,-0.224125,1.999969
1065,-58.045319,-72.693980,37.964446,0.044068,0.039673,1.136614
1066,-61.219196,-80.201419,25.696193,1.127092,0.308598,1.968414
1067,-65.491722,-24.170291,6.347753,0.842298,-0.180056,1.784329
1068,-29.846647,3.723201,5.127031,-0.421637,-0.033936,1.281880
1069,-33.325704,-21.118486,9.155413,-0.206668,0.086061,1.062394
1070,-25.757229,-24.292363,0.854505,0.380499,0.132448,1.179583
1071,-28.747997,-7.629511,0.000000,-0.006958,0.010010,1.102800
1072,-23.376822,-9.460594,1.159686,-0.062013,0.033082,1.120867
1073,-17.334249,-9.277485,-1.281758,0.099489,0.060060,1.029801
1074,-18.188754,-2.502480,-1.586938,-0.026368,0.047730,1.007706
1075,-22.522316,-2.685588,0.671397,0.011231,-0.012207,1.041520
1076,-15.075914,-2.441444,-0.366217,0.026368,0.026368,1.052384
1077,-16.968032,-1.709010,1.831083,0.022339,0.003174,1.037980
1078,-11.047532,0.671397,0.976577,0.005493,-0.002564,0.994522
1079,-12.878614,-0.488289,2.685588,0.030640,0.012818,1.036881
1080,-9.033341,1.098650,2.014191,-0.025025,0.040528,1.029068
1081,-10.620279,0.183108,0.915541,-0.005982,-0.016358,0.836683
1082,-15.381094,-3.967346,2.502480,0.017090,0.045045,0.965835
1083,-22.339208,-5.798428,2.990768,-0.021363,-0.007080,0.908095
1084,-20.996414,-8.056764,2.136263,0.008179,0.002319,1.008560
1085,-20.874342,-5.859464,-0.488289,0.089235,-0.104494,0.770520
1086,-18.799115,-8.178836,2.441444,0.021363,0.023682,1.086687
1087,-21.179522,-8.972305,3.051804,-0.002197,-0.015259,0.976822
1088,-16.662852,-9.399557,1.709010,0.011841,-0.007202,1.021744
1089,-15.991455,-8.789197,1.403830,0.026368,0.003296,1.021744
1090,-15.625238,-5.432212,-1.159686,0.172732,-0.146242,0.624155
1091,-10.559243,-6.591897,1.342794,-0.000610,0.031373,1.112688
1092,-15.808347,-7.751583,2.197299,0.000855,0.008545,0.977920
1093,-14.831769,-8.667124,2.258335,0.018067,-0.008179,0.985977
1094,-13.305867,-9.094377,1.342794,-0.006226,0.002686,0.989761
1095,-14.282444,-10.559243,1.342794,0.000122,-0.015869,0.969619
1096,-14.038300,-11.596857,1.342794,0.018067,-0.025269,0.984024
1097,-12.451362,-11.413748,0.793469,0.015747,-0.027466,1.018082
1098,-11.596857,-9.216449,-0.915541,0.162844,-0.144900,0.760754
1099,-6.286717,-8.484016,0.000000,0.025635,-0.024659,1.078630
1100,-7.080186,-9.033341,1.342794,0.021363,-0.041749,0.995010
1101,-6.591897,-8.911269,1.159686,0.032837,-0.028443,0.964858
1102,-9.765774,-9.765774,0.671397,0.013916,0.021851,0.946181
1103,-15.136950,-11.596857,0.671397,0.024292,0.036500,0.969131
1104,-19.287404,-12.573434,0.305180,0.030640,0.029908,0.929824
1105,-25.329976,-13.488975,0.549325,0.062135,-0.032227,0.924208
1106,-32.532235,-13.794156,1.892119,0.034058,-0.024170,1.018448
1107,-36.804761,-12.817578,0.915541,0.066041,-0.095827,1.026505
1108,-24.841688,-12.268254,4.150454,0.032715,-0.093629,1.100237
1109,-18.677043,-9.521630,4.455634,0.077028,-0.054688,1.000992
1110,-23.682002,-7.263294,5.371176,0.069215,-0.057862,1.011490
1111,-22.827497,-6.530861,6.042573,0.052369,-0.048829,0.990494
1112,-24.475471,-6.836042,6.042573,0.036255,-0.059205,0.973648
1113,-25.757229,-7.812619,5.676356,0.059449,-0.050782,1.033463
1114,-26.611734,-6.530861,4.699779,0.033936,-0.045289,1.001358
1115,-24.841688,-7.141222,3.479057,0.044312,-0.051392,0.974990
1116,-25.940337,-6.530861,2.685588,0.082765,0.005005,0.995377
1117,-35.461967,-3.479057,2.807660,0.037476,-0.043824,0.989639
1118,-42.542153,-3.479057,3.906310,0.068849,-0.082277,1.011368
1119,-38.025483,-1.220722,5.432212,0.067872,-0.080323,0.993545
1120,-43.884947,-0.061036,8.300908,0.077638,-0.097047,1.003433
1121,-46.326390,1.403830,10.864424,0.051514,-0.146365,1.029435
1122,-39.734493,2.136263,11.047532,0.023926,-0.127810,1.041398
1123,-34.302281,3.173877,7.141222,0.003540,-0.107912,0.994156
1124,-39.551385,7.080186,-4.577707,0.004395,-0.104250,0.975967
1125,-42.359045,3.356985,-18.066682,-0.019409,-0.071412,0.974868
1126,-33.752956,1.159686,-29.175250,0.001465,-0.101320,1.055924
1127,-26.794842,2.868696,-30.701152,0.132815,-0.183352,0.940322
1128,-12.878614,-0.976577,-20.019837,0.167971,-0.160891,1.136736
1129,-17.029068,1.403830,-9.277485,0.131716,-0.133181,1.102068
1130,-30.762188,4.028382,0.488289,0.036744,0.073732,1.002213
1131,-69.703212,9.460594,-9.277485,0.076051,0.209110,0.958389
1132,-129.762722,20.202945,-21.240558,0.192386,0.209232,0.917617
1133,-168.459602,36.072328,-15.808347,0.036866,0.259525,0.914199
1134,-218.448157,14.343481,-26.184482,-0.271489,0.200320,0.047242
1135,-215.579461,-28.137636,15.014878,0.230350,0.929580,0.650401
1136,-440.924697,-34.851606,-23.987182,0.143313,0.503182,1.292622
1137,-606.820783,-104.432746,16.418708,-0.711803,-0.385382,1.672511
1138,-674.021515,-192.446784,69.520104,-0.266728,-0.089235,1.292012
1139,-759.777218,-229.617762,101.197833,0.004028,-0.297734,1.129900
1140,-874.891280,-198.489357,159.731441,1.406638,-2.000031,1.999969
1141,-739.635309,-82.887007,207.766842,-0.424933,0.391241,1.999969
1142,32.471199,-8.850233,-51.209277,0.141604,-0.149050,1.999969
1143,312.016480,47.241932,-79.530022,-0.107179,0.927871,1.999969
1144,159.060044,63.538567,-95.765621,-0.220462,0.646983,1.383566
1145,4.577707,8.239872,-4.028382,-0.660655,0.587778,0.622690
1146,-57.434958,-27.954528,27.954528,-0.429206,0.463874,0.745373
1147,44.495308,2.136263,17.334249,-0.416510,0.122438,0.642344
1148,110.292210,14.404517,17.334249,-0.222904,0.436286,0.530648
1149,67.383841,10.742351,26.062409,-0.107179,0.445930,0.664561
1150,69.153887,9.704738,27.161059,-0.030152,0.338262,0.953140
1151,122.377356,19.165332,18.677043,0.042969,0.403204,0.986221
1152,135.133898,24.292363,13.305867,0.098756,0.448981,0.927260
1153,138.979171,28.076600,8.728161,0.097292,0.352789,1.055192
1154,165.957122,31.738766,3.540093,0.066651,0.300786,1.154192
1155,188.906691,30.273899,0.671397,0.053223,0.269657,1.268818
1156,206.729229,27.100023,-0.122072,0.015137,0.174441,1.449485
1157,235.355154,28.747997,-0.976577,-0.005249,0.051759,1.458030
1158,262.882429,34.729534,-1.159686,0.000122,-0.053346,1.289815
1159,274.235142,37.842374,0.793469,0.019287,-0.128664,1.140642
1160,278.751812,34.546426,2.685588,0.070069,-0.166262,1.080461
1161,281.254292,26.855879,2.136263,0.139406,-0.173465,1.140764
1162,282.413977,19.958801,-1.953155,0.202396,-0.200565,1.162737
1163,281.376364,18.432898,-10.803388,0.268681,-0.265019,1.170794
1164,270.878157,33.325704,-23.254749,0.354131,-0.395636,1.106706
1165,259.464408,52.246891,-33.630884,0.353277,-0.446540,1.060807
1166,244.510567,51.697566,-42.359045,0.341314,-0.393194,1.139300
1167,233.340963,46.753643,-49.866484,0.324224,-0.371954,1.284077
1168,221.011673,39.246204,-55.848020,0.263066,-0.359747,1.643824
1169,216.556039,40.588998,-60.852979,0.200198,-0.376349,1.952422
1170,223.086900,42.664225,-65.247578,0.089235,-0.434211,1.999969
1171,231.876097,46.265354,-66.224155,-0.021241,-0.542855,1.999969
1172,248.538949,52.124819,-63.599603,-0.077272,-0.684337,1.999969
1173,257.572290,55.970092,-60.669871,-0.066651,-0.722057,1.848173
1174,244.205386,57.618067,-55.298695,-0.053712,-0.719738,1.884306
1175,237.918669,59.510185,-50.659953,0.003296,-0.730602,1.999969
1176,246.585794,66.285191,-48.828870,0.114870,-0.719005,1.937285
1177,243.167773,74.464027,-48.828870,0.160525,-0.773693,1.709377
1178,230.655375,81.910430,-47.791257,0.158328,-0.872572,1.479393
1179,212.954910,87.342641,-45.227741,0.109743,-1.001968,1.337667
1180,192.507820,92.469673,-39.612421,0.067750,-1.171893,1.219623
1181,167.299916,91.676204,-30.029755,0.045655,-1.362936,1.336446
1182,143.984131,81.971466,-13.733120,0.222782,-1.654688,1.507225
1183,128.114748,67.689021,-9.643702,0.574594,-2.000031,1.498436
1184,122.011139,69.947356,-23.620966,0.874281,-2.000031,1.208515
1185,129.945830,95.338369,-42.298009,0.791638,-2.000031,0.599741
1186,121.766995,119.142443,-55.420768,0.475227,-2.000031,-0.255741
1187,62.134737,95.460441,-42.969406,0.091920,-2.000031,-0.709606
1188,-40.100710,3.967346,-15.991455,-0.481941,-2.000031,-2.000031
1189,-169.741360,-162.111849,47.241932,-0.155886,-2.000031,-0.839368
1190,-216.067750,-224.551766,61.524376,0.574838,-1.873808,0.184817
1191,-137.331197,-139.345388,40.466926,0.083375,0.004028,1.693385
1192,-120.485237,-76.356146,21.484703,-0.573739,0.844495,1.884916
1193,-187.869078,-83.741512,70.679789,-0.309697,0.675914,0.819104
1194,-296.635386,-112.428473,84.962234,0.482673,-0.275273,0.817884
1195,-274.967575,-67.505913,72.999161,0.791882,-0.458137,1.307515
1196,-238.773175,-68.665599,51.575494,1.375998,-0.011475,1.999969
1197,-231.998169,-20.263981,28.870069,1.190204,-0.211795,1.999969
1198,-148.744945,-28.137636,9.948882,-0.467659,-0.183841,1.999969
1199,-109.681849,-42.725261,20.447089,-0.983169,-0.382574,1.999969
1200,-48.950942,-97.779812,25.207904,0.416266,-0.121584,1.999969
1201,-26.794842,-52.063783,8.728161,1.230365,0.176272,1.815213
1202,-45.410849,5.981537,4.333562,-0.030884,0.017334,1.138079
1203,-49.683375,-5.676356,10.498207,-0.421515,-0.121462,1.167498
1204,-19.165332,-22.888533,4.211490,0.225956,0.025757,1.201434
1205,-20.630198,-9.155413,-0.854505,0.210697,0.085573,1.163104
1206,-28.625925,-2.563516,1.037613,-0.120729,-0.074098,1.137346
1207,-4.577707,-7.507439,-1.098650,0.006348,0.018799,1.040665
1208,-11.718929,-4.943923,-0.244144,0.057618,0.030518,1.043229
1209,-11.779965,-2.502480,1.159686,-0.044068,-0.026856,1.059586
1210,-3.601129,-2.807660,1.037613,0.038453,0.030884,1.014176
1211,-8.056764,0.000000,2.014191,0.016358,0.013794,1.008560
1212,-7.995727,1.098650,3.601129,0.011719,0.009277,0.992203
1213,-7.385367,1.831083,4.211490,0.031739,0.015381,0.990738
1214,-9.338521,2.319371,5.371176,0.003296,0.008667,0.998795
1215,-9.277485,1.647974,5.493248,0.000977,0.017212,0.980728
1216,-10.620279,0.000000,5.249104,-0.011841,0.032105,0.974502
1217,-12.573434,-1.709010,4.577707,-0.037842,0.026246,0.934463
1218,-16.174563,-5.737392,4.028382,-0.050050,0.027588,0.942641
1219,-19.287404,-8.667124,3.112840,-0.032105,-0.003052,0.951797
1220,-19.714656,-11.535821,2.929732,-0.033204,0.060182,0.953506
1221,-23.376822,-12.573434,2.807660,-0.013306,0.004028,0.999161
1222,-24.780652,-12.695506,3.356985,-0.000122,-0.012573,1.022721
1223,-20.569162,-11.841001,2.014191,0.019287,0.013794,1.011246
1224,-23.498894,-11.413748,1.892119,0.012329,-0.005005,1.009171
1225,-24.109255,-10.864424,1.892119,0.010498,-0.010864,1.006119
1226,-24.353399,-10.681315,1.770047,0.010498,-0.042237,0.976699
1227,-25.146868,-10.742351,2.136263,0.001831,-0.025147,1.003922
1228,-24.048219,-10.986496,2.380407,-0.000488,-0.021363,0.982437
1229,-26.794842,-11.718929,2.258335,0.010742,-0.016358,0.978531
1230,-29.297322,-11.169604,1.647974,0.022583,-0.040772,1.004166
1231,-26.794842,-10.437171,1.342794,0.044678,-0.032837,0.980484
1232,-28.015564,-9.338521,1.098650,0.034791,-0.056397,1.019181
1233,-26.794842,-7.873655,0.549325,0.021973,-0.064454,1.044083
1234,-24.475471,-7.202258,0.549325,0.025025,-0.076539,1.061662
1235,-19.592584,-5.737392,0.183108,0.034058,-0.081544,1.048112
1236,-15.564202,-5.004959,0.366217,0.008545,-0.063844,1.003922
1237,-15.503166,-5.065995,0.366217,0.013672,-0.052735,0.981827
1238,-16.296635,-5.615320,-0.244144,0.019776,-0.059205,0.981216
1239,-16.968032,-6.286717,-0.427253,0.021851,-0.057252,0.981827
1240,-20.569162,-6.042573,0.183108,0.035889,-0.068482,0.995377
1241,-20.752270,-6.225681,0.549325,0.040894,-0.081910,1.026017
1242,-17.822538,-4.760815,1.098650,0.049317,-0.067384,0.999405
1243,-20.386053,-4.150454,1.342794,0.038453,-0.109743,1.004044
1244,-23.620966,-1.098650,1.342794,0.119142,-0.033936,0.900282
1245,-23.987182,-1.586938,1.403830,0.055787,-0.064088,1.092546
1246,-19.348440,-1.037613,0.915541,0.038209,-0.100832,1.012345
1247,-19.714656,-0.671397,0.244144,0.018799,-0.085695,0.967178
1248,-22.827497,-1.220722,-0.183108,-0.003662,-0.067262,0.973648
1249,-24.658579,-1.403830,2.319371,0.040650,-0.060670,0.984146
1250,-34.363317,0.000000,3.906310,0.038941,-0.103273,0.983780
1251,-34.058137,0.610361,6.836042,0.051148,-0.116213,0.992569
1252,-37.964446,2.685588,9.521630,0.041138,-0.095949,0.981460
1253,-45.349813,2.868696,11.169604,0.026612,-0.112673,1.015640
1254,-45.044633,3.173877,10.376135,-0.002075,-0.142824,1.033585
1255,-43.884947,2.380407,8.056764,0.018799,-0.147829,1.014420
1256,-32.471199,2.868696,3.540093,-0.012329,-0.126345,1.037613
1257,-25.879301,-0.488289,-0.915541,-0.075685,-0.213626,1.105852
1258,-26.001373,-1.403830,-9.582666,-0.031983,-0.142458,0.996231
1259,-30.029755,-4.089418,-16.174563,-0.021118,-0.076905,1.112932
1260,-44.617380,2.197299,-38.208591,0.006104,-0.175906,1.050309
1261,-40.650034,8.850233,-36.133364,0.171633,-0.337041,0.903212
1262,-9.643702,6.042573,-18.982223,0.156741,-0.353033,1.115618
1263,7.934691,0.000000,-2.685588,0.048341,-0.030274,0.948867
1264,-31.921874,2.807660,-14.648661,-0.028931,0.159060,0.945693
1265,-90.638590,6.164645,-27.588312,0.136477,0.122316,0.943008
1266,-124.391547,16.601816,-15.869383,0.076417,0.149660,0.811048
1267,-147.768368,16.357671,-27.832456,0.004028,0.375250,0.495735
1268,-149.904631,-25.818265,-19.531548,-0.063966,0.669566,1.246235
1269,-317.692836,-35.889220,-21.057450,0.065431,0.777600,0.924453
1270,-552.376593,-40.161746,8.056764,-0.357061,0.034668,1.335348
1271,-654.673075,-107.423514,44.800488,-0.084596,-0.260746,1.209491
1272,-671.213855,-115.358206,48.462654,0.285771,-0.408576,1.305074
1273,-698.741131,-91.676204,26.428626,0.104738,-0.233524,0.848646
1274,-741.222248,-86.060884,24.414435,0.196658,-0.409308,0.968154
1275,-931.532769,-103.761349,72.144656,0.017334,-2.000031,1.999969
1276,-530.037385,-35.828183,27.588312,-0.845228,-0.608164,1.999969
1277,131.715877,-24.841688,-90.638590,-0.189944,0.827161,1.999969
1278,281.681544,6.469825,-86.671244,-0.529305,1.208392,1.999969
1279,176.882582,-24.109255,-74.647135,-0.625376,0.527596,1.999969
1280,119.386587,-38.330663,-14.160372,-0.659068,0.360967,1.042252
1281,169.924468,-30.090791,-8.056764,-0.543221,0.026123,0.471931
1282,204.776074,-12.268254,0.793469,-0.517342,0.132937,-0.015869
1283,160.219730,-6.042573,15.991455,-0.508797,0.079713,-0.079225
1284,123.964294,-5.004959,31.128405,-0.540536,-0.035645,0.221073
1285,136.964981,-2.197299,41.931792,-0.480110,0.000366,0.513558
1286,143.678950,-3.418021,52.002747,-0.406867,0.102052,0.804334
1287,146.364538,-5.737392,59.937438,-0.303227,0.127077,1.145647
1288,171.084154,-0.732433,62.317845,-0.202274,0.150271,1.384176
1289,197.817960,6.103609,62.500954,-0.143313,0.192752,1.577539
1290,218.326085,9.521630,61.280232,-0.046021,0.116213,1.667628
1291,250.858320,14.526589,57.495995,0.008789,0.093263,1.709743
1292,277.347982,19.592584,48.401617,0.144411,-0.039796,1.628199
1293,301.823453,27.100023,38.574807,0.230838,-0.134157,1.569238
1294,321.416037,31.677729,26.916915,0.310674,-0.210697,1.422385
1295,330.449378,31.799802,12.756542,0.441413,-0.295659,1.249409
1296,327.519646,28.992142,-5.737392,0.557992,-0.373419,1.186908
1297,323.735409,27.649348,-28.931106,0.545418,-0.437629,1.096086
1298,306.462196,26.245518,-50.598917,0.514656,-0.607065,0.975967
1299,283.695735,35.889220,-67.994202,0.486946,-0.745495,0.965591
1300,255.191882,40.833143,-80.506600,0.273320,-0.697154,1.060075
1301,231.570916,27.222095,-89.112688,0.189334,-0.672496,1.301778
1302,229.617762,25.818265,-98.756390,0.068116,-0.596567,1.525048
1303,208.682383,36.560616,-102.540627,-0.087526,-0.597177,1.849516
1304,197.512779,55.481804,-101.197833,-0.266361,-0.699840,1.999969
1305,207.095445,71.412222,-93.507286,-0.391608,-0.796277,1.999969
1306,231.448844,78.858625,-78.980697,-0.437751,-0.846326,1.999969
1307,256.046387,78.431373,-62.928206,-0.345953,-0.835096,1.999969
1308,263.370718,80.994888,-48.462654,-0.190555,-0.808240,1.840360
1309,256.107424,89.723049,-38.086519,0.060426,-0.770031,1.657130
1310,245.304036,99.794003,-33.997101,0.257694,-0.733410,1.566186
1311,232.242313,104.249638,-34.546426,0.404303,-0.777722,1.509789
1312,222.232395,105.043107,-37.659266,0.497810,-0.865126,1.393210
1313,208.682383,103.212024,-42.603189,0.543709,-0.959121,1.306416
1314,189.456016,101.686122,-47.119860,0.469978,-1.164691,1.246845
1315,171.511406,102.662699,-48.340581,0.361212,-1.449851,1.176776
1316,145.448997,98.756390,-43.762875,0.289799,-1.833524,1.251728
1317,122.072175,90.455482,-34.241245,0.303105,-2.000031,1.250263
1318,117.921721,86.366064,-27.710384,0.279911,-2.000031,0.969863
1319,126.710918,86.610208,-17.944610,0.372686,-2.000031,0.046998
1320,97.047379,69.336996,-6.530861,-0.028931,-2.000031,-2.000031
1321,-46.448463,-69.520104,49.378195,0.156497,-2.000031,-2.000031
1322,-202.517739,-192.996109,95.704585,0.668956,-2.000031,-1.033829
1323,-239.505608,-227.237354,80.994888,1.211078,-1.519310,0.494514
1324,-107.362478,-133.669032,39.612421,0.458381,0.394903,1.999969
1325,-117.677577,-68.177310,33.569848,-0.143801,1.320821,1.999969
1326,-221.805142,-98.573281,58.228428,0.107057,0.552987,0.589853
1327,-287.602045,-91.248951,60.914015,0.298344,-0.584604,0.648569
1328,-253.482872,-73.670558,60.914015,0.604379,-0.412116,1.690578
1329,-236.758984,-68.848707,52.185855,1.059220,-0.012696,1.999969
1330,-178.347448,-21.301595,25.879301,0.577523,-0.478401,1.999969
1331,-72.144656,-33.264668,13.733120,-0.265141,-0.011109,1.999969
1332,-78.187228,-40.466926,21.728847,-0.755505,-0.086183,1.180316
1333,-86.915389,-89.478904,30.762188,0.459846,0.065431,1.992096
1334,-63.843748,-53.589685,8.484016,1.207660,-0.074342,1.969879
1335,-33.508812,-3.234913,-1.525902,-0.072633,0.029297,1.365743
1336,-51.270314,-17.517357,8.300908,-0.453742,-0.065797,1.075090
1337,-28.625925,-36.560616,2.380407,0.250126,0.062501,1.165179
1338,-31.799802,-22.522316,-2.197299,0.194705,0.107301,1.223651
1339,-37.354086,-13.977264,0.793469,-0.007813,-0.053101,1.118425
1340,-15.869383,-14.892805,-2.075227,0.020386,0.001099,1.074723
1341,-18.799115,-13.550011,-1.281758,0.057008,0.007568,1.020279
1342,-20.141909,-11.535821,1.403830,0.032471,-0.018433,1.062638
1343,-11.291676,-12.024109,1.586938,0.029175,-0.030762,1.008316
1344,-13.916228,-10.254063,1.709010,0.096193,-0.021729,0.932387
1345,-16.723888,-7.812619,3.234913,0.077882,0.014649,1.047501
1346,-14.038300,-6.042573,3.234913,0.030884,0.009522,1.006729
1347,-14.404517,-5.493248,3.234913,0.039063,0.013916,1.001968
1348,-14.465553,-5.065995,2.441444,0.027955,0.011109,0.968887
1349,-16.601816,-6.286717,2.563516,0.025025,0.008423,0.988052
1350,-16.662852,-6.225681,1.770047,-0.042725,0.146853,1.248798
1351,-17.517357,-6.652934,3.906310,0.026368,0.013672,0.991592
1352,-17.334249,-6.652934,2.807660,0.027588,-0.021607,1.027359
1353,-14.343481,-5.127031,2.075227,0.033448,-0.003784,1.023453
1354,-13.488975,-4.577707,2.136263,0.020996,-0.003052,1.046036
1355,-12.085145,-4.943923,2.502480,0.036133,-0.004150,1.001480
1356,-11.413748,-4.089418,1.342794,0.021607,-0.019409,0.966079
1357,-16.296635,-4.211490,2.014191,0.048096,-0.023682,1.014176
1358,-13.855192,-3.112840,1.770047,0.025635,-0.029541,1.025162
1359,-11.047532,-2.868696,1.342794,0.021241,-0.021241,1.004654
1360,-12.329290,-2.990768,1.159686,0.031373,-0.011353,0.997208
1361,-14.038300,-2.441444,0.366217,0.001709,0.022705,1.101946
1362,-9.704738,-2.380407,0.976577,0.045899,-0.069459,1.017716
1363,-11.902037,-2.502480,0.915541,0.030518,-0.037964,0.979263
1364,-12.695506,-3.295949,1.220722,0.031128,-0.014649,1.001114
1365,-12.573434,-2.868696,0.427253,0.013916,-0.037476,0.990738
1366,-13.244831,-3.418021,0.793469,0.045533,-0.062501,0.995499
1367,-10.070954,-2.319371,0.854505,0.036866,-0.041627,0.986465
1368,-13.977264,-3.234913,1.037613,0.011963,-0.021485,1.006851
1369,-10.620279,-3.173877,0.793469,0.042359,-0.029786,0.989639
1370,-15.442130,-4.272526,0.366217,0.028077,-0.051148,0.979995
1371,-14.709697,-4.394598,0.305180,0.052979,-0.054444,0.970474
1372,-18.371862,-4.333562,1.159686,0.057374,-0.046387,1.003311
1373,-19.775692,-3.234913,1.831083,0.064210,-0.087160,1.035660
1374,-13.488975,-1.159686,3.051804,0.070069,-0.074830,1.029679
1375,-12.390326,0.732433,3.601129,0.044556,-0.038453,1.000748
1376,-14.892805,0.610361,4.028382,0.028931,-0.039307,0.981216
1377,-16.723888,0.000000,3.601129,0.013062,-0.021607,0.935317
1378,-24.353399,-2.380407,3.479057,0.029664,-0.017090,0.946304
1379,-28.320745,-4.455634,3.479057,0.042359,-0.015381,1.014908
1380,-28.992142,-5.432212,1.892119,0.032471,-0.048707,0.957656
1381,-31.189441,-6.408789,0.671397,0.065675,-0.045533,1.106950
1382,-31.860838,-2.136263,-0.244144,0.005493,-0.139162,1.206073
1383,-28.931106,-2.441444,-0.305180,0.018189,-0.113283,1.043595
1384,-24.841688,-1.525902,0.000000,0.019165,-0.090700,1.006607
1385,-29.480430,0.244144,3.662165,0.096681,-0.090822,1.032731
1386,-38.025483,3.051804,7.507439,0.032715,-0.128176,1.047868
1387,-27.832456,3.418021,8.728161,0.046021,-0.117678,0.998550
1388,-28.503853,4.394598,8.056764,0.042237,-0.059693,0.997818
1389,-38.269627,3.662165,6.836042,0.011475,-0.075685,0.972305
1390,-39.185168,2.075227,4.150454,0.003540,-0.089357,0.986343
1391,-37.048905,0.488289,-0.244144,-0.000732,-0.065553,0.979751
1392,-40.894179,-1.159686,-6.103609,-0.018311,-0.077516,0.966323
1393,-50.598917,1.342794,-14.709697,-0.012940,-0.106325,1.008316
1394,-56.641489,-1.037613,-24.963760,-0.036866,-0.192142,1.229999
1395,-48.462654,1.709010,-31.982910,0.020630,-0.191287,1.043107
1396,-34.363317,-2.685588,-29.541466,0.135378,-0.260624,1.017716
1397,-21.606775,-1.953155,-15.747311,0.123781,-0.307378,1.113542
1398,-23.193713,2.746624,-4.455634,0.104372,0.013184,1.023331
1399,-57.984283,13.244831,-13.366903,0.106447,0.198978,0.953140
1400,-112.855726,25.391012,-26.367590,0.089967,0.218753,0.941299
1401,-153.505760,27.283131,-26.672770,-0.004273,0.317266,0.726452
1402,-166.567483,-6.775006,-17.944610,-0.254643,0.160891,0.749889
1403,-208.377203,-29.724575,-8.239872,-0.147951,0.707042,1.298238
1404,-419.317922,-28.931106,-56.458381,0.047120,0.443000,1.729763
1405,-564.339666,-100.465400,-4.150454,-0.859388,-0.400885,1.422263
1406,-652.475776,-184.390021,40.588998,-0.230228,-0.382330,1.197406
1407,-732.310979,-196.108949,83.131151,0.201663,-0.166873,0.899794
1408,-786.877241,-184.939345,92.164492,0.280278,-0.495735,0.806043
1409,-933.302815,-194.460975,143.068589,0.580575,-2.000031,1.999969
1410,-675.364309,-119.386587,139.528496,-0.842054,-0.232670,1.999969
1411,40.344854,-100.221256,-39.673457,0.201785,0.451423,1.999969
1412,224.307622,-31.189441,-57.984283,-0.048829,1.269795,1.999969
1413,77.515831,15.014878,-77.454795,-0.306645,0.901137,1.999969
1414,16.723888,-2.441444,-1.770047,-0.597910,0.645151,1.999969
1415,100.709545,24.414435,-2.258335,-0.498543,0.133791,1.576196
1416,229.190509,52.918288,0.549325,-0.574350,0.124392,0.775158
1417,211.001755,50.110628,22.461280,-0.398688,0.126955,0.302983
1418,164.126040,35.400931,44.068055,-0.389410,-0.071290,0.396246
1419,182.436866,23.254749,58.289464,-0.250126,-0.171389,0.513313
1420,211.306935,12.268254,64.393072,-0.083131,-0.050904,0.480354
1421,202.578775,-3.234913,68.543526,0.085084,0.031373,0.608164
1422,203.372244,-11.413748,63.416495,0.292851,0.056153,0.776989
1423,221.255818,-5.554284,45.593957,0.404181,0.122683,0.834485
1424,222.537575,3.662165,25.635157,0.402838,0.113405,0.881971
1425,221.988251,8.850233,9.155413,0.332769,0.057008,0.967056
1426,231.998169,6.164645,-3.295949,0.279789,-0.011719,1.048966
1427,239.200427,-0.549325,-13.855192,0.225467,-0.022705,1.272114
1428,251.895933,-6.164645,-21.545739,0.243046,-0.043336,1.501122
1429,267.765316,-2.929732,-30.762188,0.233402,-0.112306,1.670558
1430,283.146410,6.591897,-40.650034,0.286259,-0.234867,1.722194
1431,291.752499,18.432898,-53.040360,0.259770,-0.406867,1.773953
1432,304.936294,37.109941,-60.669871,0.079347,-0.565438,1.637110
1433,313.054093,39.917601,-60.425727,0.015625,-0.611337,1.492088
1434,309.086748,40.100710,-56.397345,-0.049073,-0.667369,1.324727
1435,298.710613,36.316472,-50.720989,-0.049195,-0.695323,1.257221
1436,284.733349,36.682689,-46.631571,-0.047852,-0.697398,1.184100
1437,266.422522,37.048905,-44.068055,-0.014893,-0.636484,1.199115
1438,244.815747,38.513771,-43.274586,0.016358,-0.565316,1.336202
1439,225.101091,39.551385,-43.884947,0.082887,-0.486213,1.644190
1440,212.893874,40.039673,-45.593957,0.159182,-0.432258,1.999969
1441,215.274281,41.321431,-48.645762,0.232059,-0.438239,1.999969
1442,239.383536,49.134051,-55.909056,0.286870,-0.520760,1.999969
1443,264.225223,61.707485,-62.684062,0.302861,-0.591073,1.999969
1444,272.159915,72.693980,-67.689021,0.269169,-0.710582,1.999969
1445,268.131533,78.919661,-68.482490,0.240116,-0.854383,1.738796
1446,255.985351,81.422141,-67.383841,0.237552,-0.942763,1.543359
1447,239.017319,82.459754,-66.407263,0.282841,-1.061906,1.455344
1448,218.997482,88.929580,-66.529335,0.360723,-1.228290,1.355856
1449,196.841382,102.784772,-71.168078,0.400763,-1.536156,1.237324
1450,167.177844,122.377356,-73.182269,0.475105,-1.905425,1.220722
1451,138.124666,147.463188,-73.121233,0.591318,-2.000031,1.135271
1452,116.700999,175.906004,-77.821012,0.480354,-2.000031,0.839002
1453,122.194247,184.878309,-69.031815,0.254765,-2.000031,0.034058
1454,101.075761,145.998322,-40.100710,0.069703,-2.000031,-0.850355
1455,28.870069,57.068742,0.915541,-0.077760,-2.000031,-1.156634
1456,-43.396658,-43.335622,39.612421,-0.045655,-1.690211,-0.559091
1457,-86.854353,-102.540627,61.890593,-0.124636,-1.346578,-0.139773
1458,-203.555352,-168.032349,49.561303,0.559457,-1.313619,0.044190
1459,-206.118868,-163.210498,48.767834,0.075685,-0.205570,1.571191
1460,-120.241093,-101.197833,36.316472,-0.292241,0.662730,1.999969
1461,-130.434119,-62.561990,43.701839,-0.563363,0.797864,1.123430
1462,-243.839170,-88.624399,73.975738,-0.062013,0.099367,0.379644
1463,-280.033570,-85.938811,82.764935,0.627939,-0.411505,0.948379
1464,-243.533989,-56.641489,70.130465,1.165911,-0.221073,1.999969
1465,-195.742733,-45.471885,40.100710,1.637354,0.159426,1.999969
1466,-164.187076,-18.860151,4.882887,0.995132,-0.212772,1.999969
1467,-88.807507,6.897078,-17.395285,-0.070192,-0.173709,1.625269
1468,-90.943771,16.784924,-3.173877,-1.303975,-0.023316,1.228779
1469,-127.077134,-34.729534,40.161746,-1.306905,-0.405646,0.770764
1470,-92.225528,-93.690394,53.894865,-0.028199,-0.131594,0.761975
1471,-97.657740,-108.949416,37.659266,1.419699,0.442390,1.999969
1472,-68.665599,-37.903410,9.826810,0.832532,-0.326665,1.687160
1473,-11.291676,-14.282444,-1.281758,-0.647593,0.202640,0.978897
1474,-57.190814,-53.711757,13.061723,-0.093263,0.095216,1.115618
1475,-40.344854,-45.227741,2.197299,0.556649,-0.000977,1.353170
1476,-33.691920,-19.043259,-0.366217,0.038819,0.001221,1.248432
1477,-33.203632,-16.418708,4.028382,-0.003662,-0.046143,1.135271
1478,-12.512398,-16.235599,-2.197299,-0.010620,0.086183,0.965225
1479,-25.940337,-17.578393,-0.854505,0.058595,0.044068,1.007706
1480,-28.442817,-14.831769,0.183108,0.051392,-0.033814,1.123430
1481,-12.634470,-11.413748,-0.305180,0.065064,-0.017823,1.057755
1482,-13.366903,-5.737392,1.892119,0.083497,0.031861,1.024186
1483,-18.432898,-1.342794,3.112840,0.022461,-0.001709,1.039567
1484,-11.718929,1.037613,2.014191,0.042481,0.025147,0.930190
1485,-19.287404,1.464866,3.418021,0.051270,0.018067,0.976699
1486,-21.911955,1.953155,3.356985,-0.000366,-0.012573,1.005386
1487,-18.554971,-1.159686,3.356985,0.014649,0.006104,0.997208
1488,-20.080873,-2.746624,1.098650,-0.010254,-0.011841,0.973037
1489,-21.179522,-5.798428,2.014191,0.009400,-0.015625,1.068009
1490,-14.709697,-5.432212,1.464866,0.024048,-0.032471,1.058976
1491,-8.728161,-4.760815,0.732433,0.009766,0.078737,1.060197
1492,-9.948882,-5.859464,2.868696,0.037354,0.049195,1.045182
1493,-7.873655,-4.211490,2.685588,0.025147,0.065187,1.036637
1494,-11.352712,-5.065995,2.380407,0.014282,0.054688,0.978286
1495,-14.831769,-5.859464,2.197299,0.045899,-0.012940,1.014176
1496,-13.183795,-4.638743,1.464866,0.024659,0.033448,1.050309
1497,-12.146181,-5.004959,1.892119,0.022950,-0.011475,0.986343
1498,-14.526589,-4.943923,0.732433,0.004028,-0.023682,0.972549
1499,-15.014878,-6.164645,0.671397,0.003662,-0.055299,1.011368
1500,-15.564202,-6.713970,0.854505,0.029541,-0.029419,1.041032
1501,-17.822538,-6.408789,1.342794,0.032227,0.013062,1.047623
1502,-15.625238,-5.737392,1.342794,0.037354,-0.074830,0.963027
1503,-17.029068,-6.103609,1.464866,0.028809,-0.022827,0.981338
1504,-19.836728,-6.836042,0.976577,0.017334,-0.025879,0.987076
1505,-20.813306,-7.812619,0.732433,0.045533,-0.028565,1.001968
1506,-20.202945,-7.385367,0.000000,0.048096,-0.042969,0.988907
1507,-22.339208,-7.080186,0.000000,0.043214,-0.055299,0.995010
1508,-22.522316,-6.103609,0.000000,0.067750,-0.072755,0.987686
1509,-20.813306,-5.432212,1.342794,0.067750,-0.077760,1.022477
1510,-19.043259,-4.150454,2.258335,0.047364,-0.123903,0.967300
1511,-18.249790,-2.685588,3.234913,0.052735,-0.057618,0.991470
1512,-20.019837,-1.892119,3.723201,0.034668,-0.055421,0.991836
1513,-21.667811,-2.197299,3.906310,0.048951,-0.064332,0.980972
1514,-23.682002,-2.319371,2.929732,0.054688,-0.035523,1.047623
1515,-28.686961,-1.342794,2.014191,0.027344,-0.078859,0.993790
1516,-29.419394,-0.732433,1.220722,0.055665,-0.106935,1.019425
1517,-29.358358,2.197299,1.403830,0.103273,-0.028931,0.889784
1518,-28.625925,-1.586938,0.671397,0.042481,-0.083742,1.025650
1519,-25.146868,-0.793469,1.220722,0.044923,-0.068971,0.959243
1520,-36.316472,1.159686,4.577707,0.070680,-0.090822,1.045670
1521,-39.429313,3.356985,8.484016,0.063355,-0.145388,1.003433
1522,-31.433585,5.188067,11.169604,0.066041,-0.103639,0.963882
1523,-37.048905,5.737392,11.596857,0.026001,-0.072389,1.004898
1524,-42.542153,4.882887,10.070954,0.004150,-0.099855,0.966567
1525,-38.879988,2.075227,5.920500,-0.015625,-0.105226,1.015885
1526,-37.048905,1.159686,-1.037613,-0.014160,-0.082399,0.984634
1527,-38.696880,0.122072,-12.512398,-0.037842,-0.117433,0.984146
1528,-42.664225,0.122072,-24.414435,-0.020264,-0.086549,1.140398
1529,-45.349813,5.188067,-41.260395,0.029664,-0.265263,1.119890
1530,-37.293050,5.432212,-37.170977,0.121828,-0.321172,1.035172
1531,-10.681315,2.075227,-18.493935,0.165652,-0.278447,1.065202
1532,-3.112840,4.150454,-4.272526,0.113161,-0.087526,1.135393
1533,-33.325704,14.038300,-7.141222,0.071778,0.208499,0.947402
1534,-86.549172,24.231327,-22.217136,0.150759,0.213382,0.900404
1535,-126.771954,33.569848,-19.714656,0.037476,0.439338,0.713024
1536,-195.315480,27.283131,-41.077287,0.018921,0.496712,0.164187
1537,-210.269322,-13.611048,-32.715343,-0.116213,0.584115,1.362203
1538,-417.730983,-10.131991,-73.121233,0.208499,0.916274,1.562402
1539,-612.863355,-49.683375,-38.391699,-0.873304,0.067018,1.751736
1540,-737.071794,-165.712978,40.833143,-0.491951,-0.457282,1.393454
1541,-783.825437,-216.067750,102.113375,-0.091920,-0.266972,0.469368
1542,-869.398032,-213.504234,110.719463,0.638437,-1.651759,0.849500
1543,-1049.454490,-188.906691,230.167086,0.280766,-1.829374,1.999969
1544,-377.019913,-158.022431,30.029755,-0.291997,-1.833768,1.999969
1545,144.777600,-127.077134,-27.710384,0.372320,0.891005,1.999969
1546,131.410697,-40.772107,-62.867170,0.599130,1.615259,1.999969
1547,-24.841688,16.784924,-28.931106,-0.336553,1.048234,1.999969
1548,-20.141909,12.817578,-8.056764,-0.233646,0.398810,1.999969
1549,157.900359,64.820325,-14.282444,-0.437018,0.184695,1.530053
1550,225.955596,68.421454,-8.850233,-0.215579,0.226566,0.597787
1551,183.535515,59.876402,6.103609,-0.170535,0.207034,0.297612
1552,162.233921,50.415808,18.738079,-0.115114,0.049561,0.333013
1553,188.052186,45.288777,20.874342,0.028443,0.057008,0.270634
1554,194.399939,36.438544,18.371862,0.185183,0.174929,0.293828
1555,179.629206,21.484703,13.855192,0.264652,0.183474,0.461799
1556,189.456016,5.432212,2.807660,0.351446,0.209964,0.675059
1557,206.057832,-6.164645,-13.366903,0.367681,0.267582,0.836439
1558,212.161440,-11.596857,-29.114214,0.362432,0.267826,1.074113
1559,222.049287,-7.629511,-44.861524,0.297124,0.234745,1.406149
1560,245.609216,0.793469,-58.777752,0.165530,0.162112,1.634180
1561,273.502708,9.704738,-68.238346,0.043091,0.029175,1.733425
1562,300.541695,20.447089,-72.327764,-0.063844,-0.107057,1.697169
1563,320.805676,31.677729,-71.046006,-0.115602,-0.240726,1.565698
1564,334.416724,44.129091,-66.285191,-0.139651,-0.353033,1.380026
1565,337.041276,47.852293,-59.876402,-0.190188,-0.455207,1.073503
1566,325.932708,50.110628,-53.345541,-0.225711,-0.620371,0.762707
1567,298.100252,62.134737,-44.190127,-0.191043,-0.726940,0.555673
1568,260.685130,71.351186,-33.508812,-0.081910,-0.602914,0.661753
1569,223.270008,65.735866,-29.785611,0.100343,-0.479255,0.923110
1570,202.639811,53.833829,-34.973678,0.257939,-0.261967,1.728542
1571,185.305562,54.688334,-43.457694,0.294926,-0.186770,1.999969
1572,204.592966,72.632944,-53.345541,0.209354,-0.418952,1.999969
1573,267.032883,93.873503,-62.684062,0.095583,-0.621225,1.999969
1574,289.005875,104.432746,-63.538567,0.010864,-0.673350,1.999969
1575,265.445945,96.437018,-53.650721,-0.099977,-0.861463,1.999969
1576,281.132219,88.258183,-44.007019,-0.042237,-0.928115,1.999969
1577,289.982452,92.835889,-39.307240,0.169192,-0.912734,1.999969
1578,279.667353,111.146716,-36.255436,0.363043,-0.915541,1.898711
1579,270.572976,118.226902,-35.950256,0.391241,-0.959854,1.704494
1580,259.403372,107.972839,-34.241245,0.343755,-1.056291,1.597192
1581,246.158541,98.023957,-30.212863,0.215091,-1.249775,1.483177
1582,228.763256,95.338369,-22.644388,0.089235,-1.499535,1.322286
1583,202.090486,99.549859,-14.282444,0.037598,-1.869657,1.183001
1584,169.802396,110.353246,-5.127031,0.183352,-2.000031,1.078386
1585,135.133898,128.236820,0.793469,0.311528,-2.000031,0.950576
1586,108.400092,154.665446,-0.183108,0.414313,-2.000031,0.211429
1587,108.216983,158.876936,3.723201,0.278202,-2.000031,-0.572274
1588,43.396658,102.418555,28.442817,0.158450,-2.000031,-0.933730
1589,-40.650034,4.882887,63.721675,0.160159,-1.705470,-0.391608
1590,-71.290150,-71.290150,82.520790,0.176028,-1.468650,-0.318608
1591,-165.774014,-156.313420,76.173037,0.874647,-1.323751,-0.253300
1592,-256.351568,-191.287099,66.895552,0.944839,-1.085710,0.334722
1593,-139.162280,-136.903944,37.048905,0.505013,0.063233,1.559472
1594,-107.667659,-100.099184,22.766461,0.063233,1.156634,1.999969
1595,-188.784619,-78.431373,39.063096,0.208865,0.759899,0.737804
1596,-272.037842,-76.783398,35.706111,0.531991,-0.281010,0.153689
1597,-259.464408,-59.327077,29.114214,0.534554,-0.380011,1.507713
1598,-260.257877,-51.392386,27.710384,0.662119,-0.040528,1.999969
1599,-205.020218,-4.394598,12.634470,0.214359,-0.615488,1.999969
1600,-97.657740,16.174563,8.728161,-0.517342,-0.327764,1.519554
1601,-137.392233,-20.630198,36.865797,-0.903334,-0.145266,1.740017
1602,-102.540627,-61.341268,44.312200,-0.175906,-0.360601,1.146136
1603,-67.139696,-78.004120,35.828183,0.964858,0.458503,1.999969
1604,-73.548486,-36.499580,17.395285,0.905165,-0.060426,1.932525
1605,-28.503853,2.319371,4.455634,-0.296269,0.009644,1.237201
1606,-54.749371,-20.630198,14.892805,-0.302861,0.058961,0.916762
1607,-47.547112,-30.884260,6.042573,0.355962,0.072145,1.422263
1608,-38.269627,-8.056764,1.342794,0.157473,0.019043,1.274678
1609,-32.043946,-1.953155,1.342794,-0.155642,-0.020020,1.105608
1610,-23.743038,-9.460594,2.014191,-0.006226,0.009644,1.080095
1611,-20.996414,-7.263294,1.892119,0.022827,0.014649,1.072770
1612,-17.029068,-7.690547,1.342794,-0.101076,0.027955,0.989883
1613,-16.968032,-12.024109,0.671397,0.013672,0.044190,1.045304
1614,-16.113527,-9.399557,-0.122072,0.013184,-0.017212,1.075090
1615,-11.352712,-7.019150,0.000000,0.001221,0.015869,1.043351
1616,-11.291676,-4.638743,0.854505,0.036744,0.032227,1.029313
1617,-11.902037,-1.953155,1.831083,0.010010,0.009522,1.032975
1618,-10.559243,-0.671397,2.075227,-0.001953,0.015747,1.008927
1619,-10.315099,0.183108,2.685588,-0.020630,0.014282,1.000992
1620,-9.643702,-0.183108,2.685588,-0.014038,-0.000122,1.014420
1621,-7.690547,0.732433,2.685588,-0.001831,0.011841,1.010147
1622,-7.995727,1.464866,2.685588,-0.011597,0.017334,0.998917
1623,-8.606088,1.159686,3.051804,-0.019654,0.001831,1.006973
1624,-6.836042,1.281758,2.746624,-0.008545,0.014405,1.004410
1625,-7.507439,1.464866,2.807660,-0.022705,0.018677,0.987076
1626,-7.995727,0.854505,2.746624,-0.009155,0.012329,1.003189
1627,-8.789197,1.281758,2.807660,-0.008301,0.001953,1.014176
1628,-7.507439,1.953155,2.685588,-0.014527,-0.005615,0.995499
1629,-7.080186,2.319371,2.685588,-0.025757,0.004639,0.989517
1630,-8.606088,1.525902,2.868696,-0.024537,0.008301,0.984512
1631,-10.131991,3.173877,0.427253,0.057618,-0.061402,0.864271
1632,-7.019150,1.159686,1.037613,-0.029786,0.000855,1.063005
1633,-14.282444,-1.281758,2.319371,-0.017945,-0.019287,0.963027
1634,-9.094377,-0.427253,1.770047,-0.021485,-0.008179,1.006607
1635,-9.765774,-0.427253,2.075227,-0.019409,-0.005615,1.011856
1636,-10.315099,-0.183108,2.197299,-0.031983,-0.006836,0.991714
1637,-9.155413,-1.342794,2.014191,-0.029297,-0.012329,0.985000
1638,-9.338521,-2.746624,1.342794,-0.036500,-0.011597,0.978164
1639,-9.521630,-1.831083,-2.624552,0.047852,-0.283818,0.680430
1640,-7.568475,-5.127031,-0.915541,-0.040894,0.010986,1.097795
1641,-13.672084,-6.530861,1.098650,-0.017700,-0.015625,0.981827
1642,-11.291676,-6.286717,0.427253,-0.010864,-0.019043,0.963027
1643,-13.488975,-6.591897,0.366217,-0.007202,-0.003540,0.979385
1644,-17.700465,-6.958114,1.098650,-0.009888,-0.017578,0.988296
1645,-16.357671,-8.178836,0.366217,-0.022583,0.054078,0.977676
1646,-17.639429,-4.943923,1.098650,0.014893,-0.049317,1.009659
1647,-19.043259,-3.540093,2.502480,-0.001343,-0.040284,1.072648
1648,-14.648661,-2.502480,2.014191,-0.021607,-0.020264,0.994888
1649,-16.052491,-3.601129,2.197299,-0.021851,-0.027710,0.957534
1650,-17.761501,-5.798428,2.258335,-0.034668,-0.004761,0.957168
1651,-21.057450,-9.277485,1.342794,-0.050416,-0.010498,0.928969
1652,-25.574121,-12.085145,0.976577,-0.003662,-0.013184,0.963638
1653,-28.747997,-12.878614,0.244144,-0.021118,-0.000977,0.962905
1654,-33.020523,-14.526589,-0.305180,-0.024781,-0.011231,0.923232
1655,-42.053864,-16.357671,0.549325,0.009400,-0.018677,0.971817
1656,-48.462654,-15.564202,0.854505,0.010132,-0.072267,1.036515
1657,-42.969406,-14.099336,1.342794,-0.018555,-0.089723,1.020645
1658,-41.199359,-14.465553,2.807660,0.000977,-0.061280,0.984146
1659,-48.218509,-14.160372,3.784237,0.006470,-0.061158,0.991470
1660,-48.828870,-15.625238,3.051804,-0.015381,-0.075319,1.012955
1661,-50.537881,-14.221408,0.488289,0.078004,-0.062745,1.193133
1662,-50.293736,-8.850233,-3.234913,-0.040650,-0.099977,1.053117
1663,-39.185168,-9.277485,-9.765774,-0.059205,-0.120241,0.919814
1664,-42.053864,-10.193027,-16.174563,0.006714,-0.042115,1.047990
1665,-55.420768,-11.169604,-24.719615,-0.009033,-0.074220,0.989029
1666,-76.600290,-2.136263,-35.645075,0.051026,0.027222,0.854627
1667,-89.662013,6.775006,-41.748684,0.123659,-0.392950,1.213275
1668,-55.176623,-2.990768,-14.648661,0.141604,-0.464607,1.095476
1669,-20.508125,-5.432212,3.723201,0.018921,-0.055055,1.002335
1670,-43.762875,1.770047,-12.756542,0.010010,0.107424,0.951797
1671,-81.788357,4.516670,-16.662852,0.086549,0.164675,0.895033
1672,-130.312047,10.437171,-6.286717,0.064210,-0.033692,0.811048
1673,-122.865644,5.065995,5.371176,-0.000855,0.731701,0.704479
1674,-171.816587,-10.254063,-32.593271,0.128176,0.900282,0.977554
1675,-333.684291,-19.592584,-29.724575,0.002808,1.048600,1.380880
1676,-579.720760,-20.813306,32.288090,-0.231937,0.597543,1.800076
1677,-686.961166,-56.031128,55.848020,-0.288090,-0.416632,1.298726
1678,-737.010758,-56.092164,72.388800,0.316289,-0.179324,1.197162
1679,-785.656519,-55.298695,66.529335,0.016358,-0.229618,0.697276
1680,-874.952316,-103.150988,95.765621,1.023087,-2.000031,1.999969
1681,-883.924620,-105.653468,174.380102,-0.578866,-0.407477,1.999969
1682,-118.410010,-133.363851,-43.274586,0.322271,-0.959121,1.999969
1683,242.130159,-90.516518,-68.055238,0.266117,0.925063,1.999969
1684,133.669032,-34.973678,-88.136110,0.344366,1.275166,1.999969
1685,7.202258,-20.813306,-33.020523,-0.404425,0.958755,1.885527
1686,10.986496,-15.381094,-24.292363,-0.339239,0.254765,1.461448
1687,148.928054,23.743038,-29.785611,-0.536507,0.164553,0.887343
1688,179.140917,19.348440,-14.831769,-0.469734,0.315312,0.380865
1689,131.593805,-0.427253,5.371176,-0.459602,0.197269,0.377691
1690,131.898985,-10.437171,19.836728,-0.366217,0.075929,0.631846
1691,166.079194,-12.024109,26.245518,-0.277714,0.141238,0.790173
1692,172.365911,-18.921187,31.555657,-0.173098,0.199222,1.007950
1693,185.732815,-22.888533,32.349126,-0.050050,0.199466,1.254536
1694,218.570230,-18.860151,24.414435,0.104128,0.165896,1.264912
1695,240.848402,-7.934691,10.620279,0.110842,0.148440,1.325093
1696,256.656748,6.286717,-0.427253,0.124880,0.099977,1.357076
1697,273.990997,17.212177,-10.559243,0.074464,-0.011353,1.317159
1698,292.362860,22.583352,-17.822538,0.055665,-0.086427,1.308980
1699,302.861067,23.498894,-21.179522,0.017090,-0.170291,1.405051
1700,315.251392,23.743038,-21.850919,-0.009522,-0.281621,1.507713
1701,335.332265,26.123445,-22.522316,0.007813,-0.362676,1.471946
1702,344.304570,27.832456,-23.010605,0.040284,-0.403693,1.365133
1703,342.717632,26.855879,-25.879301,0.109743,-0.463752,1.174945
1704,334.721904,31.006332,-33.264668,0.161868,-0.660166,0.754284
1705,307.804990,50.782025,-40.894179,0.302007,-0.697765,0.470344
1706,255.069810,71.229114,-50.049592,0.337285,-0.518563,0.630014
1707,208.010987,62.378882,-58.350500,0.326177,-0.482795,1.221820
1708,197.451743,46.936751,-67.078660,0.354009,-0.298466,1.999969
1709,203.067063,36.987869,-79.163806,0.355596,-0.305425,1.999969
1710,239.383536,46.021210,-92.042420,0.276371,-0.531991,1.999969
1711,282.719158,66.285191,-103.395132,0.143435,-0.708263,1.999969
1712,270.267796,77.698940,-100.465400,-0.061769,-0.786023,1.999969
1713,263.675898,70.008392,-89.539940,-0.188846,-0.967056,1.999969
1714,292.973220,61.890593,-78.492409,-0.168826,-1.018326,1.999969
1715,296.818494,68.177310,-68.299382,-0.065187,-1.045304,1.980987
1716,280.766003,79.652094,-59.571221,-0.002930,-1.127337,1.782498
1717,272.709239,87.464714,-53.345541,0.074708,-1.196429,1.605371
1718,257.267109,90.150301,-48.157473,0.145266,-1.294331,1.463890
1719,236.148623,92.286564,-42.236973,0.205570,-1.430930,1.365499
1720,214.541848,94.178683,-37.903410,0.263066,-1.645655,1.242084
1721,188.662547,96.375982,-33.386740,0.405280,-1.939971,1.052262
1722,154.970626,101.014725,-34.058137,0.571786,-2.000031,0.786877
1723,120.180056,115.663386,-42.359045,0.624399,-2.000031,0.420539
1724,89.478904,131.410697,-49.805447,0.467536,-2.000031,-0.122805
1725,54.810407,113.221942,-37.964446,0.204837,-2.000031,-0.593027
1726,-11.596857,45.899138,-9.155413,-0.019165,-2.000031,-0.533333
1727,-95.155261,-69.031815,27.954528,-0.177493,-2.000031,-1.531884
1728,-223.758297,-202.578775,72.693980,0.496468,-1.824735,-0.191287
1729,-233.463035,-212.710765,60.975052,0.769543,-0.912490,1.622950
1730,-104.921035,-93.018997,34.058137,0.132937,0.408087,1.999969
1731,-110.658427,-51.575494,36.072328,-0.267460,1.120867,1.538842
1732,-219.546807,-85.023270,54.810407,0.170047,0.582895,0.426032
1733,-290.043488,-75.989929,52.918288,0.371832,-0.440681,0.447395
1734,-265.323873,-46.753643,49.683375,0.559335,-0.273930,1.604761
1735,-240.665293,-28.137636,36.865797,1.097307,0.049683,1.999969
1736,-211.001755,31.494621,6.713970,0.682506,-0.423713,1.999969
1737,-141.786831,15.136950,7.263294,-0.791272,-0.028809,1.999969
1738,-124.879835,-35.584039,31.128405,-1.180560,-0.812879,1.972320
1739,-23.010605,-100.221256,31.067369,-0.176394,-0.065919,1.132708
1740,-67.078660,-99.244678,34.668498,1.222675,0.453010,1.905791
1741,-63.294423,-40.955215,19.775692,0.730114,0.067140,1.694850
1742,-56.946670,-13.977264,14.404517,-0.536141,-0.187869,1.317525
1743,-32.532235,-37.842374,8.728161,0.078126,0.026612,1.216083
1744,-33.447776,-23.987182,1.892119,0.496834,0.067872,1.442039
1745,-29.114214,0.244144,1.525902,-0.134768,-0.030152,1.111223
1746,-18.310826,-3.601129,2.014191,-0.060304,0.038331,1.113909
1747,-19.409476,-1.220722,3.479057,0.114260,-0.003906,1.126848
1748,-12.329290,7.324331,4.028382,-0.044312,0.024292,1.045548
1749,-11.718929,4.943923,4.272526,-0.059205,0.046387,0.990738
1750,-13.977264,4.638743,4.394598,0.025757,0.021851,1.058000
1751,-10.803388,7.446403,3.906310,-0.030030,0.033570,0.989395
1752,-13.000687,7.324331,3.601129,-0.017700,0.015869,0.960952
1753,-15.014878,6.652934,4.699779,-0.019043,0.012207,1.036393
1754,-11.657893,7.080186,3.784237,-0.017456,0.041382,1.004288
1755,-14.343481,7.568475,3.662165,-0.010620,0.017578,0.993790
1756,-13.427939,7.446403,3.723201,-0.042359,0.008423,1.020157
1757,-10.803388,7.080186,3.479057,-0.029175,0.024170,1.022110
1758,-11.596857,7.751583,4.028382,-0.030030,0.006958,1.023087
1759,-8.239872,7.873655,3.662165,-0.047486,0.015015,1.000259
1760,-7.629511,6.408789,3.418021,-0.044556,0.019043,0.986343
1761,-7.751583,5.065995,3.234913,-0.051270,0.020020,0.990860
1762,-7.446403,4.516670,2.685588,-0.037476,0.011719,1.002823
1763,-6.897078,3.967346,2.197299,-0.053346,0.010254,0.997696
1764,-6.347753,2.502480,1.709010,-0.055909,0.017945,0.976089
1765,-8.117800,0.732433,1.525902,-0.053834,0.017945,0.980606
1766,-7.446403,0.000000,1.586938,-0.060182,0.007080,0.985122
1767,-6.408789,-0.854505,1.342794,-0.044434,0.002686,0.994278
1768,-7.690547,-1.770047,1.709010,-0.050294,-0.002564,0.996719
1769,-6.164645,-1.770047,1.586938,-0.048341,0.001099,0.998428
1770,-5.432212,-2.258335,1.220722,-0.052125,0.000977,0.988418
1771,-5.249104,-3.418021,0.976577,-0.057496,0.018311,0.954238
1772,-7.141222,-5.310140,0.183108,-0.115236,0.052979,1.049454
1773,-9.460594,-8.789197,0.854505,-0.034424,0.033692,0.866957
1774,-14.099336,-10.437171,0.366217,-0.046998,-0.008545,0.947646
1775,-14.343481,-11.291676,0.427253,-0.058839,0.005737,1.010147
1776,-12.695506,-10.376135,-2.380407,-0.009644,-0.144778,0.823499
1777,-10.009918,-13.366903,-1.281758,-0.070558,0.028321,1.067155
1778,-18.860151,-16.357671,0.732433,-0.034058,-0.021241,0.964858
1779,-15.930419,-15.320058,-0.671397,-0.046876,0.071412,1.337179
1780,-4.943923,-12.146181,-0.427253,0.009155,-0.003174,0.960464
1781,-11.596857,-12.695506,-0.488289,-0.005982,-0.026001,0.987564
1782,-9.887846,-10.070954,-0.244144,-0.004273,-0.033082,1.068864
1783,-5.615320,-7.141222,-0.671397,-0.009522,-0.017456,0.994888
1784,-8.361944,-6.897078,-0.366217,-0.008423,-0.017334,0.943130
1785,-10.742351,-7.324331,-0.305180,-0.033570,-0.020752,0.937270
1786,-11.657893,-6.347753,-2.441444,0.096315,-0.153567,0.622934
1787,-12.756542,-9.826810,-1.831083,-0.048096,0.044678,1.072648
1788,-21.484703,-12.817578,-0.244144,-0.049073,0.011719,0.953750
1789,-21.606775,-15.320058,-0.732433,-0.024048,-0.004150,0.920668
1790,-28.564889,-16.723888,-0.549325,0.015137,-0.010864,0.973770
1791,-35.156786,-16.113527,1.342794,0.009400,-0.047608,0.997574
1792,-34.668498,-14.099336,2.014191,0.024292,-0.053468,1.042863
1793,-32.104982,-11.657893,2.014191,0.014160,-0.038941,0.994400
1794,-32.898451,-9.582666,1.464866,0.008789,0.005493,0.979995
1795,-41.809720,-10.864424,1.220722,-0.046754,-0.014771,0.962295
1796,-43.335622,-13.366903,-0.732433,-0.023682,-0.017212,0.946792
1797,-50.232700,-14.648661,0.183108,0.001709,-0.051148,1.011124
1798,-52.674144,-15.686275,-0.915541,-0.012085,-0.092409,0.997696
1799,-46.997787,-15.930419,-0.732433,0.020630,-0.065064,1.034318
1800,-51.880674,-11.169604,-4.577707,0.042115,-0.068116,1.173968
1801,-51.575494,-8.178836,-10.009918,-0.031128,-0.135012,0.999771
1802,-44.007019,-7.141222,-13.794156,-0.016358,-0.139773,0.998184
1803,-52.552071,-6.775006,-24.292363,0.010010,-0.084230,0.997452
1804,-69.947356,3.479057,-37.109941,0.090211,-0.173342,0.917006
1805,-69.520104,6.775006,-26.489662,0.132570,-0.398199,1.045914
1806,-43.396658,-1.831083,0.915541,0.066773,-0.252079,1.070817
1807,-37.842374,-3.356985,1.464866,0.012329,-0.080934,0.989029
1808,-56.092164,2.929732,-5.859464,0.019654,0.099001,0.942275
1809,-87.708858,4.394598,-12.146181,0.031739,0.284062,0.718517
1810,-121.705959,2.624552,-8.728161,0.096559,0.057984,0.933242
1811,-131.532769,1.037613,2.075227,-0.096681,0.421149,0.842542
1812,-180.361639,-15.197986,-29.907683,-0.023194,0.276249,0.923354
1813,-234.805829,-35.523003,-22.400244,-0.052735,0.632822,1.196063
1814,-476.813916,-27.283131,-4.455634,0.113283,0.394049,1.424826
1815,-623.605707,-74.647135,37.476158,-0.278080,-0.003662,1.726711
1816,-657.969024,-101.808194,41.992828,0.156130,-0.300175,1.223041
1817,-695.750362,-103.578241,41.626612,0.051026,-0.357916,0.796887
1818,-750.133516,-124.879835,46.631571,-0.003296,-0.443122,0.703624
1819,-900.709545,-164.797436,98.817426,0.464851,-2.000031,1.999969
1820,-673.716335,-112.489509,126.894026,-1.028702,-0.096193,1.999969
1821,-3.723201,-127.260243,-41.077287,0.196536,0.177005,1.999969
1822,223.697261,-62.806134,-57.312886,-0.036744,1.100847,1.999969
1823,104.798962,-12.329290,-68.787671,-0.108400,1.075090,1.999969
1824,27.771420,-10.620279,-16.235599,-0.539193,0.677012,1.986114
1825,97.352560,10.620279,-19.043259,-0.496223,0.140139,1.432395
1826,203.128099,34.424353,-17.212177,-0.538582,0.183352,0.648203
1827,176.150149,27.588312,2.380407,-0.474617,0.180545,0.292973
1828,137.636378,12.268254,20.141909,-0.463264,0.001587,0.446052
1829,159.548333,5.065995,31.189441,-0.421881,-0.061646,0.583139
1830,173.769741,-2.685588,40.405890,-0.344488,0.006348,0.684215
1831,171.206226,-12.512398,48.645762,-0.254154,0.013672,0.902846
1832,189.150835,-18.127718,50.232700,-0.145022,0.029297,1.132952
1833,211.429007,-17.151141,45.838102,-0.065553,0.082765,1.334737
1834,232.547494,-9.094377,38.147555,0.007202,0.086549,1.395773
1835,254.032197,7.568475,26.428626,0.036133,0.018067,1.413352
1836,267.643244,22.705425,16.540780,0.023194,-0.065797,1.434958
1837,281.925689,32.410163,9.033341,0.019043,-0.177615,1.461814
1838,299.137865,37.293050,4.577707,0.017090,-0.262943,1.497459
1839,313.176165,38.757916,1.525902,0.028809,-0.356085,1.468528
1840,323.186084,39.429313,-1.037613,0.066651,-0.430304,1.422141
1841,326.359960,38.879988,-4.882887,0.173220,-0.483162,1.408835
1842,323.369192,40.222782,-13.977264,0.241459,-0.539803,1.371481
1843,323.430228,42.542153,-24.963760,0.263920,-0.568612,1.313008
1844,315.678645,42.786297,-34.973678,0.235966,-0.559213,1.175433
1845,298.100252,35.645075,-42.847333,0.226078,-0.571786,1.211322
1846,284.916457,34.058137,-50.537881,0.204471,-0.573129,1.212787
1847,267.582208,33.936065,-58.167391,0.171389,-0.516732,1.278828
1848,247.684443,35.278859,-65.125505,0.116579,-0.481453,1.514061
1849,234.317540,39.917601,-71.046006,0.104128,-0.424811,1.856962
1850,230.045014,48.401617,-76.844434,0.125246,-0.441291,1.999969
1851,237.430381,56.946670,-82.154574,0.171756,-0.469368,1.999969
1852,246.707866,62.989242,-88.075074,0.217044,-0.502571,1.999969
1853,254.581521,69.336996,-93.385214,0.195560,-0.628183,1.999969
1854,260.868238,77.576867,-94.789044,0.125124,-0.808728,1.999969
1855,265.323873,84.962234,-90.821698,0.077028,-0.982437,1.995514
1856,262.821393,88.868544,-84.046693,0.073854,-1.116594,1.691188
1857,245.304036,92.713817,-74.830243,0.130739,-1.264790,1.484764
1858,220.096132,98.817426,-64.271000,0.135256,-1.520775,1.313130
1859,194.216831,103.212024,-52.857252,0.213993,-1.896025,1.204974
1860,160.280766,104.921035,-38.757916,0.439338,-2.000031,1.104631
1861,118.471046,112.794690,-32.654307,0.585458,-2.000031,0.926772
1862,104.066529,132.326238,-24.719615,0.457038,-2.000031,0.251957
1863,121.766995,135.805295,-18.616007,0.195071,-2.000031,-0.760021
1864,53.040360,73.731594,13.977264,-0.058473,-2.000031,-1.416648
1865,-60.608835,-33.081559,71.595331,-0.177005,-1.918975,-0.729625
1866,-126.283665,-131.044480,101.441978,0.321782,-1.862089,-1.964630
1867,-235.233082,-193.118181,107.789731,1.011734,-0.716686,0.875624
1868,-181.521324,-144.777600,61.890593,0.480476,-0.167239,1.999969
1869,-83.741512,-96.864271,38.941024,-0.063478,1.100725,1.999969
1870,-112.001221,-99.305715,44.068055,-0.131228,0.882948,0.796399
1871,-231.204700,-101.625086,63.599603,0.259892,0.159426,-0.469734
1872,-263.981079,-87.891966,57.007706,0.546761,-0.452155,-0.241215
1873,-286.930648,-71.168078,56.763561,1.107683,0.062135,1.999969
1874,-288.517586,-53.589685,33.875029,1.371359,-0.292119,1.999969
1875,-151.125353,-8.667124,-10.009918,0.218387,-0.605356,1.999969
1876,-137.819486,-40.283818,16.418708,-1.471336,-0.096681,1.999969
1877,-133.546960,-83.802548,44.251164,-0.117067,-0.591562,1.999969
1878,-2.868696,-73.975738,0.244144,1.613550,0.113405,1.963897
1879,-27.038987,6.225681,0.122072,0.406378,0.284428,1.132219
1880,-70.862898,15.259022,17.883574,-0.566537,-0.101930,0.968521
1881,-45.654994,-16.845960,9.582666,-0.008545,-0.019043,1.340475
1882,-23.559930,-10.437171,0.854505,0.324834,0.156619,1.160418
1883,-37.170977,1.953155,3.479057,-0.142336,0.008667,1.049088
1884,-24.109255,-8.667124,-0.122072,-0.079957,0.033692,1.089494
1885,-21.728847,-10.193027,-2.563516,0.096071,0.052369,1.085100
1886,-23.559930,-4.333562,0.000000,-0.025635,0.019043,1.027604
1887,-19.714656,-5.310140,0.000000,-0.051148,0.022217,1.021744
1888,-19.043259,-5.310140,-0.671397,0.061158,0.038941,1.005142
1889,-22.583352,-2.685588,1.586938,0.009155,0.036866,1.042496
1890,-18.310826,-3.112840,2.868696,0.035767,0.014649,1.059831
1891,-14.587625,0.366217,2.563516,0.040528,0.019654,1.003677
1892,-18.432898,1.586938,4.394598,-0.005249,0.013794,0.994522
1893,-17.395285,1.770047,4.272526,0.007446,0.015625,1.000137
