Packet number,Gyroscope X (deg/s),Gyroscope Y (deg/s),Gyroscope Z (deg/s),Accelerometer X (g),Accelerometer Y (g),Accelerometer Z (g)
0,0.061036,0.000000,-0.183108,-0.000855,0.005859,0.996719
1,-0.183108,-0.305180,-0.183108,-0.004273,0.007446,0.999649
2,-0.366217,-0.183108,-0.183108,0.005371,-0.000366,1.006363
3,0.000000,0.000000,-0.183108,0.001709,0.001587,1.004410
4,0.183108,0.183108,-0.183108,0.003540,0.005127,0.992325
5,-0.122072,0.061036,0.000000,0.001099,-0.003052,0.997940
6,0.427253,0.122072,-0.122072,-0.000244,0.001831,0.996231
7,-0.366217,-0.061036,0.000000,-0.002075,0.001709,0.997452
8,0.122072,-0.122072,-0.122072,0.002441,0.003784,0.997940
9,0.000000,0.000000,0.000000,0.000732,0.005005,0.997696
10,-0.305180,-0.244144,0.000000,-0.000488,0.002808,0.998306
11,0.061036,-0.183108,0.000000,-0.000488,0.007568,0.992569
12,-0.061036,-0.183108,0.000000,0.000000,0.009277,0.990982
13,-0.244144,-0.305180,-0.183108,0.000122,0.008179,0.992447
14,-0.610361,-0.183108,-0.122072,0.000000,0.003540,1.003922
15,-0.244144,-0.244144,-0.122072,0.002319,0.005249,1.001358
16,-0.305180,-0.061036,-0.122072,0.004883,0.005859,0.990860
17,-0.305180,0.061036,0.000000,-0.000610,0.002808,1.002335
18,0.000000,0.061036,-0.244144,0.007324,0.004639,0.999527
19,-0.122072,0.061036,-0.183108,-0.002564,0.003418,0.998672
20,-0.061036,0.061036,-0.122072,-0.005737,0.004761,1.008194
21,-0.122072,-0.183108,-0.122072,-0.000366,0.002564,0.995132
22,-0.122072,-0.183108,0.000000,-0.004883,0.006714,0.994400
23,-0.183108,-0.244144,-0.122072,0.002441,0.000366,1.000381
24,-0.183108,-0.244144,-0.183108,-0.002686,0.002319,0.995621
25,-0.244144,-0.244144,0.000000,0.000610,-0.000366,1.000504
26,0.061036,-0.183108,0.000000,-0.000610,0.006958,1.000748
27,-0.305180,-0.183108,0.000000,-0.000977,-0.000855,1.001602
28,0.061036,-0.122072,0.000000,-0.000366,0.005737,0.999161
29,-0.305180,-0.305180,-0.122072,0.001343,0.002808,1.001480
30,-0.488289,-0.366217,0.000000,0.000488,0.002686,1.001602
31,-0.183108,-0.305180,0.000000,0.002197,0.000244,0.998306
32,-0.244144,-0.305180,0.000000,0.000732,0.004150,0.991714
33,-0.305180,-0.366217,-0.122072,-0.000855,0.004150,1.003677
34,-0.061036,-0.244144,0.000000,0.000000,0.008301,0.998062
35,-0.183108,-0.305180,-0.183108,0.003540,0.003784,1.000626
36,-0.122072,-0.305180,-0.122072,0.001587,0.003418,0.996597
37,-0.366217,-0.305180,0.000000,0.004028,-0.000732,1.008927
38,0.122072,-0.183108,0.000000,-0.002319,-0.001221,0.999405
39,0.061036,-0.183108,0.000000,-0.002319,-0.003418,0.990860
40,0.610361,-0.183108,0.000000,0.003418,0.009033,0.992447
41,-0.549325,-0.244144,0.000000,-0.002808,-0.001587,0.994644
42,0.122072,-0.244144,0.000000,-0.005859,0.007202,0.990494
43,-0.793469,-0.305180,-0.122072,0.008667,0.002564,1.001114
44,-0.366217,-0.183108,0.000000,-0.001831,0.001831,1.011246
45,-0.244144,-0.061036,-0.183108,-0.005127,0.004761,0.998550
46,-0.488289,-0.183108,0.000000,-0.000488,0.001831,1.003922
47,0.000000,0.000000,-0.122072,-0.000977,0.006470,1.000992
48,-0.305180,-0.305180,-0.122072,-0.003906,0.003784,1.002213
49,-0.122072,-0.244144,0.000000,0.001587,0.002808,1.004898
50,0.122072,-0.183108,0.000000,0.000488,0.002808,0.996475
51,-0.122072,-0.244144,0.000000,-0.004273,0.001587,1.004288
52,-0.061036,-0.183108,0.000000,0.006592,0.002564,0.990372
53,-0.366217,-0.183108,0.000000,-0.000732,0.000977,1.003799
54,0.000000,0.000000,0.000000,0.000366,0.000488,0.996231
55,-0.305180,-0.183108,-0.122072,-0.002319,0.002319,0.996963
56,0.061036,-0.122072,-0.122072,0.002197,0.002808,0.995377
57,-0.183108,-0.305180,-0.122072,0.004150,0.002564,0.997330
58,-0.122072,-0.305180,-0.122072,-0.003662,0.001709,1.000992
59,-0.122072,-0.366217,0.000000,0.003296,0.006348,0.995010
60,-0.061036,-0.305180,-0.183108,-0.003662,0.004028,0.995743
61,-0.610361,-0.183108,-0.183108,0.002075,0.000000,1.013443
62,0.671397,0.427253,-0.305180,-0.000977,0.001831,1.000259
63,0.427253,0.061036,-0.366217,0.001099,0.000488,1.024308
64,1.892119,0.427253,-0.366217,-0.005371,0.006104,0.985977
65,0.854505,0.793469,-0.427253,-0.001221,-0.016602,0.945693
66,1.403830,0.671397,0.061036,-0.022095,0.013550,1.011002
67,-0.061036,-0.427253,-0.305180,0.002075,0.007813,0.973159
68,0.305180,-0.122072,-0.244144,0.008667,0.003540,1.004410
69,0.427253,0.000000,-0.305180,-0.011353,0.005127,0.992447
70,-0.061036,-0.183108,-0.305180,0.004395,0.001465,1.006729
71,0.305180,0.122072,-0.427253,-0.002075,0.008667,1.001358
72,-0.122072,-0.244144,-0.305180,0.002808,0.002075,1.005875
73,0.488289,-0.183108,-0.244144,0.002808,0.000732,0.999161
74,0.732433,-0.122072,-0.122072,-0.007446,0.003052,0.993545
75,0.610361,-0.244144,0.000000,0.002441,0.007935,0.985733
76,0.427253,-0.305180,0.000000,0.001831,0.010132,0.994278
77,0.061036,-0.305180,0.000000,-0.001587,0.005737,0.996353
78,-0.305180,-0.244144,0.061036,0.000732,0.002075,0.999283
79,-0.305180,-0.061036,-0.122072,0.003418,0.007324,0.985977
80,-0.305180,-0.061036,0.000000,0.005493,0.004150,1.004410
81,-0.061036,0.061036,0.000000,-0.000488,-0.001465,0.996841
82,-0.122072,0.000000,0.000000,0.002319,0.003784,0.997818
83,-0.427253,0.000000,-0.122072,-0.003784,-0.001709,1.000870
84,0.000000,0.000000,-0.183108,-0.003052,0.000977,0.991836
85,-0.183108,-0.061036,0.000000,-0.002319,0.004028,0.997940
86,-0.061036,-0.183108,-0.183108,0.000244,0.005982,0.994400
87,0.000000,-0.122072,0.061036,-0.002686,0.003174,0.992203
88,0.488289,-0.305180,0.000000,0.003174,0.003174,0.992813
89,0.061036,-0.183108,0.000000,0.002319,0.006104,1.003433
90,-0.061036,-0.244144,0.000000,-0.000244,0.001221,0.999527
91,-0.061036,-0.122072,0.000000,-0.002441,0.007568,1.005264
92,0.000000,0.000000,0.000000,-0.004517,0.009522,0.994400
93,-0.793469,-0.305180,0.000000,0.001953,0.005615,1.011856
94,-0.061036,-0.122072,0.061036,-0.000488,0.004395,1.001846
95,-0.061036,-0.122072,0.000000,-0.005249,0.005493,1.003555
96,0.366217,0.000000,-0.122072,-0.007813,0.000488,1.013199
97,0.854505,0.000000,-0.366217,-0.002808,0.009644,0.991958
98,-0.061036,-0.183108,-0.183108,0.001221,-0.000488,1.008804
99,1.342794,0.000000,-0.183108,0.001099,0.010254,0.995010
100,0.000000,0.000000,-0.183108,0.004761,0.006470,0.999649
101,0.244144,0.061036,-0.122072,0.003540,-0.001709,1.017227
102,1.037613,0.976577,-0.244144,0.005127,-0.005615,1.026017
103,2.929732,1.647974,-0.549325,0.000366,0.005371,1.002213
104,2.563516,1.220722,0.122072,0.013550,0.001953,1.018814
105,2.441444,1.647974,-0.366217,0.004761,0.008423,1.020768
106,3.356985,1.892119,-0.305180,0.003296,0.004028,0.980850
107,3.601129,1.770047,-0.488289,-0.027588,0.012573,0.959731
108,1.159686,0.183108,-0.244144,0.008057,0.011841,0.992691
109,2.075227,-0.122072,-0.488289,-0.015137,0.006104,0.993423
110,2.319371,-1.098650,-0.366217,-0.006104,0.016846,0.991348
111,1.098650,-1.586938,-0.305180,0.002808,0.011109,1.005753
112,1.831083,-1.159686,-0.488289,-0.004639,0.005615,1.002701
113,2.136263,-1.403830,-0.671397,0.003906,0.005737,0.998306
114,1.953155,-0.671397,-1.159686,0.007813,-0.005371,1.029191
115,4.150454,-0.122072,-1.159686,0.001221,-0.004639,1.042496
116,6.713970,0.854505,-1.220722,0.017578,0.005127,1.004654
117,6.897078,1.586938,-1.098650,-0.006714,0.021851,0.962173
118,4.150454,0.915541,-0.671397,0.004273,0.019654,0.974502
119,4.028382,0.732433,-0.488289,-0.004761,0.015747,0.969619
120,2.258335,0.244144,-0.183108,0.000488,0.025025,0.973892
121,0.305180,0.244144,0.061036,0.002197,0.017578,0.985122
122,0.671397,0.122072,0.244144,-0.002564,0.017456,0.983780
123,0.000000,0.000000,0.305180,0.000366,0.018189,0.991348
124,-0.488289,-0.183108,0.305180,-0.001953,0.014527,1.003189
125,0.122072,0.183108,0.244144,0.000244,0.014038,0.991104
126,-0.427253,0.244144,0.488289,0.003052,0.013428,1.001114
127,0.000000,0.366217,0.549325,-0.004028,0.017578,1.004044
128,0.000000,0.427253,0.732433,-0.006226,0.016724,0.991958
129,-0.305180,0.183108,0.671397,-0.009522,0.011841,0.995499
130,-0.976577,-0.549325,0.732433,-0.004150,0.022461,0.984878
131,-1.098650,-0.793469,0.549325,-0.000488,0.015259,0.992691
132,-1.464866,-0.793469,0.427253,0.000244,0.011963,1.029801
133,-0.183108,-0.305180,0.366217,0.012696,0.004395,1.043229
134,2.685588,0.915541,0.305180,0.001587,0.007813,1.005997
135,1.709010,0.671397,0.732433,-0.005493,0.010010,1.024674
136,3.418021,1.098650,0.732433,0.010132,-0.013306,1.051530
137,8.056764,2.075227,0.732433,-0.008057,0.015747,0.993790
138,6.347753,1.220722,1.464866,-0.012818,0.029297,0.980362
139,5.615320,0.488289,1.342794,-0.011231,0.020630,0.978897
140,4.943923,0.000000,1.342794,-0.001343,0.027832,0.954482
141,2.624552,-1.159686,1.342794,-0.004395,0.033448,0.955337
142,0.854505,-1.831083,1.342794,-0.001099,0.025147,0.976699
143,1.281758,-2.197299,0.915541,0.010864,-0.004517,0.972061
144,1.525902,-2.197299,0.976577,-0.011597,0.030396,0.991714
145,-0.061036,-2.563516,1.525902,0.002808,0.038331,1.019059
146,1.281758,-2.258335,1.220722,0.000366,0.015869,1.017472
147,1.647974,-2.136263,1.159686,-0.001465,0.009155,1.003677
148,1.647974,-2.075227,1.037613,0.003784,0.026490,1.020035
149,3.356985,-1.586938,0.976577,0.003540,0.033814,1.016739
150,3.662165,-1.037613,0.854505,0.005005,0.026490,0.998795
151,2.746624,-1.159686,0.732433,0.002319,0.044434,0.986831
152,2.929732,-1.037613,0.671397,0.000366,0.033936,0.972793
153,0.061036,-1.464866,0.793469,-0.008667,0.043091,0.985977
154,0.793469,-1.586938,0.671397,-0.010376,0.046754,0.991836
155,-0.122072,-2.563516,0.549325,-0.006836,0.024781,0.983780
156,0.671397,-2.502480,0.366217,0.022095,-0.006714,0.969619
157,-0.183108,-1.831083,0.183108,0.010986,-0.015747,0.991714
158,1.770047,-1.220722,0.427253,0.010498,0.064820,1.021378
159,-0.610361,-0.610361,0.549325,0.013428,0.027588,0.998672
160,0.244144,0.549325,0.000000,0.002564,0.012573,0.962539
161,-0.793469,0.183108,0.671397,-0.000122,0.030518,0.965469
162,-1.281758,-0.305180,0.549325,-0.002319,0.069337,0.992081
163,-4.516670,-2.075227,0.976577,-0.009888,0.027466,0.951553
164,-6.103609,-3.479057,0.976577,-0.048585,0.033082,0.956802
165,-6.408789,-5.188067,1.159686,0.024537,0.055055,0.986587
166,-10.681315,-5.004959,0.854505,0.008301,0.013306,1.016007
167,-6.408789,-4.211490,0.732433,0.023438,-0.006470,1.051286
168,-2.502480,-2.502480,0.793469,0.039307,0.014527,1.035416
169,-1.647974,-1.037613,0.732433,0.009277,0.012573,1.014664
170,-1.586938,-0.976577,0.854505,0.011475,0.022705,1.012711
171,-1.098650,-1.159686,0.366217,-0.012329,0.028199,0.975967
172,-1.159686,-3.112840,0.061036,0.007935,0.022827,0.996963
173,-1.342794,-3.845274,-0.244144,-0.007935,0.020874,1.020035
174,0.061036,-4.150454,-0.488289,0.018555,0.028199,0.997452
175,-1.281758,-4.150454,-1.037613,0.011597,0.015381,1.002823
176,-0.671397,-4.028382,-1.159686,0.025147,0.010010,1.019547
177,1.037613,-2.746624,-1.281758,0.008789,0.024781,1.000381
178,-0.061036,-2.258335,-1.464866,0.008545,0.021363,1.002823
179,0.366217,-1.586938,-1.525902,0.007202,0.026001,0.984024
180,-1.464866,-2.014191,-1.159686,0.004639,0.010620,1.001236
181,-0.122072,-1.525902,-1.159686,0.014160,0.019898,0.986831
182,-1.098650,-1.709010,-1.037613,0.006104,0.020508,1.002457
183,-0.976577,-1.892119,-0.976577,0.013916,0.005859,1.000992
184,0.061036,-1.892119,-0.915541,0.008911,0.015381,0.984634
185,-1.098650,-2.563516,-0.854505,0.013306,0.010132,1.000381
186,0.061036,-2.319371,-0.793469,0.007080,0.007446,1.009537
187,0.610361,-2.258335,-0.732433,0.020752,0.004639,1.018448
188,2.319371,-2.014191,-0.427253,0.008179,0.011231,0.994888
189,1.647974,-2.197299,-0.244144,0.009644,0.022339,0.995743
190,1.586938,-2.319371,-0.122072,0.013428,0.022705,0.996109
191,1.281758,-2.319371,-0.244144,0.006226,0.025635,0.979995
192,0.000000,-2.502480,-0.244144,0.018677,0.014038,0.994644
193,0.244144,-2.258335,-0.305180,0.018921,0.010986,1.006729
194,1.281758,-1.281758,-0.793469,0.041505,-0.053223,0.976822
195,1.342794,-0.488289,-0.305180,0.026368,0.009766,0.998917
196,1.586938,-0.122072,0.000000,0.026001,0.035645,0.994522
197,-0.244144,-0.183108,0.488289,0.011841,0.070802,1.026505
198,1.831083,-0.366217,0.061036,0.023316,-0.033570,0.957656
199,0.122072,-0.366217,0.122072,0.018311,0.048951,0.999283
200,0.122072,-0.732433,0.366217,-0.000732,0.016602,0.965713
201,-0.061036,-1.647974,0.488289,0.013428,0.077028,0.974624
202,-4.455634,-2.563516,0.122072,0.010376,0.027710,0.973159
203,-5.249104,-3.723201,-0.183108,0.006592,0.020020,0.958877
204,-5.371176,-4.150454,-0.305180,0.020508,0.039918,0.954849
205,-10.498207,-4.455634,-0.183108,0.014160,0.017823,0.995987
206,-8.850233,-4.821851,0.183108,0.034546,0.001831,1.009293
207,-8.056764,-3.723201,0.427253,0.019532,0.022827,0.972061
208,-11.535821,-3.662165,1.098650,0.029175,0.020386,0.974746
209,-13.061723,-2.685588,1.647974,0.035523,0.012940,0.997574
210,-13.427939,-1.647974,2.075227,0.031128,0.019532,0.981216
211,-14.648661,-0.793469,2.014191,0.036744,-0.011597,0.920912
212,-18.677043,-2.197299,2.014191,-0.004517,0.024537,0.953384
213,-21.667811,-3.845274,1.647974,0.013916,0.029053,0.962905
214,-25.268940,-4.394598,1.647974,0.001709,0.007080,1.004410
215,-25.329976,-5.065995,1.647974,0.014527,-0.006714,1.003067
216,-23.620966,-4.760815,1.709010,0.026001,0.008911,0.983658
217,-28.381781,-4.272526,2.014191,0.033936,-0.004273,0.982437
218,-29.907683,-3.295949,2.746624,0.022583,-0.026246,1.012711
219,-29.968719,-3.418021,3.356985,0.023072,-0.008789,0.974502
220,-31.677729,-4.394598,2.685588,0.022583,0.023072,0.960342
221,-37.964446,-5.920500,1.464866,-0.005615,-0.040162,0.962417
222,-41.138323,-8.850233,0.671397,0.038209,0.020020,1.018936
223,-37.842374,-5.554284,-2.136263,0.091066,0.142702,0.872694
224,-69.642176,-1.342794,-0.244144,-0.009033,0.094972,0.988540
225,-80.079347,-3.418021,-0.488289,0.056886,-0.064576,1.025772
226,-70.130465,1.953155,-1.953155,0.016724,-0.009888,0.988540
227,-77.088579,4.333562,-2.685588,0.009644,-0.022583,1.014420
228,-75.623713,7.446403,-3.051804,-0.032471,-0.041993,1.090349
229,-79.163806,3.662165,-7.141222,-0.076783,-0.144289,0.985245
230,-89.906157,-6.286717,-12.085145,-0.054200,-0.097780,1.056535
231,-88.624399,-8.728161,-14.953841,0.161746,-0.153811,1.151507
232,-60.975052,15.686275,-6.897078,0.174441,-0.322393,0.861341
233,-82.703899,7.751583,-15.136950,0.145144,-0.052979,0.784314
234,-129.884794,8.300908,-1.892119,0.109865,0.070924,0.830091
235,-169.619287,14.160372,7.507439,-0.030030,0.054200,0.862684
236,-195.254444,2.685588,10.498207,-0.034546,0.361700,1.077165
237,-267.154955,-7.629511,7.263294,-0.055665,-0.077028,1.089006
238,-313.786526,-7.751583,0.793469,0.008301,-0.005982,1.173602
239,-364.446479,-22.949569,-3.295949,-0.156130,0.088991,1.945953
240,-435.431449,-63.843748,-25.757229,-0.074708,0.019165,0.801038
241,-511.848631,-68.177310,18.554971,0.279911,-0.570077,1.999969
242,-526.192111,-37.048905,76.417182,-1.432883,-0.057252,1.999969
243,-176.516365,-9.521630,-18.921187,-0.448005,-0.690074,1.999969
244,134.035248,47.425040,-33.142596,-0.649912,0.645029,1.999969
245,36.560616,56.702525,-17.090105,-0.434455,0.514046,1.260883
246,-55.115587,8.178836,16.357671,-0.271611,0.148074,0.868544
247,30.151827,6.225681,9.521630,-0.119631,0.160159,0.623178
248,38.757916,-0.549325,4.394598,-0.011719,0.390387,0.391119
249,-6.042573,1.403830,2.502480,-0.007324,0.285405,0.645884
250,18.860151,20.935378,-7.751583,-0.080812,0.289799,0.758434
251,25.696193,34.729534,-10.986496,-0.171267,0.395880,0.799695
252,24.292363,36.072328,-6.225681,-0.275761,0.326421,0.976699
253,53.894865,29.114214,1.342794,-0.317266,0.324590,1.008804
254,73.182269,12.085145,12.634470,-0.315068,0.344244,1.042496
255,91.676204,-2.319371,22.888533,-0.299809,0.312383,1.165545
256,117.616541,-3.173877,30.334936,-0.273442,0.307622,1.197162
257,135.683223,4.943923,36.316472,-0.246220,0.289555,1.165789
258,151.247425,14.221408,41.016251,-0.215824,0.239628,1.089860
259,165.651942,21.301595,44.739452,-0.168704,0.186648,0.958022
260,171.511406,22.949569,48.157473,-0.117067,0.150393,0.888930
261,175.478752,22.583352,50.354772,-0.075319,0.110109,0.915785
262,178.408484,19.958801,51.453422,-0.041016,0.104005,1.040543
263,184.267948,16.296635,51.148241,0.006836,0.099245,1.240009
264,196.047913,12.756542,48.767834,0.067872,0.108156,1.395529
265,208.621347,13.977264,44.129091,0.117678,0.084840,1.430686
266,219.913024,17.700465,37.476158,0.163943,0.042115,1.377340
267,227.298390,22.156100,29.846647,0.143679,-0.001831,1.326314
268,229.434653,25.391012,23.559930,0.094728,-0.052003,1.350973
269,231.265736,27.832456,19.653620,0.040894,-0.084840,1.424338
270,233.463035,31.677729,16.540780,0.019898,-0.118898,1.510277
271,236.270695,37.842374,13.855192,0.009766,-0.141726,1.552148
272,237.125200,43.579767,10.742351,0.042847,-0.176638,1.540673
273,237.247272,46.021210,6.469825,0.088380,-0.190677,1.535912
274,236.270695,43.030442,0.366217,0.144900,-0.214115,1.547509
275,236.453803,36.621653,-8.239872,0.209110,-0.216190,1.539086
276,235.049973,29.724575,-19.836728,0.267582,-0.223026,1.575830
277,232.486458,27.954528,-33.203632,0.266728,-0.247074,1.605615
278,229.251545,29.663539,-45.838102,0.235721,-0.298955,1.565576
279,224.368658,31.677729,-56.092164,0.131472,-0.317632,1.583398
280,218.448157,31.433585,-60.303655,0.007324,-0.390753,1.565576
281,213.443198,29.053178,-59.632258,-0.096925,-0.458015,1.467674
282,205.508507,24.841688,-56.763561,-0.085573,-0.535531,1.297871
283,187.502861,22.949569,-55.664912,-0.081178,-0.639414,1.139300
284,166.872663,21.667811,-57.801175,-0.101808,-0.732189,1.193133
285,145.265888,23.865110,-62.623026,-0.144411,-0.970596,1.276997
286,133.119707,31.189441,-66.712444,-0.215335,-1.239155,1.243915
287,119.752804,44.129091,-66.102083,-0.257328,-1.571313,0.953384
288,95.948730,55.420768,-55.237659,-0.210697,-1.878935,0.575937
289,59.815366,55.115587,-35.950256,-0.104982,-2.000031,0.293462
290,21.179522,37.659266,-12.268254,-0.115236,-2.000031,-1.055070
291,-61.036088,-44.007019,21.972992,0.038331,-2.000031,-0.471931
292,-119.508660,-111.573968,45.654994,0.404913,-2.000031,-0.074952
293,-158.632792,-142.885481,35.278859,0.611826,-1.962432,0.384161
294,-171.999695,-99.488823,27.100023,0.106081,-0.768811,1.314351
295,-91.859312,-48.218509,13.550011,-0.331426,0.771130,1.999969
296,-120.363165,-39.612421,33.936065,-0.477913,0.966567,1.470726
297,-181.460288,-83.497368,47.913329,0.145632,0.255619,0.247684
298,-225.528344,-83.619440,46.997787,0.273564,-0.172000,0.668223
299,-228.519112,-67.383841,45.532921,0.343267,-0.096681,1.999969
300,-191.287099,-43.945983,39.429313,0.583749,-0.005371,1.999969
301,-121.583886,-24.841688,20.996414,0.556283,-0.073121,1.999969
302,-84.290837,-15.869383,6.713970,0.181888,0.033082,1.312276
303,-93.446250,-11.779965,6.713970,-0.369024,-0.002808,1.262348
304,-82.337682,-11.718929,17.395285,-0.701915,-0.056764,1.237201
305,-76.600290,-16.418708,32.532235,-0.560678,-0.027710,1.094133
306,-70.618753,-28.686961,42.481117,-0.010864,0.002319,0.684092
307,-69.947356,-66.102083,37.842374,0.586313,0.199710,1.539940
308,-59.815366,-55.786984,27.222095,0.402472,0.086915,1.282246
309,-55.115587,-53.223468,21.789883,0.056153,0.161746,1.672511
310,-67.017624,-55.298695,21.484703,0.107424,-0.028443,1.739895
311,-32.349126,-43.884947,11.596857,0.132937,0.041016,1.232197
312,-34.363317,-32.959487,4.577707,0.150759,0.109865,1.264057
313,-50.476844,-27.771420,9.704738,0.085817,0.027344,1.031754
314,-38.086519,-24.475471,2.929732,-0.117189,0.051881,1.027726
315,-42.908370,-28.076600,2.929732,0.068849,0.052857,1.214496
316,-33.508812,-21.179522,0.366217,0.080201,-0.007080,1.074846
317,-26.123445,-17.578393,-2.319371,-0.033082,-0.004150,1.067765
318,-25.879301,-19.409476,1.220722,0.026856,-0.037354,1.109270
319,-15.320058,-17.334249,0.183108,0.067018,0.016968,1.008072
320,-17.151141,-15.930419,-1.220722,0.015259,0.036866,1.067887
321,-15.991455,-14.526589,0.000000,0.031250,-0.019409,1.047257
322,-14.526589,-12.207218,-0.305180,0.065553,-0.002564,0.959243
323,-16.784924,-10.986496,-0.305180,0.039429,0.012207,0.957900
324,-17.700465,-11.169604,0.183108,0.022339,0.074586,1.005264
325,-22.949569,-11.657893,0.671397,0.055299,0.002808,0.958877
326,-22.278172,-10.864424,0.000000,0.036378,0.001465,1.028702
327,-19.226368,-9.826810,0.183108,0.068849,-0.024903,0.972061
328,-20.569162,-8.361944,0.915541,0.014649,0.055909,1.051408
329,-18.493935,-8.178836,0.671397,0.049317,-0.016236,0.995132
330,-18.921187,-7.446403,0.305180,0.033692,0.054444,1.053605
331,-19.958801,-8.422980,-0.488289,0.040894,-0.073976,0.968765
332,-17.395285,-8.056764,-0.488289,0.036744,-0.037354,1.016861
333,-17.883574,-8.789197,-0.793469,0.040650,-0.027588,0.990738
334,-18.493935,-9.399557,-1.281758,0.037720,-0.033936,1.021134
335,-16.906996,-9.582666,-1.647974,0.047486,-0.021851,1.018082
336,-17.029068,-8.667124,-1.647974,0.055421,-0.029541,1.014664
337,-16.174563,-7.873655,-1.098650,0.039185,-0.028321,0.996109
338,-16.174563,-8.178836,-0.854505,0.046632,-0.015991,0.976211
339,-18.310826,-8.789197,-1.098650,0.049439,-0.022339,0.994644
340,-19.409476,-9.460594,-1.831083,0.003418,0.085939,0.894667
341,-20.263981,-9.216449,-0.427253,0.094606,-0.108156,0.890272
342,-15.930419,-4.455634,-0.244144,0.028565,-0.053712,1.014298
343,-17.883574,-7.324331,0.854505,0.099001,-0.060304,1.053239
344,-16.845960,-4.943923,1.586938,0.036378,-0.073121,0.973281
345,-15.686275,-6.469825,2.685588,0.067384,-0.044434,0.953750
346,-19.531548,-5.188067,2.563516,0.091432,-0.058717,1.008927
347,-17.395285,-3.601129,1.892119,0.065553,-0.047974,1.032120
348,-20.263981,-3.112840,1.525902,0.070314,-0.049439,0.994766
349,-20.935378,-2.258335,0.671397,0.069215,-0.065187,0.978775
350,-22.522316,-2.258335,0.488289,0.080323,-0.085328,1.005142
351,-23.315785,-1.464866,0.793469,0.100954,-0.076905,1.037980
352,-23.498894,-0.061036,0.244144,0.061036,-0.064942,1.036027
353,-26.611734,1.953155,0.732433,0.141238,0.144900,1.122820
354,-27.405203,2.746624,-2.197299,0.014771,-0.177859,1.077287
355,-19.836728,1.037613,-1.464866,0.095338,-0.066041,1.020890
356,-32.288090,3.356985,1.770047,0.123293,-0.062745,0.963882
357,-30.029755,10.803388,5.371176,0.088014,-0.080079,1.024308
358,-42.114900,11.352712,7.568475,0.102296,-0.086549,1.046891
359,-40.100710,15.259022,8.728161,0.046387,-0.065919,1.005020
360,-46.997787,15.442130,6.591897,0.053834,-0.051759,0.988418
361,-52.918288,16.906996,4.394598,0.035523,-0.073121,1.033219
362,-54.261082,17.029068,3.112840,0.000366,-0.143435,1.045670
363,-42.175937,13.916228,2.197299,-0.144900,-0.038819,1.024430
364,-33.630884,3.662165,-15.808347,-0.090211,-0.135378,0.963882
365,-32.593271,3.418021,-19.592584,0.094484,-0.214115,1.028946
366,-32.837415,5.065995,-13.672084,0.213138,-0.194339,1.071672
367,-30.273899,8.972305,0.000000,0.165896,-0.117189,1.083146
368,-41.504540,16.174563,6.164645,0.063355,0.128786,0.927382
369,-95.582513,25.329976,-9.155413,0.055177,0.278569,0.966201
370,-150.576028,30.029755,-8.667124,0.074708,0.152224,0.834119
371,-167.360952,13.366903,9.277485,-0.380865,0.051881,0.601694
372,-190.859846,-9.887846,8.484016,-0.105470,0.277592,0.695933
373,-235.538262,-35.339895,-21.240558,-0.130861,0.302739,1.174090
374,-413.824674,-105.104143,-24.170291,-0.616831,0.277592,1.065934
375,-590.768292,-225.589380,16.418708,-0.419562,0.085451,1.791409
376,-702.830549,-250.919356,14.526589,0.218021,0.175784,1.237446
377,-770.092317,-219.363699,35.706111,0.481331,-0.500984,1.611353
378,-1004.531930,-197.085527,160.830091,-0.835584,-0.067262,1.999969
379,-273.197528,-10.925460,83.009079,-0.818250,-0.503670,1.999969
380,314.152743,53.528649,-55.848020,-0.176394,0.418219,1.999969
381,286.747539,81.544213,-58.106355,0.038331,1.012467,1.092180
382,109.193561,4.455634,-6.530861,-0.328496,0.647715,0.147707
383,-39.368276,-60.669871,17.090105,0.030762,0.173342,-0.012573
384,20.202945,-45.410849,8.056764,0.076173,0.227543,0.507698
385,99.794003,-4.150454,-18.432898,0.132082,0.388556,0.617197
386,78.675517,15.197986,-26.672770,0.069703,0.516732,0.652720
387,68.177310,8.484016,-32.227054,0.025391,0.394171,0.844251
388,108.278019,3.051804,-39.307240,0.012696,0.430304,0.997940
389,132.875563,-2.075227,-43.945983,0.040162,0.494392,1.052995
390,141.725795,4.577707,-48.889906,0.039551,0.438605,1.161639
391,166.750591,24.658579,-53.528649,-0.041627,0.352667,1.122087
392,188.845655,43.213550,-55.359731,-0.109865,0.262943,0.979629
393,200.625620,54.627298,-50.537881,-0.130617,0.167971,0.872694
394,209.781033,60.364691,-41.931792,-0.141482,0.098756,0.873671
395,220.706493,63.355459,-31.311513,-0.101564,0.097780,0.989761
396,230.289158,64.148928,-21.606775,-0.041138,0.089723,1.160052
397,242.130159,64.576181,-13.000687,0.054566,0.082887,1.307271
398,261.356527,65.796902,-8.667124,0.176761,0.036866,1.218647
399,273.563745,66.285191,-8.484016,0.297490,-0.009766,1.052995
400,269.230182,67.750057,-11.474784,0.395270,-0.120119,0.846693
401,258.854047,72.205692,-16.845960,0.468025,-0.180545,0.845472
402,245.120928,75.928893,-22.888533,0.502571,-0.191531,0.970352
403,234.378576,73.853666,-30.334936,0.507088,-0.178592,1.106828
404,229.007401,70.374609,-37.964446,0.460456,-0.131594,1.301900
405,215.762570,72.877089,-42.664225,0.404425,-0.148684,1.668849
406,206.851301,76.844434,-43.579767,0.303349,-0.232059,1.999969
407,219.607843,77.210651,-42.359045,0.216922,-0.383673,1.999969
408,236.209659,79.652094,-39.795529,0.175662,-0.529305,1.999969
409,234.866865,83.131151,-34.790570,0.123903,-0.636362,1.999969
410,228.213931,83.985657,-27.222095,0.031983,-0.724132,1.999969
411,235.599298,80.323491,-17.700465,-0.049928,-0.812512,1.999969
412,255.680171,77.454795,-8.056764,-0.039918,-0.868544,1.999969
413,261.661707,76.661326,-0.488289,0.073854,-0.882216,1.779080
414,248.599985,77.332723,3.234913,0.182620,-0.883192,1.577539
415,235.416190,77.821012,2.136263,0.297124,-0.883680,1.554589
416,223.941405,79.163806,-0.610361,0.295537,-0.940322,1.518822
417,213.015946,77.943084,-1.403830,0.179690,-1.077287,1.438132
418,200.564584,75.806821,1.770047,0.050782,-1.300313,1.240864
419,180.300603,74.341955,8.728161,-0.025635,-1.608057,0.988174
420,153.871977,76.844434,15.625238,0.041871,-1.931670,0.774060
421,120.912490,80.323491,20.019837,0.295415,-2.000031,0.448615
422,83.558404,82.093538,16.540780,0.474861,-2.000031,0.131228
423,50.354772,77.576867,18.188754,0.420417,-2.000031,-0.119020
424,5.615320,43.518730,34.058137,0.259037,-1.953521,-0.175296
425,-36.499580,-14.770733,51.941711,0.190433,-1.611963,0.199466
426,-55.481804,-55.542840,63.904784,0.171878,-1.072892,0.288823
427,-192.141604,-41.748684,23.865110,0.908705,-1.705959,-0.666514
428,-168.215457,-33.875029,27.710384,-0.246952,-0.418341,0.806165
429,-126.283665,-72.144656,28.625925,-0.212039,0.839979,1.830961
430,-123.170825,-68.665599,24.048219,-0.179934,0.935073,1.337423
431,-209.781033,-55.237659,34.912642,-0.302129,0.203738,-0.002686
432,-267.948425,-79.163806,47.974365,-0.031373,-0.327764,0.541878
433,-256.107424,-79.102770,52.368963,0.608652,-0.152834,1.999969
434,-215.152209,-34.424353,39.978637,0.812268,-0.073854,1.999969
435,-139.040208,-19.958801,18.799115,0.677501,-0.161379,1.999969
436,-104.859998,1.159686,10.193027,0.251469,0.082765,1.616602
437,-114.991989,9.643702,9.826810,-0.232547,0.017212,1.442527
438,-96.620127,10.437171,15.320058,-0.543465,-0.031250,1.056779
439,-89.295796,6.164645,27.954528,-0.593515,-0.083009,0.519783
440,-124.452583,-48.889906,44.190127,-0.255009,-0.076173,1.428489
441,-83.985657,-71.412222,40.283818,0.377813,0.151003,1.999969
442,-63.111315,-53.833829,11.169604,1.054582,0.000244,1.999969
443,-8.545052,-4.211490,-2.258335,0.043580,0.061158,0.931411
444,-42.053864,-17.639429,-4.394598,-0.476692,0.106813,1.112810
445,-69.825284,-46.326390,8.484016,0.270146,-0.053834,1.151751
446,-34.851606,-20.325017,-1.098650,0.218875,0.019287,1.116716
447,-50.598917,-14.831769,0.244144,-0.125490,-0.010986,0.937514
448,-57.129778,-17.517357,2.441444,0.094728,-0.067750,1.313985
449,-27.832456,-6.408789,-1.342794,0.129519,0.015381,1.228534
450,-27.405203,0.366217,-0.122072,0.015503,0.004761,1.068376
451,-24.231327,0.793469,0.793469,0.026123,-0.020142,1.097673
452,-17.273213,2.258335,0.000000,0.044556,0.014771,1.011368
453,-20.752270,1.647974,0.732433,-0.026490,-0.012085,0.986831
454,-17.273213,-1.709010,0.549325,-0.014771,-0.005615,0.991714
455,-17.883574,-4.577707,0.122072,-0.025391,0.011231,0.979019
456,-20.263981,-6.897078,0.061036,-0.008301,-0.000122,0.987320
457,-19.836728,-7.568475,0.061036,0.017212,-0.019776,1.008927
458,-19.104295,-7.080186,0.793469,-0.036744,0.035889,1.095232
459,-17.700465,-7.385367,2.441444,0.027222,-0.006592,0.947402
460,-23.071641,-8.606088,3.356985,0.003662,0.002930,0.966323
461,-27.588312,-9.643702,3.479057,0.004639,-0.042847,1.028214
462,-23.559930,-9.094377,3.418021,0.019165,-0.055787,1.052140
463,-17.761501,-8.056764,2.746624,0.008789,-0.032227,1.024674
464,-17.334249,-8.117800,2.319371,0.016968,-0.051514,1.002579
465,-14.221408,-8.117800,1.647974,0.002075,-0.038209,0.999771
466,-13.122759,-8.728161,0.549325,0.024292,-0.049683,0.960342
467,-13.977264,-9.277485,0.122072,0.016724,-0.034668,1.017227
468,-13.977264,-9.338521,-0.122072,0.022950,-0.050538,1.005509
469,-13.000687,-8.728161,0.061036,0.023438,-0.025635,1.032120
470,-12.268254,-8.117800,0.366217,0.026978,-0.046876,1.014176
471,-11.169604,-7.934691,0.244144,0.015747,-0.046387,1.008194
472,-10.376135,-7.507439,0.305180,0.044190,-0.053101,1.024308
473,-9.460594,-6.652934,0.549325,0.036744,-0.038819,1.019547
474,-8.789197,-6.103609,0.427253,0.031495,-0.044068,1.003799
475,-9.338521,-5.432212,0.244144,0.042115,-0.049683,1.010147
476,-9.460594,-4.455634,0.244144,0.036255,-0.057740,1.006607
477,-9.704738,-3.906310,0.549325,0.048096,-0.056031,0.989029
478,-12.451362,-3.479057,0.732433,0.062013,-0.051026,0.939467
479,-12.207218,-3.845274,0.549325,0.032105,-0.032349,0.982925
480,-13.427939,-3.723201,0.366217,0.051637,-0.038819,0.979751
481,-17.883574,-2.807660,0.976577,0.052247,-0.064820,1.003799
482,-15.869383,-1.281758,1.342794,0.046265,-0.065187,1.020279
483,-16.479744,-0.488289,1.709010,0.042359,-0.062745,1.007218
484,-18.249790,-0.061036,1.831083,0.030396,-0.081666,0.990860
485,-16.601816,-0.183108,2.014191,0.034058,-0.074220,0.993668
486,-17.029068,-0.915541,1.892119,0.026490,-0.071656,0.985367
487,-19.043259,-2.014191,1.770047,0.015015,-0.072267,0.986709
488,-18.677043,-3.662165,1.220722,0.018677,-0.054200,0.972549
489,-21.728847,-4.943923,0.854505,0.021485,-0.054688,0.995254
490,-22.705425,-5.554284,1.647974,0.033692,-0.102419,0.958999
491,-23.254749,-4.455634,2.441444,0.072145,-0.079591,1.040299
492,-24.963760,0.366217,4.760815,0.068971,-0.082765,0.990860
493,-31.433585,2.258335,6.713970,0.052491,-0.102419,1.005997
494,-29.175250,3.173877,6.713970,0.034546,-0.071901,1.012955
495,-31.433585,3.540093,5.249104,0.030030,-0.065431,0.983536
496,-36.865797,2.624552,3.234913,0.031983,-0.080079,0.955825
497,-38.696880,1.647974,0.793469,0.008911,-0.065553,0.987320
498,-40.772107,1.342794,-2.319371,0.004273,-0.096071,0.933120
499,-40.222782,0.244144,-3.540093,-0.030884,-0.106935,1.037369
500,-42.175937,2.990768,-8.728161,0.020752,-0.100832,1.061051
501,-43.640803,0.488289,-13.122759,-0.000366,-0.143069,1.026993
502,-43.884947,0.122072,-13.733120,-0.031739,-0.204959,0.995621
503,-51.880674,2.746624,-12.329290,0.124514,-0.244633,1.078630
504,-45.105669,5.554284,-3.173877,0.177737,-0.276005,1.099504
505,-35.645075,9.887846,-2.258335,0.106813,-0.214359,1.032364
506,-26.916915,11.657893,-2.868696,0.038331,0.152712,0.942031
507,-75.074388,17.334249,-23.071641,0.115724,0.226810,0.910170
508,-140.932326,24.414435,-21.911955,0.020020,0.349493,0.601205
509,-192.568856,17.700465,-7.690547,-0.239384,0.115724,0.935195
510,-215.701534,-11.718929,9.948882,-0.119997,0.783703,1.000748
511,-324.223697,-30.762188,-22.522316,0.013672,0.432502,1.752102
512,-515.205615,-59.632258,12.878614,-0.450446,-0.060426,1.171038
513,-617.685206,-141.054398,44.129091,-0.370367,-0.153323,0.914076
514,-692.576486,-187.197681,58.045319,0.110231,-0.331182,1.236225
515,-751.293202,-194.644083,77.698940,0.526741,-0.756847,1.124651
516,-924.574655,-221.377890,161.562524,-0.949722,-0.755383,1.999969
517,-310.063325,-88.563363,71.778439,-0.253544,-0.356207,1.999969
518,191.897459,-6.713970,-48.950942,0.025879,0.617563,1.999969
519,140.749218,65.857939,-70.984970,0.112917,1.129046,1.999969
520,-7.934691,14.587625,-20.630198,-0.485481,0.797620,1.533837
521,-36.072328,-20.752270,2.685588,-0.273930,0.292973,1.327535
522,90.150301,2.563516,-4.333562,-0.229740,0.195560,0.873304
523,127.443351,10.742351,-4.577707,-0.066773,0.430304,0.513924
524,83.558404,6.469825,-1.709010,-0.007568,0.369757,0.665904
525,101.075761,10.742351,-6.164645,0.019898,0.275395,0.843885
526,141.969940,11.963073,-13.733120,0.030274,0.339727,0.830945
527,147.707332,0.427253,-16.601816,0.037720,0.346685,0.883680
528,160.524910,-7.202258,-20.080873,0.025147,0.279789,1.047990
529,188.052186,-5.981537,-25.574121,0.017700,0.250248,1.061906
530,203.311208,-0.610361,-30.212863,0.004761,0.214847,1.033219
531,213.748379,9.033341,-33.325704,-0.036622,0.141848,1.042863
532,229.190509,20.080873,-35.645075,-0.083009,0.071656,1.043107
533,241.336690,28.686961,-34.424353,-0.113771,0.026001,1.012589
534,249.515526,33.081559,-31.433585,-0.123049,-0.024903,1.090593
535,259.403372,34.729534,-27.344167,-0.101564,-0.052491,1.204852
536,270.267796,36.804761,-23.865110,-0.033814,-0.060304,1.346334
537,281.559472,38.269627,-22.583352,0.053590,-0.079835,1.453880
538,292.607004,42.725261,-26.123445,0.161624,-0.180789,1.332174
539,293.766690,55.237659,-34.790570,0.255253,-0.364263,0.985733
540,276.615549,74.586099,-44.617380,0.315923,-0.506477,0.653819
541,248.294804,89.295796,-51.819638,0.314824,-0.489754,0.709728
542,218.448157,84.107729,-56.031128,0.292363,-0.439338,0.883558
543,205.630579,70.984970,-59.510185,0.311650,-0.350469,1.245869
544,189.028763,60.975052,-62.073701,0.264164,-0.226200,1.999969
545,183.169299,57.618067,-61.402304,0.221317,-0.349371,1.999969
546,224.551766,71.046006,-63.050278,0.156008,-0.567269,1.999969
547,255.191882,85.816739,-62.561990,0.079591,-0.630869,1.999969
548,239.261463,84.718090,-52.857252,-0.004395,-0.701671,1.999969
549,240.787366,77.149615,-41.260395,-0.035157,-0.792615,1.999969
550,261.844816,76.295109,-32.349126,0.019532,-0.812390,1.999969
551,261.600671,81.544213,-24.963760,0.073854,-0.826673,1.807523
552,249.149310,85.450523,-20.813306,0.155398,-0.851209,1.590967
553,235.477226,90.882734,-21.606775,0.233524,-0.889540,1.485252
554,216.739147,97.840848,-23.865110,0.207523,-0.988052,1.444846
555,199.160754,99.977111,-23.682002,0.122438,-1.179583,1.372213
556,184.267948,96.803235,-18.921187,0.033936,-1.453758,1.257710
557,162.233921,88.929580,-9.094377,0.128786,-1.814359,1.194598
558,132.509346,85.877775,-4.699779,0.366339,-2.000031,1.165667
559,113.466087,102.418555,-5.004959,0.564218,-2.000031,0.887953
560,113.771267,129.701686,-14.526589,0.498177,-2.000031,0.113283
561,81.666285,121.705959,-7.324331,0.297734,-2.000031,-0.694469
562,2.990768,58.472572,17.639429,0.057252,-1.915190,-0.729625
563,-57.679103,-24.902724,40.100710,-0.186404,-2.000031,-2.000031
564,-165.957122,-159.121080,76.539254,0.154055,-1.391623,-0.490852
565,-225.223163,-202.334630,75.196460,0.521736,-1.252583,0.595224
566,-125.062943,-108.400092,61.524376,-0.027832,0.256718,1.787625
567,-131.044480,-62.806134,69.398032,-0.433967,0.741466,1.451804
568,-211.184863,-97.901884,93.995575,0.243656,0.563485,0.675914
569,-274.784466,-110.048066,87.037461,0.762585,-0.307256,0.774670
570,-248.355840,-80.079347,75.440604,1.043839,-0.194949,1.828641
571,-238.529030,-68.421454,54.932479,1.563134,-0.115236,1.999969
572,-180.666819,-43.457694,20.630198,1.256001,-0.096559,1.999969
573,-124.208438,-8.545052,-5.004959,0.218387,-0.097414,1.537377
574,-136.842908,6.775006,1.647974,-0.715221,-0.212284,1.237812
575,-165.346761,-35.706111,36.560616,-0.879652,-0.079591,1.999969
576,-116.762036,-66.712444,25.268940,0.578134,-0.596445,1.999969
577,1.953155,-29.724575,0.976577,0.815198,0.220462,1.638209
578,-72.388800,-16.723888,3.540093,-0.325200,-0.035035,0.809705
579,-81.788357,-42.664225,14.160372,-0.268315,0.052125,1.347311
580,-50.354772,-44.800488,1.098650,0.209110,-0.134646,1.115984
581,-32.410163,-31.860838,-5.004959,0.062013,0.060182,1.212909
582,-44.922560,-32.715343,-2.258335,-0.039796,-0.083864,1.059220
583,-25.635157,-31.433585,-4.516670,0.053223,-0.045533,1.209369
584,-16.968032,-25.818265,-5.737392,0.100221,-0.040894,1.093034
585,-23.804074,-21.362631,-1.892119,-0.024414,-0.017700,1.099260
586,-11.108568,-18.371862,2.075227,0.154177,-0.033082,1.112932
587,-7.080186,-8.789197,1.831083,0.104616,-0.059449,1.079362
588,-11.230640,-6.652934,3.051804,0.038453,-0.104372,1.072404
589,-3.723201,-4.333562,2.746624,0.076661,-0.088869,1.034318
590,-5.065995,-2.868696,2.685588,0.040772,-0.009522,0.970962
591,-5.737392,-3.540093,1.831083,0.034913,0.039063,1.010513
592,-9.826810,-5.127031,0.671397,0.008789,-0.029786,1.012833
593,-6.408789,-6.286717,0.061036,0.056764,-0.065309,1.033097
594,-6.225681,-4.577707,0.000000,0.055543,-0.079957,0.999039
595,-4.150454,-3.906310,0.244144,0.060914,-0.028321,1.031022
596,-3.967346,-2.441444,0.671397,0.075074,-0.055299,1.003311
597,-4.150454,-1.342794,0.976577,0.057496,-0.050660,1.014786
598,-4.150454,-0.793469,1.403830,0.058350,-0.035767,1.005997
599,-2.807660,-0.244144,1.220722,0.060670,-0.034302,0.994034
600,-4.699779,0.000000,1.037613,0.034913,-0.016358,0.999649
601,-5.065995,-0.854505,0.549325,0.029297,-0.024903,0.982071
602,-5.432212,-2.258335,-0.366217,0.022095,-0.014282,0.983413
603,-8.850233,-3.967346,-0.732433,0.041138,-0.048585,0.975357
604,-8.056764,-4.394598,-0.793469,0.036255,-0.024903,0.986831
605,-11.230640,-4.821851,-0.732433,0.043824,-0.053712,1.009659
606,-8.545052,-4.516670,-0.793469,0.061646,-0.064576,1.017838
607,-7.324331,-3.479057,-0.549325,0.085328,-0.044190,0.981216
608,-8.911269,-2.685588,0.183108,0.058961,-0.048341,1.003799
609,-6.652934,-2.075227,0.366217,0.067994,-0.053834,0.987564
610,-9.460594,-2.258335,0.488289,0.052613,-0.050416,0.974746
611,-10.864424,-2.807660,0.793469,0.062867,-0.065675,0.985977
612,-10.986496,-2.807660,0.976577,0.040650,-0.042969,0.973892
613,-13.550011,-3.540093,1.403830,0.057618,-0.060426,0.996963
614,-13.122759,-3.295949,1.403830,0.051026,-0.061524,0.982193
615,-12.329290,-3.845274,1.464866,0.073243,-0.055421,1.046281
616,-15.320058,-1.647974,1.220722,0.076661,-0.075807,1.007584
617,-13.611048,-0.305180,0.488289,0.065797,-0.062867,0.997574
618,-17.334249,1.037613,0.793469,0.064210,-0.075563,1.014664
619,-15.869383,2.014191,1.342794,0.054932,-0.086183,1.015885
620,-14.526589,2.380407,1.342794,0.055421,-0.055543,0.990982
621,-17.761501,1.831083,1.037613,0.040284,-0.065675,0.990738
622,-17.883574,0.976577,0.854505,0.054322,-0.030884,0.996963
623,-21.728847,0.915541,0.183108,0.030152,-0.049317,0.959243
624,-25.329976,-0.183108,-0.549325,0.063233,-0.063233,0.981582
625,-31.982910,5.065995,1.342794,0.221927,0.127932,0.823377
626,-34.058137,2.685588,-0.122072,0.088624,-0.068238,1.105364
627,-29.968719,4.089418,0.732433,0.009277,-0.040406,1.253437
628,-27.222095,5.310140,3.356985,0.053223,-0.152346,0.979141
629,-26.794842,6.958114,5.554284,0.133181,-0.079225,0.992813
630,-43.396658,10.131991,7.812619,-0.003418,-0.078981,1.008927
631,-40.222782,8.789197,5.371176,0.028809,-0.092653,1.004410
632,-42.053864,8.300908,2.563516,0.016236,-0.059571,0.981827
633,-50.110628,8.667124,0.488289,0.058228,-0.134035,1.045060
634,-44.373236,10.131991,-3.173877,0.019532,-0.157473,1.048112
635,-40.161746,12.939651,-7.324331,0.010132,-0.209964,1.040299
636,-37.354086,8.545052,-10.742351,-0.079225,-0.169070,1.030167
637,-31.738766,7.751583,-18.738079,0.055177,-0.272221,1.058244
638,-17.578393,9.094377,-10.131991,0.152224,-0.247684,0.981949
639,-11.596857,10.193027,1.342794,0.150271,-0.240726,1.125017
640,-11.291676,14.465553,13.061723,0.046632,-0.202029,1.064591
641,-24.963760,22.583352,11.291676,-0.055543,0.165042,0.971939
642,-82.764935,26.184482,-2.868696,-0.002930,0.179080,0.960220
643,-134.645609,24.414435,2.563516,0.009155,0.374395,0.826184
644,-196.047913,18.677043,6.286717,-0.167849,0.362921,0.673716
645,-211.306935,-15.564202,19.409476,-0.276738,0.705455,0.620371
646,-299.992371,-44.068055,-2.197299,-0.059815,0.476204,1.443992
647,-489.936675,-57.801175,12.756542,-0.105348,0.047120,1.417502
648,-636.362249,-120.912490,49.866484,-0.245487,-0.006592,1.598657
649,-712.779431,-148.867018,46.997787,0.198978,-0.100099,1.425681
650,-789.990082,-130.678264,54.077974,0.288090,0.177859,1.002213
651,-908.644236,-126.100557,60.242618,1.999969,-2.000031,1.999969
652,-835.095750,-80.689708,134.462501,0.265751,-0.935195,1.999969
653,151.796750,15.686275,-95.216297,0.285283,-0.337530,1.999969
654,436.346990,51.148241,-103.334096,-0.257694,0.920180,1.999969
655,282.719158,17.761501,-119.142443,-0.291630,0.879408,0.967788
656,103.089952,-40.955215,-53.650721,-0.613901,0.452644,0.021851
657,19.104295,-71.900511,-32.715343,-0.353765,-0.032959,0.031617
658,101.564050,-41.565576,-36.316472,-0.395026,-0.061769,0.161990
659,148.195621,-22.888533,-36.316472,-0.339971,0.280156,0.230838
660,98.512245,-23.071641,-26.306554,-0.284794,0.332525,0.547127
661,93.995575,-22.888533,-21.606775,-0.228885,0.285405,1.135149
662,146.425574,-16.296635,-24.597543,-0.164920,0.383795,1.440818
663,180.727855,-12.573434,-27.283131,-0.089479,0.474983,1.647730
664,205.386435,-5.004959,-32.410163,-0.024537,0.390021,1.731228
665,249.027237,14.892805,-40.772107,-0.012818,0.254154,1.566918
666,282.169833,34.302281,-47.425040,-0.026368,0.136233,1.266133
667,293.034257,45.044633,-49.011978,-0.026001,-0.028199,0.957534
668,301.701381,50.415808,-48.889906,0.016358,-0.105470,0.758068
669,302.555886,51.392386,-48.157473,0.048951,-0.121706,0.708629
670,292.729076,53.833829,-50.110628,0.148562,-0.233524,0.590585
671,286.381323,54.627298,-51.697566,0.133059,-0.224979,0.440803
672,259.525444,46.997787,-54.077974,0.106691,-0.310185,0.485359
673,231.204700,60.242618,-52.552071,0.130129,-0.344610,0.909194
674,214.297704,74.586099,-52.674144,0.307256,-0.222171,1.394430
675,217.776761,86.976425,-63.233387,0.414191,-0.158572,1.695827
676,225.650416,106.019684,-71.534295,0.296635,-0.180301,1.930449
677,221.316854,121.095598,-70.679789,0.131472,-0.325078,1.999969
678,229.068437,121.828031,-61.890593,-0.009033,-0.580209,1.999969
679,249.210346,118.471046,-48.889906,0.026246,-0.699718,1.999969
680,249.759670,110.719463,-36.316472,0.133791,-0.700694,1.999969
681,237.613489,96.681163,-26.977951,0.215946,-0.702037,1.999969
682,255.191882,91.920348,-22.156100,0.243534,-0.900282,1.999969
683,301.274128,104.432746,-23.987182,0.364141,-0.962417,1.922271
684,284.794385,112.062257,-22.278172,0.661143,-0.811658,1.576806
685,253.971160,101.380941,-22.095064,0.715465,-0.810925,1.772976
686,261.844816,81.422141,-25.391012,0.730480,-0.810315,1.842069
687,260.074769,61.219196,-27.649348,0.640757,-0.888808,1.732815
688,247.379263,46.753643,-29.480430,0.400031,-1.142840,1.522972
689,234.500649,42.786297,-30.640116,0.145754,-1.471946,1.248310
690,204.837110,49.195087,-29.358358,0.055665,-1.848295,0.915297
691,162.539101,66.773480,-31.128405,0.267216,-2.000031,0.667247
692,115.846494,95.948730,-42.908370,0.501350,-2.000031,0.583993
693,86.366064,133.669032,-50.171664,0.463020,-2.000031,0.269413
694,58.777752,135.622187,-38.635843,0.211917,-2.000031,-0.134035
695,9.704738,79.835203,-2.075227,-0.030518,-2.000031,-0.302983
696,-31.311513,-9.094377,37.354086,0.001221,-1.627222,0.103761
697,-99.122606,-94.911116,60.181582,0.076539,-1.777371,-1.139300
698,-224.185550,-172.793164,79.285878,0.576547,-1.487327,0.075807
699,-204.104677,-117.128252,74.952316,0.287114,-0.434333,1.494530
700,-116.945144,-77.210651,60.669871,-0.044068,0.700206,1.999969
701,-120.729381,-71.412222,67.505913,0.313359,0.948867,1.158099
702,-198.367285,-83.924620,58.045319,0.687999,0.268315,-0.180667
703,-261.600671,-79.896239,52.368963,0.761852,-0.103029,0.671519
704,-279.911498,-61.341268,46.021210,0.964858,-0.023438,1.999969
705,-221.255818,-23.315785,23.987182,0.940566,-0.219608,1.999969
706,-142.214084,7.873655,1.342794,0.385870,-0.258915,1.843046
707,-108.583200,16.968032,-5.371176,-0.491463,-0.148074,1.441062
708,-131.288624,3.601129,17.090105,-1.173480,-0.249882,1.428977
709,-127.565423,-44.312200,53.406577,-0.983291,-0.145388,1.512596
710,-95.521477,-89.967193,57.801175,0.041016,-0.146853,1.278950
711,-66.041047,-99.244678,34.729534,1.436912,0.335576,1.999969
712,-49.195087,-36.377508,-1.098650,0.811902,-0.076051,1.728298
713,-28.320745,-11.474784,-5.493248,-0.429084,0.126467,1.163470
714,-58.777752,-48.706798,7.568475,-0.077638,-0.015259,1.184466
715,-30.701152,-42.603189,-0.793469,0.478157,-0.000732,1.329976
716,-37.476158,-20.935378,1.586938,0.099733,0.080446,1.209003
717,-38.208591,-18.982223,0.915541,-0.112184,-0.048829,0.992813
718,-23.804074,-21.362631,-2.014191,0.162478,0.056275,1.066789
719,-36.560616,-13.916228,2.136263,0.112551,-0.021485,1.082902
720,-25.513085,-7.629511,1.342794,0.063966,0.016968,1.074113
721,-28.747997,-3.112840,1.586938,0.074830,0.007935,1.037736
722,-27.527276,0.610361,1.892119,0.078004,-0.019776,1.057633
723,-25.207904,3.051804,1.037613,0.054932,-0.014527,1.027970
724,-24.902724,3.967346,-2.014191,0.051514,-0.075563,1.070817
725,-22.827497,1.709010,1.831083,0.003906,-0.031006,0.986465
726,-21.850919,-0.732433,1.892119,0.012940,-0.010010,0.997452
727,-23.804074,-2.319371,1.525902,0.023072,-0.023316,1.008560
728,-22.766461,-2.685588,1.709010,0.042969,-0.057862,1.026139
729,-17.090105,-1.159686,1.342794,0.036866,-0.037964,1.029191
730,-16.296635,0.061036,1.647974,0.041505,-0.026978,1.017472
731,-16.784924,1.586938,0.793469,0.082399,-0.127810,0.873548
732,-16.235599,1.647974,1.464866,0.053834,-0.030396,1.039200
733,-17.334249,2.258335,2.502480,0.043946,-0.046509,1.012222
734,-14.770733,2.441444,2.197299,0.021851,-0.037354,0.979995
735,-16.723888,1.403830,2.136263,0.025269,-0.024292,0.980484
736,-19.592584,0.976577,2.014191,0.039307,-0.036011,1.021988
737,-19.287404,1.464866,1.342794,0.017700,-0.040162,0.981827
738,-21.850919,0.793469,1.464866,0.056641,-0.039063,0.998917
739,-23.315785,2.441444,1.770047,0.032471,-0.055421,1.022232
740,-21.667811,2.868696,2.075227,0.042359,-0.066773,1.013321
741,-21.789883,3.601129,2.258335,0.019898,-0.063478,1.004654
742,-22.888533,2.441444,2.258335,-0.006958,-0.064454,1.081193
743,-20.447089,2.929732,1.770047,0.003052,-0.081666,0.997818
744,-20.202945,0.976577,1.342794,0.032959,-0.066285,1.021866
745,-21.179522,0.183108,1.037613,0.011353,-0.080812,1.015640
746,-18.310826,-0.976577,0.732433,0.024414,-0.083497,1.004776
747,-18.310826,-1.953155,0.305180,0.030640,-0.098512,1.006607
748,-16.968032,-2.197299,0.061036,0.035401,-0.118044,1.052750
749,-13.305867,-0.610361,0.366217,0.052613,-0.127077,1.048844
750,-9.948882,0.915541,0.488289,0.013550,-0.103883,1.010025
751,-8.178836,0.671397,0.183108,0.036255,-0.091554,1.009171
752,-8.606088,0.183108,0.000000,0.018677,-0.081666,0.985367
753,-10.498207,0.000000,-0.305180,0.017578,-0.060060,0.977798
754,-15.808347,-0.549325,-0.244144,0.020020,-0.075196,0.966201
755,-17.883574,-1.342794,-0.549325,0.020752,-0.075807,0.977554
756,-22.461280,-2.136263,0.000000,0.034058,-0.102907,1.015396
757,-20.202945,-1.831083,0.000000,0.028565,-0.099245,0.988052
758,-22.095064,-2.136263,0.671397,0.034791,-0.094850,0.976577
759,-27.466239,-0.244144,2.685588,0.050904,-0.130251,1.028580
760,-23.743038,1.159686,3.356985,0.055909,-0.117678,0.988663
761,-26.611734,4.089418,5.798428,0.045777,-0.124758,1.026749
762,-28.564889,5.615320,8.850233,0.044068,-0.146975,1.014176
763,-25.818265,7.751583,10.498207,0.023560,-0.132815,1.022599
764,-29.175250,7.568475,10.864424,0.018799,-0.133913,1.018570
765,-27.893492,7.202258,10.070954,-0.009522,-0.111574,1.011734
766,-26.062409,5.737392,6.591897,-0.028809,-0.119387,0.965469
767,-25.879301,2.502480,3.723201,-0.021363,-0.109010,1.011002
768,-27.771420,0.854505,0.671397,-0.021485,-0.076661,0.956069
769,-30.701152,-1.586938,-2.014191,-0.001831,-0.123415,1.013809
770,-26.489662,-0.427253,-2.136263,-0.057130,-0.092897,1.085466
771,-30.334936,-5.798428,-13.427939,-0.036133,-0.197024,0.981094
772,-39.429313,-8.239872,-21.850919,0.063233,-0.251835,0.997452
773,-31.433585,-3.662165,-8.545052,0.083864,-0.251591,0.994766
774,-25.268940,-2.685588,-4.821851,0.065431,-0.185428,1.083879
775,-24.048219,-3.051804,-8.972305,0.076051,-0.222171,1.047868
776,-24.109255,-0.732433,-5.920500,0.061036,-0.082155,1.022721
777,-43.274586,4.821851,-10.864424,0.024048,0.039307,0.946914
778,-76.234073,4.943923,-11.657893,0.065919,0.112795,0.921035
779,-108.644236,9.643702,-13.427939,0.012818,0.195804,0.652842
780,-125.612268,2.807660,-20.019837,0.015991,0.311650,0.714855
781,-171.084154,-11.169604,-28.381781,-0.032471,0.794934,1.209003
782,-324.406806,-17.761501,-48.157473,-0.034791,0.461311,1.709377
783,-515.266651,-20.874342,-12.146181,-0.219486,0.087404,1.253559
784,-597.055009,-68.299382,29.053178,-0.411383,-0.023316,1.019913
785,-698.069734,-139.650568,44.495308,-0.171511,-0.329595,1.454002
786,-760.631724,-191.287099,66.651408,-0.064942,-0.357427,0.748058
787,-950.087739,-220.462348,172.915236,-0.291386,-2.000031,1.999969
788,-464.667735,-145.387961,150.942245,-1.113054,-1.164324,1.999969
789,206.485084,-83.131151,-0.122072,-0.135500,0.617929,1.999969
790,281.376364,21.484703,-1.770047,0.084108,1.484154,1.999969
791,81.177996,35.217823,13.000687,-0.384527,0.736095,1.193866
792,-46.753643,0.000000,46.875715,-0.186526,0.293095,0.495491
793,22.034028,14.160372,41.565576,0.016724,0.197269,0.437018
794,98.878462,18.432898,23.620966,0.053223,0.369512,0.228397
795,62.195773,-1.892119,20.813306,0.219242,0.474861,0.371466
796,48.096437,-15.991455,13.611048,0.225711,0.377691,0.728405
797,91.309987,-22.339208,-0.244144,0.204715,0.440070,0.987564
798,113.832303,-29.907683,-10.986496,0.189456,0.516121,1.133806
799,131.898985,-37.720302,-21.484703,0.165408,0.456672,1.303243
800,168.642710,-33.508812,-33.936065,0.100221,0.399542,1.301534
801,195.620661,-24.109255,-44.007019,0.032959,0.333013,1.206683
802,211.978332,-11.841001,-50.293736,-0.053223,0.206546,1.125017
803,229.556725,0.305180,-52.552071,-0.129885,0.109743,1.056413
804,242.679484,10.254063,-51.331350,-0.171389,0.037476,1.039445
805,250.858320,17.883574,-47.058824,-0.188235,-0.016114,1.106462
806,261.234455,23.559930,-41.382467,-0.181399,-0.070802,1.237324
807,273.807889,26.245518,-35.095750,-0.169192,-0.109377,1.320821
808,288.212406,26.367590,-29.175250,-0.084596,-0.151858,1.282002
809,296.818494,25.574121,-26.916915,-0.021363,-0.217655,1.229389
810,298.649577,27.344167,-27.771420,0.066041,-0.283207,0.953506
811,287.785153,40.466926,-33.508812,0.128420,-0.397711,0.721691
812,262.699321,58.411536,-36.011292,0.163821,-0.399298,0.742077
813,236.636912,66.102083,-37.659266,0.194095,-0.340215,0.967544
814,222.781720,63.172351,-39.307240,0.246586,-0.222293,1.309346
815,211.917296,61.036088,-41.199359,0.291386,-0.118898,1.985504
816,208.499275,65.308614,-41.931792,0.256107,-0.193240,1.999969
817,236.697948,71.473259,-42.603189,0.267338,-0.396124,1.999969
818,267.460136,76.050965,-43.518730,0.277348,-0.506111,1.999969
819,266.971847,71.168078,-40.650034,0.273320,-0.565560,1.999969
820,261.478599,57.923247,-37.293050,0.297856,-0.627817,1.999969
821,278.934920,49.317159,-39.551385,0.351202,-0.734508,1.999969
822,300.907912,55.420768,-46.570535,0.395270,-0.793469,1.999969
823,289.433127,63.172351,-53.955901,0.357549,-0.880873,1.730617
824,268.375677,67.444877,-59.632258,0.325322,-1.009415,1.602441
825,252.933547,71.351186,-64.576181,0.285771,-1.139422,1.499901
826,231.937133,78.431373,-64.637217,0.167239,-1.327901,1.338033
827,203.982605,85.511559,-56.214237,0.089479,-1.627955,1.276631
828,171.938659,89.662013,-39.795529,0.062867,-2.000031,1.178607
829,140.383001,82.459754,-19.653620,0.292607,-2.000031,0.970474
830,121.217670,75.806821,-8.728161,0.661509,-2.000031,0.539071
831,89.967193,75.867857,-16.418708,0.795911,-2.000031,-0.018311
832,56.702525,73.243305,-11.108568,0.577035,-2.000031,-0.408942
833,-7.995727,32.898451,12.756542,0.327031,-2.000031,-0.331182
834,-51.209277,-37.476158,39.124132,0.162478,-1.738186,-0.058106
835,-176.699474,-107.240406,8.606088,1.506737,-1.650660,-0.483650
836,-142.030976,-75.440604,-5.004959,0.449104,-0.080446,1.773465
837,-89.356832,-25.635157,-18.188754,-0.330816,0.934707,1.830472
838,-79.163806,-33.081559,-25.635157,-0.812879,0.827649,0.533944
839,-193.301289,-39.368276,3.479057,-1.089006,0.263432,-0.732311
840,-322.697795,-54.749371,40.894179,-0.632456,-0.118410,0.473518
841,-344.731823,-40.039673,67.017624,0.744274,-0.559701,1.999969
842,-201.480125,27.588312,31.128405,1.381857,-0.226200,1.999969
843,-165.835050,45.960174,-2.441444,1.141497,0.260380,1.999969
844,-156.984817,86.915389,-15.930419,-0.171023,-0.321904,1.999969
845,-116.578927,49.195087,0.488289,-1.678004,-0.827039,1.999969
846,-18.310826,9.094377,17.761501,-0.943252,-0.238407,0.675059
847,-54.932479,-31.860838,30.029755,0.469612,0.351324,1.332784
848,-52.491035,-14.343481,17.029068,0.449470,0.119142,1.150408
849,-45.838102,-3.479057,10.620279,-0.476326,0.012818,0.852552
850,-57.129778,-36.011292,21.606775,-0.441901,-0.105470,0.947768
851,-35.767147,-54.383154,16.540780,0.102174,0.140505,1.142351
852,-41.260395,-45.410849,14.404517,0.236576,0.106203,1.298116
853,-34.241245,-30.273899,11.047532,0.002686,-0.031128,1.270649
854,-23.865110,-23.315785,10.498207,-0.027710,0.024292,1.174456
855,-22.949569,-15.686275,10.070954,0.092042,0.067628,1.159808
856,-20.996414,-4.028382,7.812619,0.016480,0.092042,1.032364
857,-26.062409,-0.366217,7.141222,-0.105348,0.035157,1.046769
858,-22.766461,-5.065995,7.141222,-0.103517,0.025635,0.947158
859,-22.766461,-8.545052,7.141222,-0.076417,0.035279,0.950820
860,-22.949569,-13.061723,8.606088,-0.167849,-0.009644,0.868299
861,-21.118486,-22.705425,9.399557,-0.163088,0.023804,0.927504
862,-23.682002,-28.625925,9.033341,-0.032471,0.026001,1.121599
863,-19.470512,-25.574121,6.591897,-0.035401,-0.016480,1.116960
864,-16.296635,-22.278172,5.004959,-0.067994,-0.007813,1.058122
865,-14.709697,-20.508125,4.211490,-0.053346,-0.002319,1.038956
866,-14.038300,-19.592584,3.540093,-0.034180,-0.009155,1.063371
867,-11.047532,-17.883574,2.441444,-0.005249,-0.013916,1.086320
868,-7.324331,-14.953841,1.770047,-0.028565,0.000000,1.034928
869,-7.324331,-13.611048,2.014191,-0.032715,0.001465,1.035538
870,-6.652934,-11.108568,2.075227,0.015869,-0.001709,1.056046
871,-4.638743,-7.080186,2.014191,-0.029053,0.012696,0.982681
872,-8.789197,-5.554284,2.868696,-0.013184,0.005249,1.011978
873,-8.606088,-3.356985,2.868696,-0.031861,-0.004150,1.003189
874,-8.972305,-2.807660,3.540093,-0.051392,-0.007324,0.981216
875,-9.216449,-3.967346,3.723201,-0.059571,0.009644,0.964248
876,-12.268254,-6.164645,3.601129,-0.070192,-0.013550,0.969741
877,-12.024109,-9.033341,3.479057,-0.067384,-0.031861,0.962417
878,-10.925460,-10.986496,2.563516,-0.070558,0.022095,1.133684
879,-9.765774,-14.648661,3.662165,-0.077394,-0.006104,0.961074
880,-15.503166,-19.897765,3.723201,-0.013672,-0.043091,0.958389
881,-12.573434,-20.630198,3.112840,-0.084108,0.002441,1.075944
882,-8.300908,-22.644388,1.770047,-0.043336,0.026246,0.934218
883,-11.474784,-22.766461,2.014191,-0.044800,0.001343,1.016373
884,-16.052491,-24.414435,3.112840,-0.009644,-0.037354,1.035416
885,-12.329290,-23.132677,2.136263,-0.002930,0.009155,1.042496
886,-11.779965,-22.827497,2.075227,0.051026,0.047364,0.908461
887,-15.259022,-19.592584,0.976577,0.022583,-0.029541,0.956313
888,-15.991455,-17.456321,1.220722,-0.005127,-0.026246,1.019425
889,-15.320058,-16.113527,0.793469,0.010376,0.002075,0.961685
890,-21.545739,-15.747311,0.671397,0.015259,0.008423,0.950576
891,-28.747997,-16.662852,1.098650,0.017212,-0.005982,0.902724
892,-38.330663,-18.188754,2.014191,0.025147,0.007813,0.942275
893,-48.035401,-18.860151,2.014191,0.013428,-0.065797,1.045792
894,-41.138323,-15.808347,1.159686,0.046509,-0.095094,1.093278
895,-35.217823,-12.085145,1.098650,0.012207,-0.099977,1.042985
896,-32.776379,-11.047532,2.014191,0.038087,-0.105959,1.051408
897,-28.198672,-8.789197,1.770047,0.008667,-0.076173,1.004776
898,-31.250477,-8.911269,2.685588,0.046387,-0.062501,1.032242
899,-31.738766,-7.507439,2.929732,0.030640,-0.096925,1.012100
900,-30.579080,-6.530861,4.333562,0.061769,-0.083742,0.998550
901,-32.776379,-2.197299,6.042573,0.021851,-0.058839,0.997696
902,-40.344854,-3.173877,7.385367,0.028199,-0.095338,1.000626
903,-38.025483,-0.915541,6.713970,0.044190,-0.065309,1.091081
904,-38.941024,1.525902,6.164645,0.026001,-0.080079,1.058488
905,-41.382467,2.258335,3.723201,0.014282,-0.089967,0.954360
906,-43.945983,2.014191,2.075227,-0.028321,-0.075319,0.995865
907,-43.884947,2.136263,2.929732,-0.019409,-0.099367,1.057877
908,-40.711070,2.014191,2.563516,-0.191775,0.204105,1.468772
909,-42.298009,-3.967346,-18.127718,-0.135378,-0.009155,1.043595
910,-53.894865,-6.225681,-27.954528,0.101076,-0.270756,1.020768
911,-48.584726,-0.061036,-3.845274,0.128542,-0.275883,1.000504
912,-49.378195,-0.671397,-2.929732,0.071901,-0.152834,1.093889
913,-39.551385,-2.136263,-14.465553,0.038453,-0.009766,0.952651
914,-58.289464,1.159686,-27.649348,0.038209,0.240848,0.844251
915,-127.382315,4.516670,-33.875029,0.166018,0.266972,0.791760
916,-157.412070,13.672084,-25.757229,-0.013184,0.475593,0.662486
917,-218.387121,-10.925460,-31.555657,-0.143069,0.563119,1.108049
918,-335.576410,-16.845960,-51.209277,-0.073854,1.027237,1.685084
919,-567.391470,-38.269627,-34.546426,-0.556771,-0.147463,1.614527
920,-680.918593,-116.090639,37.781338,-0.652964,-0.022339,1.131975
921,-742.992294,-157.839323,45.899138,0.121218,-0.519905,1.137102
922,-784.252689,-161.135271,86.243992,0.449592,-2.000031,1.999969
923,-727.550164,-105.836576,156.984817,-1.065324,-0.546517,1.999969
924,-64.881361,-85.816739,-9.277485,-0.365118,-0.292119,1.999969
925,260.685130,-5.371176,-13.977264,-0.806653,0.999039,1.999969
926,87.769894,12.207218,-26.550698,-0.460700,0.678477,1.443870
927,-72.449836,-31.128405,56.580453,-0.481819,0.673960,0.873915
928,-59.449149,-41.504540,66.407263,-0.216434,0.287358,1.040787
929,65.247578,-11.535821,42.481117,-0.140993,0.354742,0.966812
930,90.943771,1.403830,37.170977,0.000000,0.606821,0.824842
931,63.965820,1.159686,33.142596,0.036866,0.493782,1.029435
932,106.080720,7.629511,22.705425,0.016480,0.420172,1.203510
933,151.979858,7.385367,14.648661,-0.085573,0.427008,1.101091
934,166.140230,-3.479057,13.611048,-0.066773,0.368170,1.016251
935,190.798810,-4.760815,9.277485,-0.032105,0.282109,0.916030
936,209.964141,1.770047,3.234913,0.002564,0.255253,0.786999
937,212.832837,12.512398,-2.258335,0.038697,0.217166,0.874159
938,219.790951,21.667811,-7.019150,0.006104,0.135988,1.007095
939,238.651102,26.550698,-10.315099,-0.007935,0.085695,1.073625
940,252.140078,27.344167,-10.986496,-0.008789,0.044923,1.158587
941,264.835584,25.940337,-10.803388,0.046021,-0.016114,1.169329
942,280.888075,25.635157,-13.061723,0.121828,-0.043946,1.193622
943,288.151370,25.207904,-17.883574,0.186160,-0.036255,1.402853
944,295.597772,27.527276,-26.001373,0.269413,-0.197635,1.299947
945,300.419623,40.039673,-39.490349,0.308232,-0.431525,0.854871
946,283.817807,60.975052,-52.307927,0.312993,-0.549569,0.595590
947,247.318227,71.107042,-56.946670,0.208133,-0.507210,0.656626
948,217.044327,60.669871,-58.716716,0.112428,-0.449836,0.997696
949,204.776074,52.246891,-57.434958,0.096193,-0.318975,1.645777
950,192.141604,50.476844,-54.810407,0.119265,-0.292973,1.999969
951,211.062791,57.923247,-54.444190,0.167117,-0.468757,1.999969
952,256.900893,73.182269,-55.786984,0.098146,-0.591318,1.999969
953,265.812161,76.112001,-47.058824,-0.029053,-0.682750,1.999969
954,269.047074,63.904784,-31.128405,-0.063111,-0.845594,1.999969
955,298.527504,55.970092,-17.578393,0.077028,-0.903334,1.999969
956,305.485618,57.618067,-8.056764,0.208988,-0.899062,1.801541
957,286.564431,56.031128,-3.051804,0.286259,-0.907607,1.636500
958,272.159915,50.537881,-3.540093,0.338506,-0.905043,1.594507
959,258.548867,43.640803,-9.094377,0.333379,-0.954238,1.602441
960,244.571603,42.420081,-16.540780,0.261967,-1.070451,1.479759
961,228.763256,45.777066,-25.391012,0.250126,-1.232807,1.236713
962,200.320439,54.322118,-35.645075,0.360113,-1.474998,1.031266
963,161.623560,66.651408,-48.889906,0.621347,-1.802274,0.921401
964,114.625772,90.028229,-76.539254,0.829358,-2.000031,0.912001
965,92.835889,132.570382,-87.098497,0.718761,-2.000031,0.580087
966,72.755016,142.092012,-89.417868,0.397101,-2.000031,-0.144533
967,38.025483,84.412909,-60.120546,0.105715,-2.000031,-0.776989
968,-39.978637,-31.494621,-21.789883,-0.167117,-2.000031,-2.000031
969,-160.769055,-183.535515,21.789883,0.332280,-1.779446,-0.484871
970,-203.189136,-206.424048,20.019837,0.724743,-1.445212,0.804456
971,-143.129625,-132.204166,5.249104,-0.233402,0.171511,1.999969
972,-102.906844,-93.446250,4.394598,-0.924819,0.725475,1.999969
973,-116.823072,-72.816052,34.241245,-0.996597,0.559335,1.070207
974,-169.375143,-80.140383,56.519417,-0.558724,0.011109,-0.474372
975,-226.260777,-99.977111,72.144656,0.071290,-0.122194,0.066651
976,-259.342336,-99.305715,79.163806,0.881239,0.032227,1.999969
977,-238.101778,-73.853666,62.317845,1.609277,-0.056886,1.999969
978,-135.927367,-42.847333,15.503166,1.445579,-0.063966,1.999969
979,-102.723735,-7.690547,-13.611048,0.440803,0.168093,1.243061
980,-142.702373,15.564202,-3.295949,-1.018692,-0.198001,1.399802
981,-166.506447,-43.274586,35.523003,-1.722194,-0.547738,1.728054
982,-80.628672,-102.723735,38.574807,0.240848,0.037232,1.999969
983,-47.547112,-83.131151,7.141222,1.858061,-0.023682,1.999969
984,-22.583352,5.981537,-5.188067,0.292363,0.155154,1.016861
985,-73.243305,-10.559243,-0.549325,-0.882704,-0.232181,1.000748
986,-48.035401,-50.293736,7.385367,0.090455,-0.097414,1.252827
987,-18.677043,-33.569848,-3.173877,0.505013,0.119509,1.298360
988,-45.654994,-14.526589,1.342794,-0.056641,-0.073732,0.993301
989,-25.146868,-19.043259,0.671397,-0.037720,-0.024903,1.077775
990,-15.625238,-19.287404,-3.356985,0.134646,0.066773,0.926284
991,-39.429313,-15.259022,1.464866,0.037354,-0.044434,1.158465
992,-23.620966,-10.986496,2.014191,0.061402,-0.090944,1.092912
993,-8.667124,-6.591897,1.037613,0.104860,0.045899,1.004288
994,-24.475471,-4.882887,2.685588,0.006714,-0.064210,1.015396
995,-14.709697,-4.394598,2.807660,0.048219,-0.059571,1.028336
996,-15.625238,-3.479057,2.136263,0.040772,-0.010376,1.054582
997,-18.921187,-3.540093,4.211490,0.075196,-0.093751,1.001358
998,-11.352712,-2.441444,2.685588,0.016114,0.016968,1.023087
999,-14.587625,-4.028382,2.868696,0.015259,-0.033692,1.052628
1000,-8.728161,-3.967346,1.647974,0.033082,-0.023682,0.968521
1001,-11.841001,-4.211490,1.159686,0.020630,-0.014649,0.990372
1002,-12.451362,-4.333562,1.647974,0.022583,-0.002197,0.998428
1003,-10.681315,-4.638743,1.037613,0.029664,-0.010498,0.926162
1004,-17.212177,-5.920500,1.647974,0.041260,0.047486,1.012833
1005,-18.738079,-5.249104,1.770047,0.051759,-0.033326,1.002090
1006,-17.761501,-4.028382,0.854505,0.062623,-0.097414,0.978408
1007,-17.517357,-3.418021,1.220722,0.040284,-0.050050,1.018814
1008,-17.273213,-3.295949,0.549325,0.043336,-0.061036,1.019547
1009,-15.625238,-3.234913,0.915541,0.032837,-0.047974,1.012833
1010,-15.747311,-3.906310,0.793469,0.039796,-0.036866,1.001114
1011,-16.723888,-3.906310,0.488289,0.041260,-0.039796,0.997086
1012,-16.479744,-4.516670,0.183108,0.042359,-0.043336,1.001724
1013,-17.578393,-4.211490,0.183108,0.050904,-0.050904,1.017594
1014,-16.540780,-4.394598,-0.244144,0.043702,-0.064576,1.004288
1015,-14.831769,-4.150454,-0.488289,0.050172,-0.053468,0.990005
1016,-16.723888,-4.028382,0.000000,0.045655,-0.066529,1.010391
1017,-14.953841,-3.601129,0.427253,0.054566,-0.064820,1.014420
1018,-14.465553,-3.356985,0.671397,0.046143,-0.075563,1.017716
1019,-12.695506,-3.295949,0.671397,0.053956,-0.078126,1.012467
1020,-12.573434,-3.479057,0.671397,0.053468,-0.048219,0.997330
1021,-12.512398,-3.601129,-0.244144,0.040894,-0.052735,0.970596
1022,-15.442130,-3.967346,-0.671397,0.057740,-0.063233,0.986099
1023,-16.357671,-3.967346,-0.183108,0.062379,-0.094606,1.005142
1024,-15.014878,-3.356985,-0.122072,0.068482,-0.077760,0.979629
1025,-16.479744,-2.441444,0.366217,0.054932,-0.076051,0.999283
1026,-17.029068,-1.098650,0.061036,0.065797,-0.089723,1.004776
1027,-17.212177,-0.183108,-0.244144,0.054932,-0.099977,1.014420
1028,-16.235599,-0.183108,0.000000,0.053712,-0.080568,0.997452
1029,-18.554971,-0.244144,-0.305180,0.054200,-0.073976,1.000748
1030,-18.432898,-0.366217,-0.976577,0.057984,-0.073243,0.987686
1031,-20.874342,-0.427253,-1.586938,0.040040,-0.057008,0.971450
1032,-24.231327,-0.427253,-1.159686,0.060304,-0.094606,0.974990
1033,-24.780652,0.671397,1.464866,0.111330,-0.044068,0.955825
1034,-32.898451,7.324331,4.394598,0.030518,-0.148074,0.945083
1035,-38.818952,7.995727,8.484016,0.060060,-0.078859,1.056291
1036,-42.359045,9.765774,9.521630,0.045533,-0.089967,0.945571
1037,-48.828870,10.803388,9.033341,0.038819,-0.070436,0.929824
1038,-49.866484,9.643702,6.286717,-0.001465,-0.089845,1.002579
1039,-49.256123,7.629511,1.220722,0.021851,-0.127077,0.977676
1040,-42.603189,4.943923,-0.732433,-0.061524,-0.143313,0.999283
1041,-34.119173,-0.488289,-13.244831,-0.038087,-0.191775,1.006973
1042,-35.889220,-0.366217,-24.109255,0.006836,-0.167605,1.007218
1043,-36.682689,-3.356985,-16.601816,0.168215,-0.292851,1.045060
1044,-27.588312,2.624552,-3.906310,0.223026,-0.288945,1.152361
1045,-21.362631,10.009918,4.394598,0.110964,-0.187503,1.038346
1046,-23.193713,13.000687,1.037613,0.021607,0.114992,0.966934
1047,-59.205005,18.982223,-12.695506,0.162844,0.139040,0.952041
1048,-103.273060,28.931106,-10.437171,-0.043458,0.445930,0.839246
1049,-172.671092,26.367590,-28.870069,-0.148196,0.276005,0.639902
1050,-198.367285,-16.845960,-10.437171,-0.255253,0.395880,0.416388
1051,-289.250019,-28.381781,-20.080873,0.185794,0.386969,1.444480
1052,-512.153811,-40.222782,-21.972992,-0.193362,0.371099,1.495750
1053,-673.167010,-126.527810,37.659266,-0.477424,-0.025269,1.306905
1054,-781.261921,-192.385748,54.749371,0.100587,-0.210086,1.338888
1055,-848.096437,-197.207599,73.243305,0.227054,-0.077638,0.887953
1056,-1063.004501,-220.767529,131.654841,0.797986,-2.000031,1.999969
1057,-497.871366,-86.182956,145.204852,-0.893690,-1.051164,1.999969
1058,275.822080,-10.131991,-67.322805,-0.077760,0.887221,1.999969
1059,344.792859,46.021210,-67.322805,-0.217411,1.668727,1.809476
1060,157.473106,34.973678,-54.993515,-0.628428,0.775036,1.114153
1061,0.305180,-31.433585,6.836042,-0.485603,0.408942,0.197635
1062,14.099336,-38.208591,17.883574,-0.342901,0.178714,0.315190
1063,116.639963,-16.174563,3.662165,-0.370611,0.209720,0.368170
1064,112.428473,-14.160372,7.141222,-0.234745,0.393072,0.370245
1065,75.013352,-16.784924,12.512398,-0.186038,0.327886,0.721080
1066,110.048066,-7.812619,7.385367,-0.088136,0.350835,1.001968
1067,147.524224,-1.525902,-0.793469,-0.032715,0.465461,1.100481
1068,157.839323,-2.807660,-7.141222,0.029908,0.453254,1.308492
1069,186.953536,0.671397,-15.869383,0.060426,0.387701,1.461692
1070,227.420462,8.178836,-26.916915,0.082765,0.321416,1.421653
1071,252.994583,18.310826,-35.278859,0.063600,0.221927,1.331930
1072,272.831312,27.161059,-40.283818,0.028931,0.059937,1.124407
1073,292.118715,35.706111,-44.129091,0.026978,-0.026856,1.010880
1074,296.879530,40.222782,-44.434272,0.062623,-0.117433,0.945327
1075,300.785840,38.208591,-44.007019,0.115724,-0.153567,0.956435
1076,304.081788,30.640116,-45.777066,0.161135,-0.163699,0.990616
1077,301.152056,24.353399,-50.232700,0.154421,-0.274662,0.847425
1078,285.587854,30.701152,-58.045319,0.132326,-0.467659,0.654429
1079,260.929274,53.894865,-61.890593,0.110719,-0.492195,0.709728
1080,228.519112,69.275959,-63.599603,0.153689,-0.373785,1.144427
1081,213.504234,74.036774,-67.322805,0.048951,-0.302495,1.691310
1082,214.541848,80.933852,-66.529335,-0.191409,-0.388922,1.999969
1083,222.293431,96.986343,-55.420768,-0.386969,-0.561166,1.999969
1084,239.444572,112.123293,-36.987869,-0.491585,-0.773938,1.999969
1085,246.952010,117.616541,-13.366903,-0.419074,-0.846326,1.999969
1086,243.839170,109.498741,8.606088,-0.323735,-0.863783,1.999969
1087,258.121614,97.962921,25.757229,-0.179080,-0.935805,1.999969
1088,301.029984,99.916075,33.081559,-0.038819,-1.011246,1.999969
1089,319.035630,111.757076,37.048905,0.054932,-1.040421,1.796780
1090,293.461509,118.715190,40.894179,0.327153,-1.003677,1.418845
1091,270.634012,124.208438,37.476158,0.719005,-0.801648,1.594873
1092,247.074083,117.433433,25.207904,0.724743,-0.816297,1.911772
1093,249.698634,106.202792,13.855192,0.651255,-0.954971,1.956573
1094,253.604944,93.202106,5.127031,0.544076,-1.202655,1.721218
1095,237.247272,81.483177,-0.976577,0.600229,-1.631983,1.340963
1096,203.555352,77.332723,-14.160372,0.883192,-2.000031,1.063127
1097,167.605097,102.540627,-36.072328,1.146258,-2.000031,0.588266
1098,137.026017,152.101930,-84.901198,1.086320,-2.000031,-0.228397
1099,112.184329,167.360952,-92.652781,0.574838,-2.000031,-1.227924
1100,9.155413,75.867857,-56.824598,0.065431,-2.000031,-1.357076
1101,-69.092851,-66.651408,-10.803388,-0.142458,-1.751369,-0.341802
1102,-85.084306,-156.496529,26.550698,-0.139040,-1.561791,-0.478279
1103,-186.587320,-237.247272,37.048905,0.569223,-1.197406,-0.018067
1104,-248.905165,-217.105364,30.945296,0.204715,-0.757580,1.893950
1105,-133.913176,-118.837263,28.564889,-0.513802,0.208865,1.999969
1106,-114.930953,-70.130465,47.119860,-0.644053,0.803357,1.575341
1107,-191.531243,-85.206378,64.454108,-0.091676,0.320684,-0.083619
1108,-248.783093,-95.521477,63.660639,0.471321,-0.166384,-0.057130
1109,-294.682231,-74.708171,67.689021,1.143938,0.035035,1.899565
1110,-288.517586,-53.894865,45.227741,1.658839,-0.214603,1.999969
1111,-188.479438,-0.244144,7.141222,1.126238,-0.322515,1.999969
1112,-104.921035,42.725261,-15.197986,-0.297612,-0.204105,1.989410
1113,-155.336843,8.300908,21.911955,-1.709865,-0.419440,1.999969
1114,-66.346227,-52.918288,36.865797,-0.888441,-0.621592,1.317647
1115,-10.315099,-90.882734,26.245518,1.217060,0.448981,1.999969
1116,-28.198672,-28.320745,1.098650,1.221576,-0.017945,1.399924
1117,-22.644388,13.672084,4.882887,-0.774670,0.015747,1.184466
1118,-28.992142,-38.269627,11.169604,-0.429816,0.002564,1.017350
1119,-11.047532,-46.875715,-5.981537,0.593149,0.147585,1.173724
1120,-33.752956,-14.221408,1.709010,0.069215,0.063600,1.013565
1121,-34.546426,-17.517357,4.699779,-0.235599,-0.029908,1.067521
1122,-18.493935,-26.672770,-2.014191,0.181765,0.143557,1.117327
1123,-30.273899,-15.869383,0.488289,0.105715,0.032593,1.005875
1124,-26.733806,-11.535821,1.525902,-0.026123,0.002930,1.051896
1125,-21.667811,-12.512398,1.403830,0.074464,0.060182,1.026017
1126,-27.710384,-8.728161,3.906310,0.103273,0.052247,0.977188
1127,-29.968719,-7.934691,4.394598,-0.013794,-0.012696,1.002213
1128,-25.940337,-9.216449,5.676356,0.062135,0.036378,1.037247
1129,-29.541466,-7.141222,3.418021,0.035523,-0.059815,0.943984
1130,-26.733806,-8.728161,4.028382,-0.016114,-0.016480,0.989151
1131,-24.780652,-10.986496,3.234913,0.006714,0.014893,0.972671
1132,-28.870069,-12.329290,2.136263,-0.007446,-0.009155,0.942763
1133,-28.442817,-14.221408,2.197299,0.000977,-0.007202,1.019303
1134,-27.283131,-14.404517,1.831083,0.035279,-0.034913,1.020523
1135,-23.376822,-13.061723,1.342794,0.036622,-0.019654,1.022965
1136,-23.132677,-11.902037,0.488289,0.053590,-0.070069,0.930922
1137,-24.963760,-10.559243,1.525902,0.081056,-0.009400,1.059709
1138,-26.489662,-7.507439,0.854505,0.039918,-0.040162,1.020768
1139,-23.498894,-6.286717,0.671397,0.053346,-0.056519,1.043961
1140,-21.728847,-4.821851,0.671397,0.033082,-0.058228,1.019791
1141,-20.080873,-4.272526,1.220722,0.041016,-0.043946,1.001236
1142,-20.080873,-4.333562,0.732433,0.028565,-0.039551,0.996109
1143,-21.240558,-4.882887,0.366217,0.020508,-0.046265,1.001724
1144,-20.141909,-5.554284,0.061036,0.036378,-0.073243,1.033951
1145,-17.517357,-5.371176,0.061036,0.034180,-0.078859,1.019059
1146,-13.611048,-4.821851,-0.122072,0.049073,-0.096193,0.986709
1147,-12.817578,-4.882887,0.122072,0.048096,-0.083375,1.000259
1148,-11.535821,-5.065995,0.000000,0.043824,-0.075685,1.018204
1149,-11.108568,-5.004959,0.427253,0.042725,-0.070680,1.026139
1150,-7.202258,-4.394598,0.488289,0.051759,-0.076539,1.000626
1151,-7.202258,-4.455634,0.427253,0.039185,-0.074220,0.993545
1152,-7.629511,-4.577707,0.488289,0.042847,-0.079103,1.002945
1153,-6.775006,-4.577707,0.549325,0.051514,-0.071656,0.989517
1154,-8.056764,-4.333562,0.671397,0.039918,-0.063600,0.980972
1155,-9.887846,-4.821851,1.525902,0.039185,-0.074586,0.985977
1156,-12.878614,-3.601129,1.647974,0.054078,-0.070680,0.989883
1157,-12.817578,-2.380407,1.159686,0.105226,-0.096681,0.952285
1158,-14.892805,-0.671397,1.525902,0.056031,-0.042725,0.990372
1159,-18.066682,0.000000,1.831083,0.067384,-0.077882,1.023941
1160,-17.090105,1.342794,1.770047,0.040528,-0.070924,1.011856
1161,-18.493935,1.159686,1.831083,0.046632,-0.088869,1.001724
1162,-16.113527,1.281758,1.342794,0.060792,-0.089113,1.000626
1163,-17.578393,1.831083,0.793469,0.043458,-0.095094,1.008194
1164,-16.540780,1.953155,0.183108,0.031128,-0.076905,0.995010
1165,-17.395285,2.197299,0.427253,0.072511,-0.051881,0.975357
1166,-22.339208,6.530861,2.502480,0.055909,-0.073243,0.967666
1167,-33.508812,5.432212,6.103609,0.063355,-0.107424,1.003677
1168,-27.161059,7.751583,7.507439,0.036133,-0.068360,1.041154
1169,-34.790570,8.300908,7.263294,0.045655,-0.091188,0.955703
1170,-39.978637,6.958114,7.934691,0.013916,-0.051026,0.986343
1171,-40.711070,7.080186,4.394598,-0.001221,-0.062867,1.008438
1172,-44.678416,6.652934,0.549325,0.004761,-0.089845,1.016861
1173,-43.823911,4.150454,-4.211490,-0.038819,-0.132570,1.017716
1174,-32.227054,3.295949,-5.127031,-0.019532,-0.181888,1.036515
1175,-42.908370,7.202258,-15.259022,0.057496,-0.167483,0.943862
1176,-44.678416,-1.037613,-13.427939,0.100465,-0.225223,0.990494
1177,-35.400931,-0.793469,-8.545052,0.157717,-0.235233,1.092668
1178,-34.729534,7.324331,-1.159686,0.110231,-0.195071,1.063981
1179,-34.058137,9.887846,-1.159686,0.014405,0.082765,0.973526
1180,-65.308614,13.794156,-15.686275,0.121706,0.125124,0.977066
1181,-116.578927,24.658579,-18.616007,0.057862,0.262577,0.814466
1182,-154.604410,27.100023,-21.545739,-0.065431,0.303716,0.628794
1183,-183.596551,-4.394598,-13.855192,-0.362066,0.151492,0.914931
1184,-254.764630,-15.930419,-19.714656,0.145998,0.871351,1.071794
1185,-450.446326,-36.316472,-32.227054,-0.306889,0.183352,1.398459
1186,-630.685893,-132.326238,40.283818,-0.699474,0.122560,1.768460
1187,-745.128557,-204.592966,54.444190,-0.025391,-0.237675,1.220478
1188,-811.718929,-194.338903,75.440604,0.419562,-0.442145,1.377340
1189,-981.826505,-163.515679,174.929427,-0.675669,-1.539208,1.999969
1190,-392.095827,-46.021210,98.756390,-0.952773,-1.307515,1.999969
1191,272.953384,36.194400,-25.329976,-0.366461,0.698741,1.999969
1192,256.412604,88.624399,-37.293050,-0.060792,1.166278,1.507713
1193,50.843061,38.818952,17.883574,-0.624033,0.695445,0.659556
1194,-85.938811,-49.134051,59.693294,-0.294560,0.257206,0.419440
1195,-7.202258,-48.462654,60.242618,0.060060,0.241337,0.417121
1196,80.262455,-30.640116,30.640116,0.132326,0.401740,0.424201
1197,46.509499,-24.231327,19.226368,0.299931,0.557259,0.597177
1198,32.898451,-16.052491,3.601129,0.215213,0.416876,0.905898
1199,85.877775,-10.070954,-15.503166,0.166384,0.446174,0.968765
1200,112.428473,-13.733120,-27.954528,0.075319,0.481209,0.917983
1201,119.813840,-22.278172,-33.508812,-0.004150,0.379767,1.024186
1202,150.576028,-23.193713,-38.452735,-0.080812,0.311040,1.134905
1203,178.957809,-18.432898,-41.382467,-0.131594,0.276371,1.186542
1204,195.681697,-8.422980,-41.077287,-0.208377,0.144289,1.203021
1205,218.204013,6.958114,-38.086519,-0.291508,0.007691,1.077897
1206,234.378576,21.911955,-31.799802,-0.370367,-0.097414,0.919692
1207,240.115969,31.616693,-19.531548,-0.391363,-0.160037,0.833387
1208,240.543221,33.936065,-5.004959,-0.331914,-0.203616,0.865248
1209,242.801556,32.715343,6.897078,-0.166140,-0.207279,0.963272
1210,245.548180,30.640116,10.193027,0.053956,-0.231083,1.041520
1211,251.834897,36.316472,5.676356,0.227665,-0.189944,1.182025
1212,254.459449,42.969406,-3.479057,0.311650,-0.198123,1.301656
1213,255.374990,46.997787,-13.305867,0.338872,-0.247684,1.418723
1214,261.844816,48.035401,-22.705425,0.348272,-0.288212,1.483909
1215,263.736934,50.110628,-31.860838,0.369879,-0.354986,1.561669
1216,262.882429,52.491035,-39.978637,0.408820,-0.433722,1.570336
1217,261.539635,56.153201,-47.730220,0.379767,-0.534188,1.494774
1218,254.764630,56.397345,-52.979324,0.286748,-0.576425,1.498802
1219,248.538949,53.772793,-54.566262,0.180056,-0.609628,1.478294
1220,238.773175,50.110628,-52.979324,0.095705,-0.612314,1.505882
1221,228.458076,46.509499,-50.232700,0.035767,-0.563119,1.647608
1222,221.683070,43.274586,-48.828870,0.020020,-0.526619,1.826566
1223,221.744106,44.251164,-49.866484,0.054200,-0.508309,1.951934
1224,226.504921,50.476844,-53.528649,0.059693,-0.516976,1.899077
1225,227.847715,58.838788,-57.495995,0.080201,-0.536263,1.719142
1226,219.546807,65.918975,-60.120546,0.078248,-0.558236,1.584741
1227,206.424048,71.534295,-60.608835,0.087770,-0.591196,1.517235
1228,194.949264,77.027543,-60.852979,0.153323,-0.596811,1.518212
1229,180.117494,82.093538,-60.608835,0.204837,-0.607431,1.663966
1230,173.342489,84.229801,-61.219196,0.253300,-0.684459,1.741115
1231,170.717937,85.023270,-62.256809,0.351812,-0.819837,1.789944
1232,169.008927,84.779126,-64.271000,0.423346,-1.081193,1.617456
1233,167.605097,83.131151,-68.543526,0.516609,-1.441672,1.342916
1234,146.669718,81.544213,-72.266728,0.569467,-1.928374,1.106462
1235,115.846494,88.624399,-73.731594,0.598520,-2.000031,0.946914
1236,103.273060,109.559777,-68.238346,0.479744,-2.000031,0.507088
1237,92.774853,117.616541,-61.707485,0.233646,-2.000031,-0.276371
1238,40.894179,84.534981,-28.747997,-0.055055,-2.000031,-0.875380
1239,-36.377508,8.545052,16.418708,-0.546883,-2.000031,-1.744656
1240,-177.737087,-183.169299,79.774166,0.288579,-1.661036,-1.503685
1241,-199.343862,-242.191196,75.684749,1.257099,-0.003784,1.999969
1242,-64.087892,-103.822385,27.527276,0.250614,1.059953,1.999969
1243,-66.224155,-65.430686,32.166018,-0.467781,1.249409,1.314717
1244,-155.275807,-109.742885,43.945983,0.082887,0.227176,-1.097185
1245,-232.181277,-95.948730,46.997787,0.418585,-0.131960,-1.054704
1246,-314.152743,-68.482490,53.833829,0.651255,-0.105226,1.428244
1247,-333.867399,-57.312886,49.561303,1.194965,-0.044068,1.999969
1248,-211.551080,2.319371,10.498207,0.847669,-0.493050,1.999969
1249,-115.236133,46.753643,0.671397,-0.792615,0.020630,1.904448
1250,-198.855573,-3.295949,32.837415,-1.641138,-0.776257,1.999969
1251,-51.270314,-49.805447,37.048905,-0.248295,-0.275273,1.574243
1252,-49.805447,-57.618067,22.217136,1.610376,0.518685,1.999969
1253,-53.650721,8.545052,-2.807660,0.992813,0.022339,1.920317
1254,-40.405890,47.058824,-8.911269,-0.780774,-0.119142,0.908705
1255,-38.269627,3.479057,10.193027,-0.412360,0.001465,0.786511
1256,-37.354086,-8.911269,8.300908,0.427375,0.188113,1.275532
1257,-37.842374,10.559243,0.671397,0.033814,-0.012573,1.215961
1258,-28.442817,10.559243,3.356985,-0.344976,-0.142336,1.141375
1259,-15.136950,0.061036,6.591897,0.018311,-0.005859,1.138567
1260,-9.948882,6.652934,4.455634,0.002564,0.080201,1.031876
1261,-14.404517,6.530861,4.821851,-0.210819,0.012207,0.885512
1262,-13.427939,-2.563516,5.127031,-0.115114,0.042725,0.922377
1263,-14.526589,-6.042573,4.577707,-0.050050,0.058595,0.957534
1264,-17.700465,-7.385367,4.455634,-0.122927,-0.005737,0.970352
1265,-14.099336,-11.413748,5.065995,-0.108888,-0.009033,0.989761
1266,-10.376135,-13.855192,5.554284,-0.072999,0.025879,0.975235
1267,-11.474784,-15.381094,5.432212,-0.085573,0.025635,1.039811
1268,-11.108568,-14.953841,4.089418,-0.033814,-0.007935,1.126726
1269,-5.737392,-11.657893,2.502480,-0.083009,-0.000732,1.050553
1270,-5.920500,-11.718929,2.258335,-0.079591,-0.001343,1.027481
1271,-3.723201,-11.413748,1.342794,-0.047120,0.006836,1.065202
1272,-3.051804,-8.850233,0.549325,-0.026123,-0.003662,1.069474
1273,-0.244144,-5.188067,0.000000,-0.035035,0.002686,1.048966
1274,0.305180,-2.807660,0.122072,-0.060182,0.023926,0.990982
1275,-2.075227,-1.770047,0.671397,-0.044800,0.009766,1.014542
1276,-0.854505,0.122072,0.915541,-0.045777,-0.003174,1.030411
1277,0.305180,2.258335,1.403830,-0.038819,0.007691,1.024796
1278,0.244144,4.028382,1.647974,-0.047608,0.006714,1.012589
1279,0.183108,4.943923,2.075227,-0.075929,0.007568,0.953994
1280,-0.244144,3.723201,2.807660,-0.095216,0.031617,0.947280
1281,-3.112840,0.610361,3.051804,-0.101076,-0.000977,0.948745
1282,-2.380407,-2.563516,3.051804,-0.088991,0.010620,0.953262
1283,-3.540093,-5.065995,3.051804,-0.103639,0.009033,0.937026
1284,-5.310140,-8.484016,3.234913,-0.088380,0.014038,0.964858
1285,-7.263294,-10.925460,3.356985,-0.081056,0.001343,0.979751
1286,-7.202258,-12.756542,3.356985,-0.093263,-0.009155,0.961685
1287,-7.080186,-14.343481,3.051804,-0.052003,0.018799,1.052995
1288,-4.943923,-15.442130,3.051804,-0.081544,-0.005737,0.943374
1289,-10.559243,-18.616007,3.906310,-0.054444,-0.012451,0.980117
1290,-6.591897,-17.944610,3.906310,-0.050904,0.020020,1.035172
1291,-8.361944,-16.296635,2.990768,-0.058350,0.005249,0.965469
1292,-9.094377,-14.465553,0.671397,0.000244,-0.116579,0.808606
1293,-8.178836,-16.418708,2.258335,-0.068116,0.063844,1.037858
1294,-18.249790,-19.104295,3.051804,-0.025391,0.017212,0.941665
1295,-18.738079,-18.188754,2.319371,0.007446,0.011719,1.023453
1296,-18.188754,-15.320058,1.709010,-0.047730,0.013062,1.082536
1297,-16.479744,-16.235599,2.685588,0.028443,0.062013,0.883436
1298,-23.010605,-14.160372,2.319371,-0.022950,-0.003662,0.948135
1299,-24.780652,-14.221408,2.807660,-0.009522,-0.007202,1.059098
1300,-25.635157,-12.390326,2.258335,-0.008179,-0.032715,0.950576
1301,-26.123445,-11.841001,2.258335,-0.021607,-0.033326,1.003555
1302,-27.222095,-11.108568,2.685588,-0.008789,-0.036866,1.019059
1303,-26.672770,-9.094377,3.906310,0.001709,-0.042847,0.990738
1304,-31.067369,-9.704738,5.065995,-0.035279,-0.027832,0.987320
1305,-33.569848,-10.864424,5.676356,-0.026490,-0.045045,0.997452
1306,-32.715343,-11.474784,5.249104,-0.024537,-0.052125,0.986831
1307,-32.349126,-12.695506,4.882887,0.022339,0.006592,0.987564
1308,-39.002060,-10.376135,4.028382,-0.045289,-0.032959,0.953140
1309,-39.917601,-13.000687,2.685588,-0.022950,-0.033814,0.987808
1310,-40.161746,-12.695506,-0.732433,-0.010742,-0.017578,0.977188
1311,-46.387427,-13.366903,-2.136263,-0.103395,-0.017945,0.971572
1312,-52.368963,-15.320058,-2.319371,0.079469,-0.057130,1.032120
1313,-57.312886,-10.925460,0.549325,-0.051148,-0.111452,1.023575
1314,-42.114900,-7.812619,0.000000,0.024048,-0.141238,1.041398
1315,-41.687648,-6.042573,-2.563516,-0.017945,-0.003296,0.977554
1316,-58.594644,-11.902037,-1.770047,-0.017578,-0.066285,1.083268
1317,-73.792630,-12.878614,-14.648661,-0.080812,-0.055543,1.146868
1318,-55.359731,-10.254063,-19.775692,0.017945,-0.236820,0.984268
1319,-47.730220,-4.821851,-10.620279,0.105226,-0.212528,1.010025
1320,-48.035401,-2.380407,-5.310140,0.054322,-0.135744,0.977798
1321,-72.938125,-4.577707,-9.399557,0.024903,-0.027344,0.969741
1322,-87.220569,-5.676356,-20.325017,-0.030762,0.219364,0.796765
1323,-135.561151,-7.263294,-26.977951,0.141360,0.067872,0.922499
1324,-165.468833,5.615320,-4.211490,0.000122,0.257450,0.765759
1325,-195.071336,-6.897078,-18.127718,0.057740,0.481209,1.062150
1326,-287.296864,-19.958801,-41.870756,0.087526,0.887343,0.716075
1327,-495.796139,-25.757229,-18.249790,-0.158938,0.293462,1.492943
1328,-624.826429,-66.102083,43.030442,-0.359136,0.048096,1.198627
1329,-728.160525,-115.358206,56.092164,-0.163210,-0.159548,1.735988
1330,-787.670710,-160.769055,62.745098,-0.134157,-0.182010,0.948379
1331,-964.248112,-203.799496,144.045167,-0.323369,-1.612940,1.999969
1332,-440.497444,-136.415656,103.456168,-1.076555,-0.988785,1.999969
1333,273.563745,-62.684062,-24.475471,-0.429084,0.932631,1.999969
1334,356.572824,3.906310,-31.250477,-0.268681,1.542260,1.486351
1335,157.839323,15.197986,-5.371176,-0.743297,1.006485,0.869520
1336,-11.108568,-26.489662,46.753643,-0.341070,0.147829,-0.415534
1337,-4.943923,-25.024796,52.124819,-0.172000,-0.027955,0.041260
1338,87.098497,-6.225681,32.227054,-0.153079,0.198978,0.295659
1339,86.976425,-4.577707,29.114214,0.017945,0.444831,0.361456
1340,54.566262,-11.474784,25.268940,0.040040,0.386969,0.735485
1341,86.549172,-11.841001,14.770733,0.081666,0.408576,1.012467
1342,125.307088,-10.925460,1.037613,0.090700,0.495979,1.130388
1343,137.575341,-12.085145,-8.056764,0.073365,0.484504,1.309346
1344,163.820859,-10.131991,-17.578393,0.028931,0.395880,1.437888
1345,202.883955,-3.540093,-26.550698,-0.010864,0.334478,1.462303
1346,228.885328,3.356985,-33.020523,-0.053712,0.234745,1.423972
1347,251.468681,13.733120,-36.438544,-0.096925,0.096681,1.348531
1348,273.990997,25.940337,-37.781338,-0.133791,-0.036622,1.189349
1349,286.381323,36.560616,-35.217823,-0.171023,-0.124147,1.068620
1350,290.959030,40.650034,-29.663539,-0.196292,-0.203861,1.012345
1351,295.292592,39.734493,-23.376822,-0.168948,-0.247929,0.962661
1352,294.499123,37.293050,-19.287404,-0.104494,-0.284184,0.916518
1353,282.413977,40.588998,-20.935378,0.032715,-0.450568,0.642466
1354,257.755398,60.791943,-26.001373,0.225956,-0.551644,0.511971
1355,224.490730,76.600290,-30.823224,0.216556,-0.449836,0.778210
1356,199.221790,59.815366,-39.002060,0.211063,-0.367803,1.152728
1357,198.611429,47.608148,-48.950942,0.171145,-0.247929,1.817899
1358,191.348135,55.542840,-54.749371,0.074220,-0.290654,1.999969
1359,205.813687,76.539254,-57.190814,-0.031617,-0.510994,1.999969
1360,252.323186,96.009766,-58.594644,-0.052247,-0.720348,1.999969
1361,254.886702,102.723735,-53.528649,-0.054566,-0.728161,1.900298
1362,231.326772,88.014038,-42.908370,-0.017090,-0.737438,1.999969
1363,249.515526,75.928893,-37.598230,0.122927,-0.757702,1.999969
1364,289.433127,78.553445,-40.955215,0.339361,-0.811170,1.999969
1365,294.560159,93.751431,-49.195087,0.537240,-0.792493,1.406394
1366,258.548867,94.605936,-58.350500,0.567147,-0.737194,1.396017
1367,238.773175,81.422141,-68.421454,0.544198,-0.761608,1.643702
1368,244.449531,74.402991,-79.468986,0.514778,-0.757580,1.695705
1369,236.942092,74.402991,-85.999847,0.396490,-0.818250,1.589990
1370,227.115282,71.717403,-86.610208,0.176883,-0.990860,1.350851
1371,216.861219,62.439918,-80.994888,-0.052247,-1.174212,1.095232
1372,192.080568,52.307927,-69.153887,-0.212528,-1.426535,0.977432
1373,162.355993,52.857252,-54.444190,-0.249027,-1.773220,0.941543
1374,134.218357,70.374609,-35.767147,-0.204715,-2.000031,0.822644
1375,97.962921,87.830930,-16.357671,-0.067506,-2.000031,0.652232
1376,69.642176,102.052338,4.760815,0.029175,-2.000031,0.262333
1377,48.645762,91.981384,28.198672,0.088746,-2.000031,-0.232670
1378,-3.112840,40.283818,59.754330,0.198734,-1.989899,-0.351202
1379,-54.627298,-25.696193,84.718090,0.352056,-1.579858,0.227420
1380,-73.792630,-62.684062,94.422828,0.415534,-1.232807,0.843397
1381,-77.332723,-69.886320,89.295796,0.609751,-0.788952,-1.839139
1382,-101.136797,-76.539254,75.196460,0.238773,0.978286,1.296895
1383,-118.715190,-91.126879,54.139010,-0.149416,0.538949,1.286885
1384,-69.642176,-85.084306,62.806134,-0.235843,1.093767,0.083253
1385,-193.057145,-129.213397,63.050278,-0.045655,0.431525,-0.628672
1386,-301.396201,-114.625772,83.985657,0.443610,-0.163210,-0.018677
1387,-312.382696,-105.836576,80.384527,1.309834,-0.093019,1.974151
1388,-254.520485,-70.618753,44.861524,1.720851,-0.079835,1.999969
1389,-154.970626,-23.926146,3.234913,1.246235,-0.187259,1.999969
1390,-133.730068,3.295949,-14.038300,0.378424,0.092775,1.969146
1391,-154.055085,32.471199,-6.897078,-0.510140,-0.142092,1.999969
1392,-106.141756,33.325704,10.070954,-1.118914,-0.209232,1.795560
1393,-102.906844,-10.131991,29.358358,-0.904555,-0.453254,1.232807
1394,-65.003433,-46.631571,40.955215,-0.335454,-0.054566,0.896498
1395,-69.825284,-70.496681,40.772107,0.245487,0.179080,0.907729
1396,-77.027543,-79.407950,27.283131,0.519173,0.057740,1.796414
1397,-46.265354,-66.529335,16.296635,0.245365,-0.134157,1.556542
1398,-28.076600,-59.632258,2.929732,0.043824,0.059449,1.299092
1399,-35.950256,-53.772793,1.464866,0.208621,0.044556,1.298848
1400,-31.799802,-39.002060,-0.244144,0.186893,-0.016846,1.331807
1401,-19.775692,-25.024796,-0.793469,0.079225,0.040528,1.167742
1402,-17.395285,-19.287404,-0.610361,0.003906,0.066773,1.056413
1403,-18.310826,-14.831769,-0.122072,0.097047,0.084474,1.023087
1404,-22.583352,-7.080186,0.854505,0.056397,0.063111,1.022232
1405,-23.682002,0.183108,0.488289,0.104982,0.027466,1.109148
1406,-20.202945,8.667124,0.854505,0.067262,0.045899,1.067887
1407,-18.188754,12.024109,1.342794,-0.006104,0.045899,0.977066
1408,-22.339208,10.803388,2.685588,-0.033082,0.034791,0.990249
1409,-19.714656,8.667124,1.770047,-0.010498,0.036622,1.007095
1410,-19.897765,7.446403,1.220722,-0.009277,0.027466,1.007584
1411,-17.822538,5.493248,0.366217,-0.032105,0.021118,0.994400
1412,-16.784924,3.723201,-0.122072,-0.021241,-0.001099,1.010025
1413,-15.320058,1.953155,0.488289,-0.019654,0.000000,1.008560
1414,-13.122759,1.953155,1.037613,-0.012085,0.011475,0.981582
1415,-15.197986,0.732433,2.563516,-0.028931,0.016968,0.971817
1416,-15.381094,-1.464866,3.234913,-0.028809,0.013550,0.958633
1417,-17.090105,-4.333562,2.807660,-0.022950,0.021118,0.984390
1418,-18.371862,-5.920500,2.136263,-0.013550,0.002564,1.002457
1419,-16.906996,-6.347753,1.098650,-0.001343,0.000000,1.016983
1420,-15.564202,-6.164645,1.098650,0.003052,0.045533,1.007095
1421,-15.625238,-4.638743,0.915541,-0.003296,0.006714,0.973037
1422,-18.860151,-4.333562,1.037613,-0.000855,0.008057,1.005386
1423,-21.057450,-3.418021,1.159686,-0.011475,0.003662,0.983780
1424,-22.766461,-2.868696,1.403830,0.001343,0.009766,0.955581
1425,-28.992142,-2.624552,2.014191,0.011353,0.004028,1.019303
1426,-29.419394,-2.014191,1.831083,0.002686,-0.050050,1.039078
1427,-23.926146,-1.037613,1.220722,0.010864,-0.057862,1.047501
1428,-21.362631,0.305180,1.464866,-0.005005,-0.054932,1.049577
1429,-16.968032,0.915541,1.403830,0.000000,-0.040650,1.021378
1430,-17.212177,2.136263,1.464866,0.011841,-0.043824,1.035416
1431,-15.259022,4.089418,1.770047,0.001343,-0.052857,1.013443
1432,-13.672084,5.737392,2.319371,-0.004761,-0.049561,0.990982
1433,-12.329290,5.737392,2.380407,-0.023926,-0.041138,0.991714
1434,-14.587625,3.967346,2.197299,-0.017212,-0.038209,1.000381
1435,-16.601816,3.173877,2.441444,0.005859,-0.035035,0.981704
1436,-18.371862,2.014191,2.380407,-0.030030,-0.028077,0.989151
1437,-19.348440,0.732433,1.709010,-0.019165,-0.030396,0.973404
1438,-20.935378,-0.671397,1.220722,-0.014160,-0.039918,0.980728
1439,-23.254749,-2.441444,0.732433,-0.029786,-0.060426,0.969619
1440,-23.498894,-4.150454,0.122072,-0.014771,-0.051759,0.986465
1441,-25.574121,-5.676356,-0.366217,-0.012940,-0.041627,0.978653
1442,-28.564889,-5.859464,-0.915541,-0.009766,-0.038087,0.965957
1443,-30.945296,-5.554284,-1.281758,-0.010132,-0.032837,1.003311
1444,-35.584039,-3.662165,0.549325,0.028565,-0.075563,1.005875
1445,-39.612421,-2.807660,2.990768,-0.003540,-0.121950,1.007095
1446,-34.607462,-1.464866,4.760815,-0.027222,-0.089967,1.005753
1447,-35.461967,-1.831083,5.920500,0.005615,-0.066407,1.008682
1448,-41.992828,-1.464866,6.713970,-0.035523,-0.077760,0.978408
1449,-38.757916,-3.601129,5.127031,-0.038575,-0.063478,1.039445
1450,-39.429313,-1.220722,2.746624,0.012940,-0.126223,0.834730
1451,-29.053178,2.990768,4.394598,0.037720,-0.197879,0.890394
1452,-34.851606,1.586938,0.183108,-0.095216,-0.041260,1.051408
1453,-57.312886,-7.141222,-5.188067,-0.070680,-0.080690,1.032731
1454,-42.664225,-4.394598,-15.014878,-0.047120,-0.104128,0.958877
1455,-48.828870,-6.469825,-23.987182,0.059449,-0.255253,0.990005
1456,-41.260395,-3.051804,-7.263294,0.116335,-0.220096,1.094743
1457,-40.650034,3.601129,-1.403830,0.065553,-0.141604,1.044938
1458,-53.223468,5.371176,-3.479057,-0.051637,-0.060914,0.942031
1459,-70.252537,0.915541,-12.939651,-0.019532,0.215457,0.890150
1460,-101.686122,1.403830,-20.752270,0.043946,0.127199,0.898817
1461,-156.618601,2.624552,-3.234913,0.097658,0.291264,0.917861
1462,-176.333257,6.408789,1.709010,0.005371,-0.190188,1.089372
1463,-213.015946,7.995727,-9.399557,-0.098878,0.593271,1.296773
1464,-397.528038,-9.643702,-17.700465,0.077150,0.549813,1.326436
1465,-592.660410,11.902037,52.979324,0.361212,0.671031,1.930816
1466,-755.809873,20.996414,86.854353,0.100710,0.036133,1.999969
1467,-813.061723,52.429999,81.605249,0.235843,0.292729,1.090959
1468,-923.537041,55.970092,63.172351,1.096818,-2.000031,1.999969
1469,-941.603723,47.791257,161.562524,-1.595850,0.026734,1.999969
1470,-62.867170,-20.019837,-59.266041,-0.735973,-1.124773,1.999969
1471,334.538796,16.296635,-37.048905,-0.829847,0.949599,1.999969
1472,205.447471,-29.907683,-12.085145,-0.531136,0.751354,1.342184
1473,58.838788,-71.900511,74.586099,-0.545663,0.741588,0.441657
1474,31.616693,-106.141756,77.943084,-0.167727,0.263188,0.146853
1475,115.907530,-84.412909,53.711757,0.029664,0.289189,0.230228
1476,110.658427,-72.083619,37.170977,0.115602,0.508675,0.259892
1477,73.548486,-63.233387,24.231327,0.169436,0.467903,0.691173
1478,103.822385,-43.945983,2.807660,0.145144,0.448005,0.908583
1479,135.133898,-33.325704,-16.113527,0.094362,0.545052,1.004532
1480,144.289311,-36.621653,-27.832456,0.046265,0.473152,1.161395
1481,167.238880,-43.396658,-38.391699,-0.019654,0.372808,1.540551
1482,213.443198,-48.096437,-46.875715,-0.041627,0.314336,1.578271
1483,257.572290,-42.786297,-56.580453,-0.064698,0.230472,1.387350
1484,278.202487,-35.400931,-64.087892,-0.061036,0.080079,1.119890
1485,290.531777,-24.597543,-69.703212,-0.099733,-0.052003,0.880629
1486,294.987411,-20.080873,-72.266728,-0.127321,-0.107912,0.793469
1487,292.362860,-20.630198,-72.144656,-0.135866,-0.138308,0.878676
1488,294.682231,-21.972992,-71.534295,-0.134890,-0.133791,1.001358
1489,299.382010,-19.897765,-73.487449,-0.099489,-0.138796,1.036271
1490,294.804303,-6.103609,-77.821012,-0.082033,-0.215091,0.959487
1491,280.338750,20.202945,-84.229801,-0.080690,-0.391363,0.805554
1492,260.196841,53.955901,-84.718090,-0.150393,-0.435554,0.865980
1493,232.730602,68.299382,-80.201419,-0.194461,-0.430182,1.021744
1494,220.584421,64.576181,-75.196460,-0.211185,-0.356817,1.433127
1495,211.856260,66.346227,-69.092851,-0.262455,-0.335943,1.999969
1496,217.410544,88.502327,-59.937438,-0.286381,-0.456306,1.999969
1497,241.519799,114.625772,-49.561303,-0.290898,-0.633799,1.999969
1498,256.900893,126.771954,-36.438544,-0.268437,-0.729747,1.999969
1499,251.468681,118.348974,-20.141909,-0.247196,-0.797253,1.999969
1500,254.764630,99.916075,-5.310140,-0.163821,-0.825696,1.999969
1501,275.944152,88.807507,4.211490,-0.028077,-0.863539,1.999969
1502,297.734035,90.272374,8.361944,0.126467,-0.872450,1.999969
1503,297.978180,95.155261,8.484016,0.541512,-0.846448,1.713771
1504,285.221637,99.732967,0.793469,0.711803,-0.753796,1.628565
1505,264.103151,83.741512,-7.385367,0.641611,-0.828016,1.645411
1506,258.243687,56.519417,-14.282444,0.487800,-0.953628,1.671778
1507,248.355840,32.776379,-20.080873,0.285893,-1.184588,1.651514
1508,228.213931,26.245518,-24.658579,0.214115,-1.617945,1.521996
1509,190.615702,32.715343,-30.395972,0.469368,-2.000031,1.206928
1510,143.678950,58.472572,-50.659953,0.876112,-2.000031,0.913466
1511,114.808881,118.104829,-90.455482,1.017472,-2.000031,0.225589
1512,100.648508,164.980545,-103.761349,0.105592,-2.000031,-2.000031
1513,-53.040360,5.004959,-27.893492,-0.225345,-2.000031,-2.000031
1514,-237.369345,-204.226749,54.200046,0.563363,-2.000031,-1.287007
1515,-259.708553,-289.921416,47.791257,1.504540,-1.181659,1.779934
1516,-117.189288,-139.894713,10.376135,0.585092,0.384649,1.999969
1517,-112.001221,-57.679103,12.390326,-0.515755,1.222065,1.999969
1518,-200.869764,-97.291524,35.156786,-0.340703,0.330571,0.232303
1519,-249.942779,-92.347601,40.100710,-0.032349,-0.381842,0.165042
1520,-270.878157,-59.266041,52.918288,0.045045,-0.207767,1.942412
1521,-265.506981,-55.909056,59.510185,0.762341,-0.142092,1.999969
1522,-171.877623,-21.179522,32.410163,0.955581,-0.361089,1.999969
1523,-88.319219,16.601816,7.934691,0.243290,0.041993,1.028702
1524,-159.243153,17.395285,25.574121,-0.805188,0.175174,1.413230
1525,-183.108263,-43.823911,41.504540,-1.087419,-0.769421,1.714137
1526,-55.664912,-99.610895,40.711070,-0.143313,-0.192630,1.953765
1527,-57.251850,-107.667659,26.794842,1.534691,0.117067,1.999969
1528,-9.155413,-30.884260,-2.685588,0.701305,-0.013306,1.317403
1529,-27.466239,-16.418708,-6.164645,-0.722301,0.081544,0.713024
1530,-62.989242,-57.984283,13.183795,0.130373,0.191775,1.220844
1531,-43.579767,-37.537194,-2.746624,0.555917,-0.010742,1.347555
1532,-43.640803,-10.925460,1.098650,-0.077882,-0.025757,1.111955
1533,-40.527962,-14.038300,2.502480,0.065309,-0.090211,1.263813
1534,-19.104295,-9.521630,-0.122072,0.127932,0.022095,1.100847
1535,-25.207904,-4.150454,2.136263,0.020508,-0.004028,1.070451
1536,-19.409476,-4.455634,2.319371,0.056397,0.005371,1.054337
1537,-13.366903,-4.028382,2.014191,0.071656,0.037354,1.007706
1538,-18.982223,-2.136263,2.868696,0.008057,0.022827,0.968643
1539,-19.226368,-4.577707,2.380407,-0.022705,0.000732,1.018814
1540,-20.935378,-5.981537,2.868696,0.022095,-0.002441,0.992203
1541,-19.287404,-5.249104,-0.244144,0.014405,-0.142947,0.867445
1542,-21.911955,-7.507439,1.770047,0.013428,-0.008057,1.011002
1543,-22.644388,-9.155413,3.051804,0.022217,-0.001221,0.990982
1544,-23.865110,-10.620279,2.685588,-0.025635,-0.022339,0.981827
1545,-21.667811,-12.573434,2.014191,0.019654,-0.047852,0.998672
1546,-17.578393,-12.451362,1.586938,0.050538,-0.004395,1.066545
1547,-15.014878,-11.169604,1.525902,0.024537,-0.024048,1.043717
1548,-11.169604,-10.070954,0.793469,0.019532,-0.034058,1.023453
1549,-10.620279,-9.338521,0.671397,0.030030,-0.020630,0.988663
1550,-12.207218,-9.277485,0.732433,0.018067,-0.006104,1.007462
1551,-11.963073,-9.338521,0.305180,0.020020,-0.008789,0.968765
1552,-15.259022,-9.521630,0.488289,0.037232,-0.012940,1.000992
1553,-16.235599,-9.155413,0.915541,0.051514,-0.031373,1.050675
1554,-11.963073,-7.202258,0.305180,0.050416,-0.041871,1.010758
1555,-12.695506,-6.530861,0.488289,0.051148,-0.021241,1.030411
1556,-11.841001,-5.493248,0.915541,0.050904,-0.041505,1.023331
1557,-9.155413,-4.028382,0.244144,0.048463,-0.025391,1.046403
1558,-9.948882,-2.746624,0.915541,0.069703,-0.071534,1.040909
1559,-6.530861,-1.220722,0.793469,0.035279,-0.058717,0.991592
1560,-7.873655,-1.892119,1.342794,0.016480,0.008789,0.971084
1561,-10.742351,-2.990768,1.159686,0.036744,-0.027588,0.987198
1562,-11.352712,-3.295949,0.427253,0.045533,-0.061158,0.997696
1563,-10.070954,-2.868696,0.427253,0.053712,-0.045289,1.001602
1564,-12.512398,-2.563516,0.976577,0.059937,-0.057618,1.011856
1565,-11.413748,-1.770047,1.037613,0.064210,-0.057496,1.017472
1566,-11.413748,-0.427253,1.342794,0.049561,-0.059815,1.010880
1567,-10.559243,0.488289,1.525902,0.060426,-0.056397,1.001358
1568,-10.681315,1.281758,1.770047,0.045533,-0.054322,0.988540
1569,-13.061723,0.854505,2.136263,0.032715,-0.055299,0.974502
1570,-13.733120,-0.061036,1.892119,0.019165,-0.047608,0.947524
1571,-16.968032,-2.075227,1.892119,0.037964,-0.031006,0.946426
1572,-21.667811,-3.540093,1.709010,0.030640,-0.039185,0.966934
1573,-24.597543,-4.272526,1.159686,0.055177,-0.064210,0.982071
1574,-26.184482,-4.333562,1.037613,0.048096,-0.066896,0.976699
1575,-28.931106,-4.150454,1.770047,0.031861,-0.099123,0.956680
1576,-23.743038,-3.295949,2.258335,0.110842,-0.055055,1.082902
1577,-28.381781,1.647974,3.234913,0.059693,-0.104494,1.035538
1578,-26.367590,3.845274,5.554284,0.075563,-0.132326,1.018082
1579,-20.874342,6.286717,6.836042,0.033814,-0.103151,0.996963
1580,-19.043259,6.225681,7.812619,0.104128,0.001465,0.956924
1581,-37.293050,8.667124,7.385367,-0.036378,-0.045289,0.964370
1582,-39.246204,4.638743,5.127031,0.021973,-0.063233,0.979751
1583,-39.002060,5.310140,2.258335,0.018555,-0.063233,0.973037
1584,-47.425040,3.295949,0.793469,-0.014160,-0.098146,0.968154
1585,-44.312200,2.624552,-1.037613,-0.002686,-0.078492,1.014542
1586,-44.373236,4.638743,-4.699779,-0.034180,-0.097902,1.023087
1587,-45.777066,2.441444,-8.117800,-0.018189,-0.152468,1.006485
1588,-39.307240,3.540093,-7.690547,0.032105,-0.241581,1.010513
1589,-49.195087,3.173877,-13.550011,0.056764,-0.265995,1.096696
1590,-36.316472,-2.197299,-8.056764,0.099977,-0.263432,1.023209
1591,-23.682002,0.671397,-5.004959,0.138308,-0.212772,1.070085
1592,-24.780652,4.821851,-0.854505,0.046021,-0.020142,1.011002
1593,-52.796216,8.667124,-9.948882,0.039307,0.212039,0.927504
1594,-105.043107,14.343481,-18.677043,0.098756,0.207645,0.988174
1595,-138.368811,23.376822,-22.034028,0.003906,0.380865,0.764782
1596,-178.225376,9.094377,-28.931106,-0.189578,0.216434,0.744152
1597,-204.959182,-25.696193,-26.977951,0.035645,0.909926,0.345220
1598,-360.418097,-33.997101,-48.462654,-0.006226,0.976577,1.852323
1599,-548.104067,-75.867857,-37.170977,-0.815076,0.203128,1.331319
1600,-696.299687,-174.258030,24.231327,-0.231449,0.098756,1.186664
1601,-826.672770,-217.959869,54.077974,0.070314,-0.184329,0.994278
1602,-901.686122,-216.372931,77.882048,0.815320,-2.000031,1.999969
1603,-954.055085,-170.229648,228.213931,-0.709972,-0.548348,1.999969
1604,-14.587625,-70.252537,-23.376822,-0.105959,-1.081926,1.999969
1605,421.759365,24.353399,-31.006332,-0.472419,0.621714,1.999969
1606,230.472267,45.716030,-45.716030,-0.326543,0.778698,0.825818
1607,16.113527,-16.113527,31.921874,-0.705089,0.619516,0.174685
1608,-58.777752,-60.547799,53.162432,-0.328740,0.075196,0.251469
1609,49.439231,-37.354086,41.321431,-0.253910,0.130739,0.475471
1610,106.996262,-23.315785,30.457008,-0.176883,0.427741,0.482673
1611,62.867170,-21.484703,31.250477,-0.109499,0.447395,0.730968
1612,68.604562,-14.221408,26.550698,-0.103883,0.340826,1.065934
1613,125.429160,-4.211490,16.296635,-0.081544,0.394781,1.092790
1614,147.280079,-5.493248,9.826810,-0.005493,0.444953,1.055924
1615,159.853513,-4.394598,1.647974,0.052857,0.368048,1.090471
1616,189.394980,7.385367,-9.826810,0.080690,0.309697,1.046891
1617,208.255131,21.972992,-20.141909,0.079103,0.251591,0.980484
1618,212.832837,32.532235,-25.268940,0.040894,0.137331,1.055314
1619,224.612802,39.063096,-26.733806,-0.031128,0.013428,1.123430
1620,241.519799,41.565576,-25.635157,-0.036988,-0.106569,1.093645
1621,255.008774,44.251164,-23.620966,0.008789,-0.110475,1.179828
1622,261.234455,46.875715,-23.132677,0.172976,-0.122072,1.221210
1623,265.812161,54.322118,-28.259709,0.358038,-0.159426,1.310811
1624,268.863966,66.895552,-38.818952,0.435065,-0.258793,1.362081
1625,271.488518,76.600290,-50.720989,0.410529,-0.391852,1.347311
1626,272.831312,78.797589,-58.472572,0.354253,-0.482795,1.366354
1627,267.826352,73.731594,-61.341268,0.280888,-0.591684,1.368429
1628,266.422522,67.566949,-61.280232,0.172366,-0.669810,1.401755
1629,265.506981,60.852979,-57.129778,0.052125,-0.694591,1.428489
1630,259.647517,52.735180,-49.317159,-0.060670,-0.671519,1.543114
1631,251.956970,50.843061,-41.321431,-0.076905,-0.648569,1.662013
1632,250.247959,56.702525,-35.523003,-0.083986,-0.644785,1.735500
1633,247.501335,69.092851,-30.090791,-0.086793,-0.633433,1.769070
1634,242.374304,79.835203,-22.827497,-0.104616,-0.632334,1.779934
1635,238.284886,81.483177,-13.550011,-0.084596,-0.640635,1.765408
1636,236.758984,78.370336,-4.882887,-0.024903,-0.634165,1.765042
1637,235.111009,76.356146,1.647974,0.080690,-0.614755,1.755520
1638,231.265736,76.295109,4.699779,0.158450,-0.599741,1.734157
1639,226.932174,73.914702,4.882887,0.199344,-0.602060,1.688624
1640,222.293431,68.787671,2.380407,0.215702,-0.617319,1.619654
1641,215.152209,61.097124,-2.868696,0.258671,-0.644541,1.594751
1642,205.142290,55.725948,-11.535821,0.305425,-0.721813,1.587915
1643,194.705119,56.763561,-23.437858,0.307134,-0.872938,1.537255
1644,183.230335,63.172351,-34.790570,0.259525,-1.091325,1.498924
1645,171.694514,74.158846,-41.382467,0.266606,-1.408225,1.404196
1646,151.369497,87.342641,-42.420081,0.356451,-1.854643,1.361837
1647,121.461814,104.188602,-37.537194,0.486580,-2.000031,1.253071
1648,114.564736,130.678264,-26.916915,0.546639,-2.000031,0.681651
1649,119.142443,132.692454,-17.334249,0.469856,-2.000031,-0.310430
1650,68.116274,77.821012,4.943923,0.388312,-2.000031,-1.101457
1651,-16.235599,-12.451362,30.945296,0.282109,-2.000031,-2.000031
1652,-184.939345,-170.656901,53.528649,1.038468,-1.745144,-2.000031
1653,-242.374304,-218.997482,23.498894,1.071672,-0.729870,1.052384
1654,-142.580301,-155.519951,2.990768,0.016846,0.792615,1.999969
1655,-140.749218,-113.221942,7.934691,-0.657969,1.377218,1.999969
1656,-276.554513,-107.789731,32.654307,-0.998428,0.209110,0.573251
1657,-325.383383,-111.390860,58.228428,-0.726329,-0.776501,0.601816
1658,-276.066224,-113.527123,75.196460,0.306279,-0.598886,1.999969
1659,-238.529030,-67.750057,75.257496,1.400534,-0.109255,1.999969
1660,-185.122454,-46.448463,40.650034,1.650172,-0.048829,1.999969
1661,-150.453956,-0.793469,10.376135,0.901747,-0.060304,1.912871
1662,-148.317693,34.729534,5.371176,-0.314458,-0.247929,1.638331
1663,-156.984817,-3.479057,28.503853,-1.241718,-0.337285,1.978058
1664,-78.858625,-55.664912,35.584039,-0.547372,-0.271000,1.440452
1665,-58.350500,-90.211337,19.409476,1.133928,0.212161,1.999969
1666,-36.133364,-31.799802,2.502480,0.646372,-0.033326,1.479759
1667,-39.124132,-15.136950,-0.549325,-0.563363,0.021485,1.041032
1668,-54.993515,-54.016938,13.305867,-0.180423,0.004028,1.138811
1669,-22.766461,-51.758602,1.647974,0.374395,0.082399,1.266743
1670,-40.527962,-32.227054,-1.098650,0.086915,-0.111940,1.181415
1671,-22.339208,-29.419394,-1.342794,-0.068849,-0.054078,1.182025
1672,-7.751583,-29.480430,-3.112840,0.126711,0.065919,0.958145
1673,-25.268940,-23.682002,-1.770047,0.035645,0.026734,0.976333
1674,-25.635157,-19.592584,-0.732433,0.080934,-0.013184,1.063249
1675,-20.996414,-11.718929,-0.427253,0.164431,0.047608,1.036393
1676,-28.564889,-1.770047,1.831083,0.098634,0.002441,1.049577
1677,-28.198672,4.516670,3.479057,0.083986,0.009400,1.034928
1678,-30.457008,8.117800,3.356985,0.064210,-0.051392,1.059953
1679,-25.513085,9.643702,3.906310,0.048341,-0.054444,1.048600
1680,-20.935378,8.422980,2.868696,0.023804,-0.020996,1.024186
1681,-23.010605,7.629511,2.258335,0.036866,-0.016236,1.034562
1682,-21.789883,7.507439,0.793469,0.035523,-0.035401,1.020035
1683,-20.569162,8.117800,0.671397,0.036866,-0.037598,1.027237
1684,-20.691234,8.545052,0.976577,0.030884,-0.066163,1.037369
1685,-17.151141,8.667124,1.586938,0.028321,-0.058106,1.040665
1686,-14.038300,8.117800,1.586938,0.007202,-0.061524,1.012345
1687,-13.000687,6.958114,2.014191,0.016968,-0.057618,1.004044
1688,-12.329290,6.103609,2.258335,0.015503,-0.068482,1.010636
1689,-10.131991,4.943923,2.197299,0.012818,-0.049928,0.995132
1690,-12.878614,4.211490,2.319371,0.026978,-0.044923,1.038956
1691,-9.887846,4.516670,2.441444,0.002564,-0.045045,0.996963
1692,-12.024109,2.746624,1.770047,0.005249,-0.055909,0.971328
1693,-13.244831,1.770047,1.464866,0.026123,-0.075319,1.023453
1694,-10.131991,2.014191,1.831083,0.001221,-0.072877,0.993912
1695,-9.765774,0.610361,1.709010,0.009888,-0.074098,1.000626
1696,-9.643702,-0.305180,1.464866,0.003052,-0.083742,1.023087
1697,-6.164645,-0.915541,1.342794,0.019287,-0.082887,1.002213
1698,-5.004959,-1.831083,1.342794,-0.012696,-0.070436,0.976822
1699,-4.943923,-4.516670,0.854505,-0.016114,-0.049683,0.955459
1700,-7.812619,-7.019150,0.000000,0.004883,-0.059815,0.980728
1701,-8.422980,-7.873655,-0.610361,0.018555,-0.077760,1.010758
1702,-6.836042,-7.568475,-0.976577,0.025025,-0.071412,1.009781
1703,-7.629511,-7.141222,-0.732433,0.030640,-0.073121,1.004288
1704,-7.629511,-6.652934,-0.854505,0.025391,-0.067628,0.989883
1705,-9.094377,-6.286717,-1.037613,0.029664,-0.073854,0.995377
1706,-11.169604,-5.493248,-0.549325,0.042481,-0.089723,1.020157
1707,-10.437171,-3.845274,0.244144,0.038819,-0.085573,1.019425
1708,-9.643702,-2.807660,0.793469,0.024292,-0.086549,0.982925
1709,-11.047532,-2.807660,1.037613,0.022583,-0.069581,0.977188
1710,-13.794156,-3.601129,0.915541,0.011841,-0.067750,0.979873
1711,-14.709697,-4.699779,0.061036,0.010376,-0.052613,0.966934
1712,-19.287404,-5.798428,-0.549325,0.025025,-0.066163,0.971328
1713,-21.667811,-6.042573,-0.732433,0.019165,-0.075685,0.975235
1714,-25.452049,-6.347753,-0.610361,0.036866,-0.106203,0.998550
1715,-25.024796,-6.225681,-0.549325,0.042115,-0.107790,1.033829
1716,-25.146868,-3.051804,0.000000,0.054078,-0.149172,1.001724
1717,-20.874342,-0.976577,0.854505,0.035889,-0.135988,1.048722
1718,-18.738079,-0.061036,1.647974,0.056397,-0.114504,1.055314
1719,-18.799115,0.183108,1.647974,0.019532,-0.122316,1.013321
1720,-15.381094,0.305180,2.014191,0.042115,-0.089479,0.980117
1721,-22.583352,1.037613,3.356985,0.041627,-0.094728,1.015763
1722,-23.743038,1.403830,3.540093,0.022217,-0.116945,1.005386
1723,-22.949569,1.953155,3.234913,0.045167,-0.104738,0.974746
1724,-30.029755,2.624552,3.906310,0.007446,-0.109743,1.004288
1725,-30.823224,2.929732,3.906310,0.036988,-0.121218,1.005631
1726,-32.166018,3.051804,3.784237,0.014893,-0.111818,1.021378
1727,-33.630884,2.685588,2.929732,0.012329,-0.114137,1.036149
1728,-32.959487,4.394598,1.647974,-0.000488,-0.134646,0.985489
1729,-34.546426,3.479057,-0.549325,0.009033,-0.150271,1.034195
1730,-27.832456,3.845274,-2.258335,0.004517,-0.149416,1.000626
1731,-25.329976,2.502480,-7.934691,-0.027344,-0.167117,1.007218
1732,-23.315785,0.488289,-12.451362,-0.005371,-0.235477,1.011002
1733,-23.193713,1.953155,-16.479744,-0.024414,-0.223636,1.018326
1734,-28.320745,1.281758,-12.268254,0.048585,-0.243290,1.024796
1735,-20.263981,0.793469,-3.295949,0.114382,-0.228397,1.056291
1736,-21.789883,3.295949,-4.821851,0.046998,-0.135500,1.033463
1737,-28.686961,3.418021,-8.911269,0.026123,0.050538,0.942763
1738,-65.980011,8.422980,-21.606775,0.060670,0.071656,0.938247
1739,-100.770581,12.329290,-20.263981,0.055665,0.142947,0.731823
1740,-125.307088,8.545052,-26.001373,-0.069459,0.177859,0.707408
1741,-164.919509,-13.550011,-31.738766,-0.204837,0.143435,0.618051
1742,-228.091859,-11.352712,-34.424353,0.158816,0.433600,1.157244
1743,-374.029145,-33.691920,-33.813993,-0.317998,-0.045045,1.267231
1744,-492.744335,-124.635691,16.540780,-0.827527,-0.380621,0.858167
1745,-565.072099,-207.156481,37.354086,-0.100221,-0.426520,0.827405
1746,-604.257267,-234.012360,65.796902,0.234989,-0.424445,1.119280
1747,-645.639735,-236.270695,89.784085,0.221805,-0.576425,0.732067
1748,-732.860304,-246.524758,145.754177,0.441413,-1.939971,1.999969
1749,-459.662776,-174.685283,139.467460,-0.128054,-0.235966,1.999969
1750,39.246204,-93.080034,-14.221408,0.299565,0.316899,1.999969
1751,134.889754,32.959487,-52.246891,0.309697,1.161639,1.999969
1752,30.395972,46.570535,-31.860838,-0.305303,0.851087,1.999969
1753,-1.159686,19.348440,-19.958801,-0.287724,0.236088,1.768948
1754,122.255283,39.612421,-17.273213,-0.411383,0.064820,1.124529
1755,171.145190,34.302281,-7.629511,-0.323857,0.158694,0.458869
1756,133.363851,20.935378,7.507439,-0.248661,0.116579,0.301762
1757,128.114748,20.202945,15.503166,-0.149050,0.032227,0.392096
1758,149.904631,27.527276,14.892805,-0.078004,0.106325,0.469734
1759,150.942245,26.489662,12.939651,0.032105,0.171511,0.631357
1760,158.693828,26.367590,5.554284,0.138918,0.161746,0.862074
1761,182.925155,33.875029,-7.324331,0.243534,0.208255,1.098894
1762,202.090486,42.908370,-22.339208,0.351446,0.188602,1.224384
1763,218.753338,55.664912,-39.002060,0.478157,0.018067,1.243305
1764,235.355154,71.351186,-56.275273,0.473884,-0.132082,1.291524
1765,252.018006,79.957275,-71.595331,0.421759,-0.373297,1.249042
1766,268.863966,80.506600,-80.933852,0.343999,-0.527718,1.119890
1767,277.531090,76.661326,-84.534981,0.222416,-0.669200,0.936416
1768,273.807889,69.275959,-80.628672,0.117433,-0.781262,0.854627
1769,265.690089,63.050278,-71.839475,0.003052,-0.863539,0.844862
1770,253.116655,58.228428,-58.533608,-0.165530,-0.942397,0.877211
1771,242.557412,52.674144,-39.673457,-0.322515,-0.964126,0.962295
1772,230.655375,47.730220,-17.334249,-0.408453,-0.954849,1.065080
1773,222.537575,48.218509,6.225681,-0.463874,-0.914687,1.145892
1774,212.832837,47.547112,29.297322,-0.497688,-0.898573,1.239155
1775,204.470893,44.495308,51.514458,-0.479011,-0.857679,1.381735
1776,198.428321,40.955215,69.275959,-0.307988,-0.846815,1.595117
1777,204.592966,61.890593,78.614481,0.279423,-0.736095,1.619043
1778,202.395666,84.779126,71.717403,0.568368,-0.694713,1.412375
1779,191.287099,94.300755,60.608835,0.744396,-0.712291,1.288472
1780,176.882582,86.121920,52.429999,0.713024,-0.746227,1.294453
1781,164.003967,58.777752,47.974365,0.675792,-0.832898,1.390402
1782,164.309148,31.860838,42.847333,0.625620,-0.868055,1.385763
1783,161.501488,13.000687,33.386740,0.613046,-0.862806,1.250629
1784,146.181430,2.075227,17.090105,0.544320,-0.882216,1.103899
1785,122.865644,3.051804,-4.089418,0.458137,-0.927871,1.087907
1786,100.038148,14.160372,-28.503853,0.372930,-1.003311,1.133562
1787,83.497368,35.828183,-52.552071,0.348028,-1.108537,1.171893
1788,68.482490,64.820325,-72.327764,0.273442,-1.259419,1.085710
1789,55.848020,91.309987,-83.436332,0.211307,-1.386007,0.917250
1790,38.513771,114.015412,-83.558404,0.157595,-1.467674,0.700206
1791,18.860151,123.170825,-74.464027,0.143435,-1.567285,0.361944
1792,-12.573434,93.446250,-54.505226,-0.110475,-1.997711,-1.017105
1793,-70.130465,-30.762188,-11.169604,0.252323,-1.682521,-0.024170
1794,-87.159533,-100.831617,9.826810,0.553231,-1.549340,0.435798
1795,-85.084306,-123.598077,-4.516670,0.946914,-1.026627,0.825330
1796,-43.762875,-65.613794,-25.757229,0.049195,-0.166384,1.689845
1797,9.643702,-57.740139,-35.523003,-0.840345,0.526619,1.999969
1798,-42.908370,-14.038300,-9.887846,-1.387228,0.480110,1.007828
1799,-157.351034,-142.092012,51.148241,-1.138201,0.186404,1.042618
1800,-117.189288,-151.369497,44.312200,0.288212,0.057984,0.905531
1801,-96.070802,-119.020371,-2.929732,1.782010,0.152590,1.999969
1802,-88.075074,-21.240558,-0.305180,0.958389,-0.575448,1.621118
1803,15.869383,27.222095,-10.559243,-0.733165,-0.008179,1.378683
1804,-13.488975,-13.244831,6.591897,-0.172122,0.067628,0.904799
1805,-5.493248,-5.554284,3.906310,0.505135,0.143069,1.202777
1806,-11.169604,19.165332,2.014191,-0.043458,0.067384,0.897108
1807,-23.010605,12.695506,6.836042,-0.212528,0.031128,0.929702
1808,-16.052491,2.685588,4.699779,-0.032593,0.065431,0.884169
1809,-23.010605,0.305180,4.455634,0.003052,0.064210,0.908705
1810,-32.654307,-3.479057,4.455634,-0.094606,-0.010376,1.008682
1811,-21.057450,-9.460594,2.441444,-0.035279,-0.015625,1.064103
1812,-12.085145,-9.521630,0.183108,0.058106,0.030396,1.038834
1813,-15.197986,-7.141222,0.183108,0.010254,0.007691,1.039689
1814,-11.230640,-7.141222,0.000000,-0.000855,-0.001343,1.052018
1815,-5.310140,-5.981537,-0.793469,0.035035,0.022583,1.025650
1816,-6.347753,-1.953155,-0.183108,0.035889,0.049683,0.982071
1817,-11.596857,0.305180,1.342794,0.003540,0.040894,0.976455
1818,-14.953841,0.915541,2.014191,-0.013184,0.009644,1.013321
1819,-13.000687,0.671397,2.197299,-0.012207,-0.010986,1.021134
1820,-9.521630,0.122072,2.197299,-0.019532,0.010254,1.008927
1821,-9.765774,-1.037613,2.014191,-0.027100,-0.002319,1.017838
1822,-7.263294,-1.831083,1.586938,0.005493,-0.012451,1.036149
1823,-4.699779,-0.976577,1.037613,0.011231,-0.001465,1.024674
1824,-2.868696,-0.671397,0.488289,0.001343,0.008667,0.998062
1825,-3.295949,-0.549325,-0.183108,0.005005,0.005737,1.000259
1826,-4.211490,-0.976577,-0.244144,-0.011597,0.004273,0.995377
1827,-4.150454,-1.647974,-0.244144,-0.009522,-0.009644,1.001724
1828,-3.051804,-2.075227,-0.183108,-0.007446,-0.005859,1.001358
1829,-2.990768,-2.441444,0.244144,0.000244,-0.005615,1.009781
1830,-2.441444,-1.892119,0.671397,0.009033,-0.017700,1.031144
1831,0.244144,-0.610361,0.793469,0.019287,-0.009888,1.035050
1832,1.342794,0.793469,0.976577,0.024170,-0.000977,1.026505
1833,2.563516,1.770047,0.732433,0.003052,-0.001465,1.001602
1834,3.234913,1.709010,0.549325,-0.014282,0.035889,0.943984
1835,-3.540093,0.061036,0.671397,-0.006104,0.030030,0.952651
1836,-6.164645,-1.770047,0.305180,-0.025025,-0.000488,0.992447
1837,-4.699779,-2.929732,-0.244144,-0.001831,0.007324,0.985977
1838,-6.958114,-3.723201,-0.427253,0.002197,-0.005005,1.003189
1839,-5.432212,-4.333562,-0.671397,0.002808,-0.003052,0.981704
1840,-6.164645,-4.821851,-0.854505,0.002441,0.015869,0.972793
1841,-9.460594,-5.310140,-0.671397,0.004273,-0.004273,0.996597
1842,-9.277485,-4.821851,-0.610361,0.002930,-0.009888,1.001358
1843,-8.484016,-4.821851,-0.488289,-0.000244,-0.006836,0.991958
1844,-8.789197,-5.065995,-0.610361,-0.003784,-0.009033,0.995621
1845,-8.300908,-5.310140,-0.854505,-0.001099,-0.008057,1.000748
1846,-7.812619,-5.676356,-0.976577,-0.003296,-0.010376,0.983169
1847,-9.338521,-5.554284,-0.915541,0.023682,-0.017456,1.023209
1848,-8.484016,-4.150454,-0.915541,0.024414,-0.028931,1.025162
1849,-6.652934,-2.807660,-0.732433,0.021607,-0.017700,1.018814
1850,-6.347753,-1.770047,-0.549325,0.016114,-0.024781,1.013199
1851,-5.798428,-1.342794,-0.549325,0.011841,-0.029175,1.016617
1852,-4.028382,-0.793469,-0.427253,0.008545,-0.031006,1.014298
1853,-2.990768,-0.671397,-0.305180,0.003174,-0.022827,0.988418
1854,-3.234913,-1.159686,-0.244144,0.009155,-0.019898,0.990860
1855,-3.295949,-1.586938,-0.244144,-0.003174,-0.014282,0.967788
1856,-4.333562,-2.624552,-0.366217,0.010620,0.001221,0.973037
1857,-7.446403,-3.295949,-0.305180,0.008057,-0.014160,1.003433
1858,-7.141222,-3.112840,-0.488289,0.016480,-0.018433,1.000504
1859,-7.934691,-2.807660,-0.366217,0.013916,-0.032349,1.011734
1860,-5.493248,-2.258335,-0.366217,0.003418,0.054200,1.084489
1861,-6.713970,-0.976577,0.793469,0.008179,-0.018189,1.012345
1862,-5.310140,-0.610361,0.427253,0.008789,-0.033448,1.016861
1863,-5.371176,-0.427253,0.305180,-0.000610,-0.032837,1.000259
1864,-5.432212,-1.647974,0.000000,-0.005615,-0.037720,0.990982
1865,-3.540093,-2.807660,-0.732433,0.006592,-0.031006,0.991348
1866,-4.760815,-3.723201,-0.976577,0.010254,-0.036622,1.018570
1867,-2.197299,-3.662165,-1.159686,0.006958,-0.033204,1.004532
1868,-2.563516,-3.601129,-1.403830,0.027710,-0.040284,1.008194
1869,-2.563516,-2.990768,-1.281758,-0.008789,-0.024537,1.095964
1870,-0.793469,-0.549325,-0.854505,0.040040,-0.048585,1.020645
1871,0.427253,1.037613,-0.427253,0.016968,-0.035889,1.015152
1872,0.488289,1.586938,-0.366217,0.021485,-0.035401,1.008316
1873,1.403830,2.197299,-0.427253,0.014893,-0.033082,1.005875
1874,1.342794,2.258335,-0.488289,0.015503,-0.038087,1.017350
1875,2.685588,2.319371,-0.732433,0.015991,-0.031373,1.015518
1876,2.868696,2.685588,-0.854505,0.018799,-0.041382,1.007218
1877,3.906310,2.197299,-0.976577,0.009277,-0.032349,1.007950
1878,3.418021,2.746624,-0.793469,0.024414,-0.035523,1.008682
1879,3.479057,3.906310,0.000000,0.014893,-0.041627,1.021866
1880,5.432212,4.699779,0.122072,0.010498,-0.030640,0.997818
1881,3.906310,4.699779,0.244144,0.005615,-0.028565,1.011490
1882,4.455634,4.577707,0.183108,0.005737,-0.031128,1.003677
1883,4.882887,4.089418,-0.183108,0.005127,-0.024903,0.993179
1884,4.821851,3.234913,-0.366217,0.002441,-0.032349,1.011612
1885,6.103609,2.929732,-0.732433,0.006714,-0.024414,1.000748
1886,5.554284,2.502480,-0.915541,0.008057,-0.025879,1.008316
1887,6.469825,2.563516,-0.976577,0.009522,-0.034424,1.021988
1888,8.484016,3.234913,-1.098650,0.019532,-0.020874,1.003433
1889,7.934691,3.723201,-0.854505,0.002075,-0.006836,0.968032
1890,5.249104,3.662165,-0.366217,-0.013550,0.000855,0.957412
1891,2.136263,3.112840,0.122072,0.007202,-0.001099,0.991348
1892,0.000000,3.723201,0.488289,0.021118,-0.028077,1.028824
1893,2.136263,5.127031,0.671397,0.006348,-0.028687,1.021500
1894,3.356985,6.103609,1.037613,0.003906,-0.015259,0.999527
1895,2.929732,6.042573,0.793469,-0.016724,0.002319,0.971939
