Packet number,Gyroscope X (deg/s),Gyroscope Y (deg/s),Gyroscope Z (deg/s),Accelerometer X (g),Accelerometer Y (g),Accelerometer Z (g)
0,0.427253,0.000000,-0.183108,0.003906,-0.001343,0.997086
1,0.488289,-0.183108,-0.122072,0.004761,-0.003418,0.995254
2,-0.122072,-0.305180,0.000000,-0.003662,-0.007080,0.995010
3,0.427253,-0.366217,-0.183108,0.008179,-0.002197,0.997574
4,-0.610361,-0.366217,-0.122072,0.004883,-0.010010,0.995865
5,0.122072,-0.244144,-0.183108,0.008057,-0.004150,0.998795
6,-0.122072,-0.305180,0.000000,0.008179,-0.011353,0.997574
7,0.061036,0.000000,0.000000,0.007446,0.001709,1.000259
8,-0.244144,-0.061036,0.000000,0.004273,-0.003784,0.997330
9,-0.244144,0.000000,0.000000,0.000855,-0.010254,1.003311
10,0.183108,0.122072,0.000000,0.003906,-0.008545,1.000504
11,0.122072,0.122072,0.000000,0.007202,-0.003906,0.998062
12,0.000000,0.000000,-0.122072,0.000610,-0.001221,0.995865
13,-0.183108,-0.061036,0.000000,-0.001343,-0.012818,1.006241
14,0.305180,-0.549325,-0.183108,0.018799,-0.003052,1.002701
15,-0.732433,-0.183108,-0.183108,-0.012940,-0.015259,1.002090
16,0.671397,-0.610361,-0.183108,0.027222,0.003784,1.002457
17,-1.037613,-0.061036,-0.122072,-0.017578,-0.012329,0.993668
18,0.427253,-0.305180,-0.183108,0.015991,-0.002441,1.000748
19,-0.732433,-0.183108,0.000000,0.003784,-0.008423,1.004044
20,0.000000,0.122072,-0.183108,0.013306,-0.005493,0.994156
21,-0.366217,0.000000,-0.122072,-0.005127,-0.007446,1.003799
22,0.122072,0.000000,-0.122072,0.014893,-0.003418,0.996841
23,-0.244144,0.061036,-0.122072,-0.003662,-0.011231,1.000381
24,0.366217,0.122072,-0.244144,0.005982,-0.006592,1.001114
25,-0.122072,0.122072,0.000000,0.002564,-0.009277,1.005753
26,0.427253,0.305180,0.000000,-0.001099,-0.000366,0.997330
27,0.122072,0.183108,-0.183108,0.000977,-0.007813,0.995743
28,0.122072,0.305180,0.000000,0.000000,-0.010254,1.006729
29,0.549325,0.366217,0.000000,0.001953,-0.006714,0.988174
30,0.183108,0.366217,0.000000,-0.001465,-0.007568,0.994644
31,0.427253,0.244144,0.000000,0.002808,-0.008423,0.996841
32,0.427253,0.305180,0.000000,-0.000122,-0.008057,0.996353
33,-0.061036,0.122072,0.000000,0.005249,-0.000855,1.000626
34,0.000000,0.061036,0.000000,0.004395,-0.005737,0.991592
35,-0.305180,-0.061036,0.000000,0.000610,0.002441,0.992935
36,-0.976577,-0.061036,-0.122072,0.003662,-0.013550,1.010636
37,0.183108,0.183108,0.061036,0.004395,-0.006714,1.003799
38,-0.061036,0.244144,0.061036,0.006714,-0.006470,1.013809
39,0.305180,0.427253,0.000000,0.004273,-0.005493,0.997208
40,0.305180,0.488289,0.061036,0.006104,-0.006958,1.005997
41,0.366217,0.366217,0.000000,0.004517,-0.006226,0.997330
42,0.671397,0.549325,0.000000,0.003906,-0.006592,0.999161
43,0.488289,0.488289,0.000000,0.002564,-0.001831,1.005875
44,0.732433,0.366217,0.000000,0.002441,-0.000977,0.991836
45,0.244144,0.366217,0.000000,0.003296,-0.001831,0.995377
46,0.366217,0.183108,0.000000,-0.002564,-0.005982,1.006363
47,0.244144,0.244144,0.061036,0.002808,-0.002075,0.993790
48,-0.305180,-0.061036,0.000000,0.002319,-0.005737,1.005020
49,0.000000,0.183108,0.000000,0.005249,-0.008789,1.004288
50,0.366217,0.366217,0.000000,0.005737,-0.009400,1.003067
51,0.488289,0.427253,0.122072,0.000244,-0.007691,0.993545
52,0.549325,0.671397,0.122072,-0.001465,0.002075,1.006119
53,0.000000,0.488289,0.000000,-0.000732,-0.003418,0.999771
54,0.183108,0.427253,0.061036,0.002808,-0.011597,1.005631
55,0.671397,0.244144,0.000000,-0.002319,-0.008789,1.000137
56,0.488289,0.122072,0.000000,-0.002075,-0.004639,1.002335
57,0.854505,0.061036,0.000000,-0.005371,-0.006714,0.992935
58,1.098650,0.061036,0.000000,0.001343,-0.008911,0.996719
59,1.037613,-0.122072,0.122072,-0.001099,-0.009155,0.997696
60,1.281758,-0.427253,0.061036,-0.003906,-0.006104,0.987808
61,0.854505,-0.732433,0.000000,0.002564,-0.002564,0.997574
62,0.915541,-0.854505,0.000000,-0.000855,-0.001099,1.004532
63,0.976577,-0.915541,-0.122072,-0.001831,-0.004150,1.003555
64,0.915541,-0.976577,-0.122072,0.002441,-0.008911,1.013321
65,1.464866,-0.671397,0.000000,0.003784,-0.013916,1.029923
66,3.784237,0.000000,0.061036,0.005127,-0.015381,1.014908
67,5.004959,0.671397,0.122072,0.006348,-0.011231,1.009293
68,5.798428,0.915541,0.183108,0.003540,0.000488,0.997818
69,5.798428,0.854505,0.183108,-0.000122,0.000610,0.993301
70,5.249104,0.427253,0.122072,-0.005127,-0.001709,1.002701
71,4.760815,0.366217,0.061036,0.000244,-0.000244,0.986587
72,4.577707,0.183108,0.061036,0.005982,0.006226,0.986831
73,4.150454,0.305180,0.061036,0.000244,0.003906,0.995987
74,3.906310,0.366217,0.122072,0.004273,0.014038,0.994156
75,3.540093,0.427253,0.061036,-0.000244,0.009033,0.994766
76,3.662165,0.793469,0.122072,-0.002197,-0.000732,1.006485
77,3.906310,0.793469,0.061036,0.003662,0.010498,0.996475
78,3.784237,0.976577,0.000000,0.000122,0.013062,0.986587
79,2.929732,0.793469,0.061036,-0.004517,0.006958,1.001358
80,3.356985,0.671397,0.183108,0.000366,0.008301,0.997452
81,2.807660,0.488289,0.183108,-0.006348,0.010132,0.989395
82,3.234913,0.244144,0.122072,-0.004273,0.011597,0.990738
83,2.685588,0.061036,0.000000,-0.004639,0.010742,0.994400
84,2.502480,0.061036,0.061036,-0.004883,0.002075,1.014176
85,3.906310,0.244144,-0.244144,-0.006836,0.013794,1.004898
86,3.418021,0.061036,-0.183108,-0.007446,0.012207,0.994644
87,3.479057,-0.305180,-0.305180,-0.000977,0.016480,0.986709
88,2.624552,-0.549325,-0.305180,0.000977,0.020508,0.986587
89,1.709010,-0.610361,-0.305180,0.003784,0.014893,0.986343
90,1.525902,-0.366217,-0.244144,-0.000855,0.019898,0.985611
91,0.915541,-0.610361,-0.183108,0.001343,0.018189,0.991592
92,0.732433,-0.549325,-0.122072,0.002564,0.010742,0.990494
93,0.671397,-0.427253,-0.183108,0.005615,0.012329,1.011734
94,1.342794,0.183108,-0.183108,0.004395,0.002197,1.007218
95,2.258335,0.671397,-0.122072,-0.001343,0.016358,0.994034
96,2.197299,0.671397,-0.244144,-0.002075,0.016236,0.995254
97,1.586938,0.366217,-0.183108,0.003662,0.013062,0.995987
98,1.892119,0.549325,-0.183108,-0.000122,0.016480,0.990738
99,1.342794,0.488289,0.000000,-0.000610,0.020264,0.982437
100,0.854505,0.549325,0.183108,-0.004883,0.012207,0.996109
101,1.647974,0.671397,0.427253,0.000000,0.020996,0.988540
102,1.159686,0.183108,0.671397,-0.010620,0.017700,0.982071
103,0.732433,-0.366217,0.671397,-0.001831,0.015747,0.991592
104,0.915541,-0.671397,0.671397,-0.008911,0.014282,0.998184
105,1.037613,-1.098650,0.793469,-0.002564,0.014282,0.988785
106,0.976577,-1.525902,0.976577,-0.003174,0.015625,0.994034
107,0.915541,-1.647974,0.915541,0.003052,0.013306,0.999039
108,1.953155,-1.464866,0.915541,0.003662,0.013916,1.005997
109,1.464866,-1.037613,1.037613,0.002686,0.018433,0.989639
110,1.403830,-0.610361,0.854505,-0.009277,0.035523,0.969009
111,-0.366217,-1.647974,0.915541,0.000244,0.003784,0.994766
112,2.014191,-1.892119,0.488289,-0.011597,0.021851,0.989639
113,0.671397,-2.441444,0.427253,0.013794,0.017456,1.003189
114,1.586938,-2.014191,0.244144,0.000244,0.014649,1.010025
115,1.709010,-1.953155,0.244144,0.004883,0.029053,0.990127
116,0.610361,-1.586938,0.183108,0.008057,0.004028,1.012955
117,2.014191,-1.098650,0.183108,0.004028,0.013672,1.007950
118,2.441444,-0.610361,0.305180,0.008667,0.026856,1.001968
119,1.770047,0.000000,0.305180,0.003296,0.022827,0.986954
120,1.770047,-0.366217,0.183108,-0.006104,0.034180,0.964614
121,0.000000,-1.342794,-0.183108,0.000122,0.026978,0.991104
122,-0.732433,-1.892119,-0.427253,0.005493,0.015869,1.014786
123,0.610361,-1.342794,-0.366217,0.022339,0.021363,1.008072
124,0.061036,-0.366217,-0.427253,0.011475,0.027588,0.998795
125,-0.427253,0.183108,-0.244144,0.011109,0.029419,0.985245
126,-0.915541,0.610361,-0.183108,0.003418,0.034302,0.991714
127,-2.746624,0.488289,0.000000,-0.005371,0.025147,0.986587
128,-2.868696,0.427253,0.000000,-0.001587,0.020386,0.994766
129,-3.051804,0.061036,0.000000,-0.000977,0.017334,1.007095
130,-2.746624,-0.061036,-0.244144,0.010010,0.016480,1.003189
131,-2.258335,-0.061036,-0.244144,0.003052,0.012818,0.998428
132,-1.586938,0.000000,-0.244144,0.014893,0.006104,1.017350
133,0.000000,0.671397,-0.366217,0.010010,0.009277,1.016007
134,0.732433,1.098650,-0.244144,0.014893,0.009644,1.010758
135,1.647974,1.709010,-0.122072,0.009033,0.020752,0.991836
136,1.159686,1.709010,0.000000,-0.004883,0.029297,0.977920
137,-0.366217,0.976577,-0.122072,-0.005493,0.020508,0.976822
138,-1.037613,0.671397,0.000000,-0.002197,0.025635,0.978775
139,-2.075227,0.183108,0.000000,-0.004517,0.009400,1.004166
140,-0.732433,0.305180,0.061036,0.000000,0.015869,0.996963
141,-1.098650,0.183108,0.122072,-0.002808,0.015869,0.995010
142,-0.305180,0.000000,0.000000,0.009277,0.014282,1.001846
143,0.000000,0.427253,0.000000,-0.001343,0.014282,1.001724
144,-0.061036,0.122072,0.000000,-0.008789,0.025879,0.980606
145,-0.915541,-0.366217,0.000000,0.003662,0.019532,0.996109
146,-0.854505,-0.610361,-0.244144,-0.001709,0.025635,0.983536
147,-1.770047,-1.098650,-0.244144,-0.020142,0.041749,0.948013
148,-5.249104,-2.563516,-0.305180,-0.007691,0.028809,0.953750
149,-6.591897,-3.784237,-0.549325,-0.004273,0.005615,1.000504
150,-4.943923,-3.845274,-0.610361,0.015747,0.023926,1.007584
151,-6.286717,-3.295949,-0.366217,0.003662,0.008057,1.004044
152,-4.760815,-2.441444,-0.244144,0.007691,0.015991,0.998672
153,-5.920500,-2.014191,0.000000,0.004273,0.021485,0.984146
154,-6.713970,-2.014191,0.000000,0.003296,0.034058,0.972427
155,-9.033341,-2.136263,0.183108,0.003784,0.012451,0.984146
156,-9.338521,-2.258335,0.061036,-0.002564,0.017578,0.965957
157,-11.902037,-2.807660,0.122072,0.003906,0.004395,0.989395
158,-11.596857,-2.746624,0.427253,0.021241,-0.009033,1.013321
159,-10.315099,-1.892119,0.854505,0.017700,-0.000488,1.016739
160,-9.948882,-0.976577,1.403830,0.015381,-0.008911,1.005753
161,-8.728161,-0.427253,1.464866,0.014649,0.018799,1.022354
162,-9.338521,0.183108,2.075227,0.019287,-0.016968,1.024186
163,-7.568475,1.098650,1.647974,0.003296,-0.015137,0.987198
164,-7.263294,0.732433,2.014191,0.003784,-0.022217,0.969741
165,-8.300908,0.122072,1.892119,0.004517,-0.007813,0.965713
166,-10.315099,-0.671397,2.075227,-0.006226,-0.004639,0.983536
167,-10.254063,-1.342794,1.831083,0.003296,-0.010620,0.959731
168,-12.268254,-2.136263,1.709010,-0.017945,0.017823,0.972305
169,-14.770733,-4.089418,1.709010,-0.022583,0.017334,0.972549
170,-17.151141,-5.615320,1.464866,0.002808,-0.004273,0.969741
171,-19.653620,-6.775006,1.586938,-0.013916,0.013184,0.993545
172,-20.813306,-7.507439,1.525902,0.016236,-0.006592,0.987930
173,-24.536507,-7.995727,2.136263,-0.004150,-0.069703,0.983658
174,-22.034028,-8.239872,2.014191,0.040650,-0.011109,1.018082
175,-25.696193,-7.202258,0.732433,0.027588,0.072023,0.959731
176,-33.325704,-5.676356,-0.854505,0.035035,0.080812,0.857191
177,-48.096437,-5.981537,-0.549325,-0.065064,0.023194,0.841810
178,-54.688334,-7.141222,-1.220722,0.095949,-0.032349,1.032242
179,-57.190814,-3.662165,-0.610361,-0.006104,-0.035279,1.033707
180,-54.383154,-3.295949,-2.868696,0.026612,-0.024292,0.996109
181,-57.984283,-0.244144,-1.770047,0.044068,-0.109865,0.906996
182,-65.247578,-1.892119,-3.051804,-0.040040,-0.036988,1.026749
183,-74.402991,-5.615320,-9.033341,0.020142,-0.113405,1.052262
184,-72.877089,-5.432212,-7.934691,0.026246,-0.163333,1.039689
185,-70.984970,-4.272526,-5.615320,0.009644,-0.121950,0.994400
186,-71.656367,-4.638743,-6.530861,0.024414,-0.039307,0.965957
187,-86.915389,-3.662165,-4.638743,-0.006470,0.155154,0.792859
188,-119.020371,-1.892119,-2.075227,0.074220,0.069947,0.961318
189,-146.791791,0.854505,4.760815,-0.011475,0.135134,0.919081
190,-195.010300,-1.709010,7.934691,0.056397,-0.188846,1.008072
191,-190.127413,-5.615320,11.047532,-0.160403,0.325078,1.049454
192,-271.427482,-7.507439,-11.596857,0.223148,0.106813,1.460716
193,-375.249867,-3.112840,7.629511,-0.027344,0.012451,1.063371
194,-419.806210,-9.582666,-15.442130,-0.182864,0.140749,1.139788
195,-518.074311,-33.264668,-17.273213,0.133669,-0.093507,1.507713
196,-565.743496,-28.442817,2.136263,0.000732,-0.350225,1.151263
197,-587.777523,-15.320058,44.800488,-0.572763,-1.702663,1.999969
198,-401.922637,7.446403,19.043259,-1.181781,-0.704845,1.999969
199,65.980011,10.193027,-18.982223,-0.608164,0.380621,1.999969
200,65.247578,37.903410,-32.227054,-0.244022,0.558602,1.666285
201,-52.552071,-8.667124,23.315785,-0.293217,0.386603,1.265766
202,34.241245,-29.480430,14.953841,0.076417,0.213504,0.802136
203,61.097124,-44.495308,2.075227,0.187625,0.568368,0.176516
204,3.967346,-49.256123,-6.897078,0.276860,0.358648,0.519539
205,27.222095,-26.245518,-26.916915,0.170047,0.371221,0.749889
206,30.701152,-4.272526,-39.734493,0.027955,0.444953,0.857557
207,39.612421,7.385367,-44.373236,-0.158083,0.365240,1.055924
208,68.604562,8.300908,-41.931792,-0.284306,0.373541,1.162493
209,91.432059,2.807660,-32.715343,-0.348516,0.330327,1.246723
210,120.912490,-0.915541,-21.667811,-0.357427,0.291264,1.247700
211,148.134585,-0.671397,-11.902037,-0.308232,0.256718,1.141985
212,166.567483,2.868696,-4.211490,-0.257816,0.190555,1.003555
213,180.972000,7.629511,1.037613,-0.192996,0.145754,0.915053
214,190.432593,13.061723,4.089418,-0.146120,0.114504,0.857069
215,196.169986,17.212177,5.371176,-0.079103,0.079591,0.832532
216,200.808728,20.691234,4.943923,-0.042237,0.066407,0.836072
217,202.578775,25.085832,4.028382,-0.002564,0.065064,0.956558
218,206.118868,31.311513,2.685588,-0.012085,0.050294,1.127581
219,213.565270,38.208591,2.319371,0.003052,0.069093,1.324361
220,221.927214,45.166705,2.075227,0.058839,0.046021,1.515526
221,233.768215,51.819638,0.732433,0.155764,-0.000610,1.620630
222,246.463722,54.444190,-2.807660,0.263310,-0.082033,1.633448
223,256.473640,54.932479,-10.254063,0.365484,-0.177127,1.576562
224,261.905852,52.368963,-18.677043,0.429816,-0.250248,1.487816
225,259.037156,47.302968,-27.466239,0.390997,-0.323980,1.465476
226,256.046387,40.039673,-34.546426,0.334234,-0.365118,1.482811
227,251.529717,34.424353,-40.222782,0.254276,-0.378668,1.513207
228,245.853361,31.799802,-44.800488,0.155642,-0.384161,1.532738
229,237.918669,31.616693,-47.241932,0.032593,-0.389776,1.645899
230,232.852674,35.889220,-47.608148,-0.069459,-0.403082,1.751492
231,230.228122,44.678416,-45.838102,-0.141848,-0.425177,1.843168
232,229.007401,56.153201,-41.382467,-0.184695,-0.466316,1.799710
233,227.359426,65.796902,-34.241245,-0.163455,-0.493416,1.680446
234,219.302663,70.496681,-25.879301,-0.109743,-0.534676,1.576440
235,209.414817,71.778439,-18.005646,-0.060548,-0.588510,1.503441
236,196.841382,73.731594,-10.803388,-0.018311,-0.660899,1.506615
237,183.474479,75.867857,-2.929732,0.025391,-0.747082,1.486839
238,173.464561,72.449836,3.540093,0.072145,-0.832654,1.579370
239,163.393606,66.102083,7.507439,0.170169,-1.059098,1.545678
240,159.670405,59.266041,6.836042,0.334478,-1.319356,1.297017
241,146.669718,55.420768,-1.159686,0.625864,-1.613428,0.899184
242,122.865644,58.472572,-16.052491,0.920180,-1.877836,0.505989
243,86.121920,63.050278,-38.818952,0.937270,-2.000031,0.213626
244,49.988556,58.045319,-47.669184,0.650278,-2.000031,0.033082
245,11.413748,26.184482,-36.987869,0.310185,-1.892241,0.026612
246,-18.066682,-24.597543,-14.648661,0.006958,-1.580102,0.370123
247,-50.293736,-75.806821,4.150454,0.036622,-1.885283,-1.676783
248,-152.651255,-147.280079,21.972992,0.573495,-0.974868,-0.033326
249,-144.899672,-104.615854,-8.361944,0.190433,-0.573373,1.120012
250,-99.671931,-39.002060,-21.362631,-0.681773,0.627939,1.451804
251,-123.598077,-65.491722,3.784237,-0.917372,0.843275,1.273213
252,-195.193408,-85.389487,23.010605,-0.657847,0.206302,0.448981
253,-231.815061,-76.050965,38.635843,-0.379522,-0.305058,0.698985
254,-229.373617,-70.679789,49.622339,0.175784,-0.142092,1.918853
255,-201.419089,-54.139010,46.326390,0.890639,-0.112428,1.999969
256,-130.556191,-31.860838,20.813306,1.047745,-0.024170,1.999969
257,-92.469673,-16.845960,-4.333562,0.554696,0.177371,1.637720
258,-101.136797,4.638743,-9.277485,-0.352911,-0.015869,1.470237
259,-90.882734,13.366903,2.502480,-0.744396,-0.134524,1.314229
260,-86.793317,8.239872,23.682002,-0.605844,-0.002808,1.391379
261,-79.652094,-24.353399,30.701152,0.292851,-0.145510,1.758938
262,-28.992142,-17.822538,14.526589,0.481331,0.119142,1.474266
263,-33.569848,-4.089418,10.376135,0.043946,0.116701,1.265034
264,-33.752956,-3.906310,12.756542,-0.292485,-0.065797,1.052262
265,-22.949569,-17.151141,14.221408,-0.111452,0.096437,1.144060
266,-21.972992,-22.705425,11.413748,0.205936,0.101564,1.162005
267,-17.029068,-12.634470,7.629511,-0.027955,0.084230,0.971817
268,-22.461280,-15.381094,9.155413,-0.194705,0.073732,0.901503
269,-25.268940,-24.841688,10.070954,-0.042725,0.115358,0.940688
270,-30.701152,-25.207904,8.178836,0.051881,0.085084,1.020890
271,-31.921874,-21.606775,7.934691,-0.020630,0.038209,1.045060
272,-29.419394,-20.752270,6.591897,0.018433,0.055421,1.057267
273,-28.198672,-19.409476,4.699779,0.061036,0.037232,1.097185
274,-25.513085,-14.953841,2.563516,0.041749,0.051514,1.077287
275,-26.184482,-11.657893,1.342794,-0.028077,0.037476,0.981704
276,-27.100023,-12.024109,0.671397,-0.032837,0.062989,0.919326
277,-33.569848,-11.474784,0.854505,-0.008423,0.060304,1.060319
278,-34.424353,-10.376135,1.098650,-0.023560,-0.010254,1.030167
279,-29.907683,-8.300908,-1.831083,0.010254,-0.087526,1.026871
280,-27.771420,-6.286717,0.000000,-0.004639,-0.008545,1.119524
281,-23.193713,-4.638743,0.549325,-0.003296,-0.002319,1.050553
282,-21.362631,-3.662165,0.488289,-0.013306,-0.007446,1.023575
283,-19.165332,-2.441444,0.427253,-0.062257,0.085573,1.252094
284,-14.892805,-2.441444,0.732433,-0.013550,-0.066651,1.029923
285,-15.014878,-3.173877,0.732433,-0.009522,-0.039063,1.014786
286,-10.009918,-2.929732,0.732433,-0.012207,-0.026246,1.023819
287,-7.934691,-2.746624,0.732433,-0.020630,0.000122,0.987198
288,-9.948882,-3.051804,0.732433,-0.009766,-0.000488,0.998917
289,-10.742351,-2.502480,0.671397,-0.015015,-0.005493,0.990249
290,-13.183795,-2.380407,0.793469,-0.003906,-0.003784,0.985855
291,-13.305867,-1.647974,0.671397,-0.049683,0.016480,1.073503
292,-11.841001,-2.502480,1.709010,0.021851,-0.024781,0.944961
293,-12.695506,-1.709010,0.366217,0.005737,-0.063600,0.992813
294,-9.643702,-0.915541,0.488289,0.000732,-0.040406,1.034928
295,-7.690547,-0.061036,0.976577,-0.003662,-0.034791,1.035782
296,-6.286717,0.122072,1.037613,-0.003906,-0.033326,1.016983
297,-5.065995,0.183108,0.915541,-0.011719,-0.021973,0.998917
298,-5.615320,-0.366217,1.037613,-0.016846,-0.023072,0.993301
299,-5.676356,-1.403830,0.671397,-0.024659,-0.022827,0.988418
300,-7.019150,-2.929732,0.671397,-0.020752,-0.024414,0.978164
301,-7.080186,-4.455634,0.305180,-0.031983,-0.016358,0.987930
302,-8.422980,-6.042573,0.244144,-0.017945,-0.039551,0.999405
303,-6.836042,-6.286717,0.305180,-0.014771,-0.031495,0.997940
304,-7.507439,-6.836042,0.366217,-0.014038,-0.031617,0.979019
305,-7.995727,-7.263294,0.366217,-0.012329,-0.022339,0.974136
306,-10.254063,-8.117800,-0.671397,-0.064454,-0.094362,1.020157
307,-11.413748,-7.873655,0.549325,0.010986,-0.011109,0.974136
308,-15.991455,-7.751583,0.793469,0.006958,-0.020508,0.984878
309,-20.263981,-6.897078,1.647974,0.023560,-0.032715,1.009171
310,-23.498894,-5.737392,2.502480,-0.001099,-0.068360,1.013809
311,-20.935378,-4.882887,2.685588,0.004028,-0.048829,1.012711
312,-19.836728,-5.615320,2.258335,-0.012573,-0.053101,1.012833
313,-19.104295,-5.493248,1.831083,0.000855,-0.066407,1.008560
314,-17.944610,-5.310140,1.647974,0.000977,-0.082765,1.003433
315,-16.052491,-4.455634,2.441444,0.016968,-0.084108,1.019059
316,-14.160372,-3.601129,3.234913,-0.001221,-0.056519,0.982681
317,-15.442130,-3.723201,3.662165,0.001831,-0.009277,0.961685
318,-21.484703,-3.540093,3.784237,0.015747,0.013062,0.924941
319,-33.875029,-4.028382,4.272526,0.005249,-0.014893,0.961196
320,-35.584039,-4.760815,2.197299,-0.060304,-0.015259,0.970108
321,-40.466926,-8.300908,1.342794,0.056153,-0.004761,0.976211
322,-51.026169,-6.347753,2.441444,-0.044923,-0.050294,0.984146
323,-50.171664,-8.789197,1.464866,0.022095,-0.058228,1.057389
324,-52.613108,-3.967346,1.098650,0.043458,-0.121584,1.013565
325,-48.157473,-1.892119,0.305180,-0.038209,-0.064698,1.040177
326,-54.932479,-3.845274,-5.432212,-0.008301,-0.116457,0.756970
327,-53.040360,-7.812619,-8.606088,-0.033692,-0.103883,1.066911
328,-57.434958,-9.399557,-14.892805,0.022095,-0.261479,1.009537
329,-50.171664,-6.286717,-7.202258,0.070436,-0.191775,1.159686
330,-50.171664,-4.455634,-8.667124,0.059083,-0.203372,1.026505
331,-48.889906,-2.685588,-9.399557,0.062623,-0.039063,1.000381
332,-65.857939,0.122072,-13.305867,-0.025635,0.149050,0.873426
333,-119.325551,5.310140,-11.413748,0.099001,0.200687,1.012467
334,-158.571756,4.638743,-7.934691,-0.090822,0.210452,0.728405
335,-183.840696,-10.864424,-25.207904,0.137453,0.209598,0.555673
336,-214.297704,-29.968719,-26.428626,-0.145754,0.722789,1.071794
337,-420.172427,-30.579080,-33.630884,0.147341,0.472175,1.493553
338,-583.627070,-53.589685,13.977264,-0.303227,0.308354,1.838773
339,-665.903716,-96.253910,3.051804,0.024781,-0.229984,1.346578
340,-738.231479,-121.095598,16.662852,-0.181155,-0.187137,0.919448
341,-825.452049,-133.852140,76.173037,-0.025269,-2.000031,1.999969
342,-626.901656,-45.044633,173.098344,-1.802884,-1.014054,1.999969
343,153.810941,-47.852293,14.404517,-0.888685,0.332403,1.999969
344,266.971847,9.155413,8.911269,-0.381720,0.897230,1.367330
345,19.775692,0.061036,56.702525,-0.552499,0.390387,1.022110
346,-26.977951,-52.368963,117.189288,-0.124025,0.184695,0.422980
347,85.694667,-46.326390,76.783398,0.188235,0.296635,0.198978
348,57.923247,-51.392386,61.890593,0.352667,0.630747,0.135012
349,18.310826,-39.978637,42.053864,0.471443,0.468025,0.807874
350,68.360418,-12.207218,8.911269,0.348760,0.564584,1.035416
351,82.764935,-2.319371,-12.756542,0.161135,0.558236,1.101701
352,104.921035,-5.249104,-24.780652,0.022950,0.431403,1.185687
353,144.106203,-13.427939,-32.227054,-0.080568,0.397833,1.144671
354,165.590906,-19.958801,-34.851606,-0.159670,0.326299,1.104875
355,185.183490,-16.906996,-35.523003,-0.225345,0.209232,1.098283
356,203.677424,-5.004959,-34.485389,-0.303838,0.116335,1.045792
357,215.762570,8.484016,-29.968719,-0.359136,0.033570,1.020401
358,227.054246,18.371862,-21.972992,-0.378058,-0.033570,0.989639
359,236.270695,20.691234,-12.024109,-0.370611,-0.067750,1.068864
360,244.937819,18.188754,-1.770047,-0.303105,-0.119387,1.163592
361,258.060578,15.991455,4.699779,-0.161990,-0.125612,1.216815
362,267.215991,17.700465,5.615320,-0.049683,-0.153079,1.264668
363,275.761044,23.926146,2.014191,0.038087,-0.174197,1.305440
364,280.766003,34.668498,-4.638743,0.117067,-0.213138,1.202045
365,276.554513,48.096437,-13.000687,0.141970,-0.329961,0.999649
366,261.905852,62.195773,-17.883574,0.156130,-0.433967,0.850721
367,240.848402,68.970779,-21.362631,0.148562,-0.453742,0.890883
368,222.110323,69.398032,-22.339208,0.159060,-0.403937,1.058366
369,205.874723,66.651408,-22.278172,0.159060,-0.308110,1.513085
370,197.940032,62.623026,-20.508125,0.171389,-0.259770,1.999969
371,213.443198,56.214237,-21.118486,0.204105,-0.314458,1.999969
372,236.942092,50.049592,-25.391012,0.256352,-0.402228,1.999969
373,248.050660,48.767834,-30.762188,0.225711,-0.475959,1.999969
374,252.506294,46.631571,-34.790570,0.140139,-0.568734,1.999969
375,265.751125,44.251164,-38.269627,0.094728,-0.674571,1.999969
376,273.258564,46.143282,-41.138323,0.088136,-0.714977,1.784573
377,261.234455,50.049592,-43.396658,0.088136,-0.727306,1.631373
378,250.064851,54.749371,-46.692607,0.134279,-0.728038,1.627222
379,238.895247,60.242618,-51.636530,0.181155,-0.748913,1.630762
380,228.580148,67.750057,-57.190814,0.203983,-0.821668,1.535546
381,216.678111,75.623713,-61.646448,0.195682,-0.921645,1.323995
382,197.634852,80.567636,-63.355459,0.182742,-1.051408,1.183124
383,175.234607,80.811780,-62.623026,0.180667,-1.255634,1.143450
384,153.871977,79.652094,-61.097124,0.230228,-1.534325,1.056291
385,126.405737,83.436332,-58.716716,0.283940,-1.992340,0.949844
386,101.075761,99.916075,-39.368276,0.290898,-2.000031,0.605844
387,75.745785,98.817426,-34.973678,0.272953,-2.000031,-0.162844
388,41.382467,54.016938,-11.841001,0.262577,-2.000031,-0.587778
389,-24.597543,-14.831769,18.127718,0.212406,-1.874418,-0.135988
390,-55.054551,-58.960861,38.879988,0.115602,-1.423850,0.678599
391,-115.297169,-99.488823,38.818952,-0.011719,-1.802152,-0.715587
392,-205.752651,-152.162966,58.228428,0.312749,-0.904555,0.732555
393,-117.067216,-99.183642,41.016251,0.026001,0.140261,1.988434
394,-96.864271,-49.011978,38.696880,-0.354986,1.074723,1.865385
395,-151.186389,-80.018311,47.058824,-0.031006,0.715465,0.534920
396,-228.274968,-94.789044,47.058824,0.655406,-0.155642,0.184573
397,-232.913710,-56.336309,40.466926,0.653819,-0.071046,1.202899
398,-237.979706,-26.855879,34.424353,0.733410,0.066285,1.999969
399,-187.685969,-0.061036,14.221408,0.916762,-0.118044,1.999969
400,-126.771954,32.410163,-9.704738,0.375494,0.029053,1.669215
401,-134.035248,49.500267,-10.131991,-0.378058,-0.017945,1.771145
402,-132.143130,30.579080,14.831769,-1.258076,-0.231815,1.999969
403,-77.454795,-10.925460,31.372549,-0.793225,-0.397223,1.161639
404,-48.584726,-38.025483,35.584039,0.093751,0.278935,1.199725
405,-64.820325,-43.762875,29.175250,0.585214,0.159304,1.322408
406,-44.617380,-31.799802,15.625238,-0.119509,0.041871,1.213153
407,-47.547112,-44.556344,20.202945,-0.377447,-0.054200,1.276020
408,-26.245518,-58.899825,15.564202,0.070924,0.046509,1.153094
409,-25.696193,-51.514458,10.742351,0.231205,0.162844,1.198627
410,-31.311513,-36.926833,9.521630,-0.003418,0.024781,1.171527
411,-25.268940,-31.372549,9.826810,-0.039307,0.034668,1.118059
412,-24.597543,-26.184482,9.277485,0.088502,0.079713,1.101213
413,-25.757229,-18.066682,8.606088,0.027710,0.060060,1.074479
414,-24.109255,-14.465553,7.019150,-0.029664,0.087404,1.019669
415,-28.870069,-13.122759,4.943923,0.052857,0.045167,1.075212
416,-25.818265,-8.484016,2.929732,0.004883,0.034546,1.014420
417,-28.015564,-7.690547,3.356985,-0.046754,0.082765,1.068254
418,-28.198672,-7.690547,2.929732,-0.009277,-0.003296,1.047135
419,-24.170291,-5.920500,2.319371,-0.022827,0.023194,1.036393
420,-26.123445,-4.333562,2.685588,-0.014893,-0.023926,1.078141
421,-18.982223,-1.709010,2.258335,-0.025269,0.002197,1.034073
422,-19.531548,-0.976577,2.685588,-0.044923,0.001709,1.023575
423,-17.456321,-1.281758,2.563516,-0.029786,-0.006836,1.019303
424,-15.259022,-1.770047,2.258335,-0.049073,0.000122,0.993301
425,-15.014878,-3.051804,2.014191,-0.042237,0.004883,0.995132
426,-15.014878,-4.089418,1.586938,-0.028687,-0.001343,0.996963
427,-14.953841,-3.967346,0.854505,-0.115846,0.234012,1.487327
428,-11.963073,-4.516670,1.892119,-0.009644,-0.057740,0.907851
429,-19.714656,-4.882887,1.525902,-0.022095,-0.054200,0.930434
430,-15.747311,-4.333562,2.075227,-0.031617,0.001953,1.004898
431,-18.310826,-4.028382,2.502480,-0.035889,-0.003296,0.994522
432,-19.714656,-4.882887,2.685588,-0.042969,-0.016236,0.981460
433,-19.958801,-6.225681,2.685588,-0.038209,-0.028077,0.984146
434,-20.141909,-7.690547,2.319371,-0.035279,-0.030030,0.993912
435,-17.212177,-9.948882,-0.427253,-0.113039,0.059815,1.033463
436,-19.836728,-10.803388,1.709010,-0.018311,0.000366,0.985489
437,-20.813306,-9.216449,1.159686,-0.020264,-0.045289,1.086076
438,-18.860151,-8.361944,0.671397,-0.024170,-0.031495,1.014298
439,-19.897765,-7.080186,0.732433,0.010498,-0.046998,1.012955
440,-20.080873,-4.943923,0.793469,-0.014038,-0.053834,1.030411
441,-19.531548,-3.662165,1.037613,-0.003418,-0.072267,1.055436
442,-17.273213,-2.136263,1.342794,-0.007568,-0.070314,1.030777
443,-14.587625,-1.770047,1.403830,-0.010010,-0.063844,1.021988
444,-13.427939,-1.525902,1.709010,-0.006470,-0.064088,1.034684
445,-11.108568,-0.732433,2.075227,-0.008301,-0.070436,1.040909
446,-9.277485,-0.366217,2.502480,-0.006104,-0.063478,0.992691
447,-9.765774,-0.549325,2.746624,-0.020386,-0.028931,0.964981
448,-13.977264,-1.953155,3.051804,-0.028809,-0.029053,0.974746
449,-16.845960,-3.234913,3.112840,0.007568,-0.024659,0.974136
450,-20.202945,-2.014191,2.319371,-0.012329,-0.046265,0.957656
451,-23.010605,-1.525902,2.502480,0.014405,-0.057008,1.005997
452,-26.123445,0.488289,4.028382,-0.001099,-0.064332,1.000259
453,-25.635157,0.854505,4.394598,-0.037110,-0.058228,0.938491
454,-30.823224,-1.098650,4.943923,-0.032959,-0.051514,0.942031
455,-36.133364,-3.479057,4.272526,-0.051392,-0.075074,0.980972
456,-36.560616,-6.103609,3.112840,-0.029175,-0.089235,1.021988
457,-35.767147,-6.408789,2.563516,-0.055055,-0.102785,1.001846
458,-35.095750,-6.347753,2.868696,0.037598,-0.100221,1.019669
459,-36.194400,-2.685588,3.479057,-0.064088,-0.107790,0.966445
460,-35.461967,-4.455634,3.723201,0.005859,-0.103517,0.984634
461,-39.978637,-3.845274,5.249104,-0.020386,-0.105470,0.991958
462,-42.175937,-4.272526,5.676356,-0.016724,-0.118410,1.004898
463,-38.941024,-3.173877,5.920500,-0.017578,-0.136110,1.002945
464,-40.039673,-4.638743,4.028382,-0.013306,-0.125612,1.076066
465,-35.400931,-4.089418,2.746624,-0.080690,-0.241581,1.026383
466,-19.470512,-1.464866,2.990768,-0.064210,-0.048341,1.027726
467,-38.757916,-8.361944,-4.760815,-0.085695,-0.091310,1.012467
468,-59.632258,-14.770733,-14.892805,-0.068727,-0.148318,1.020401
469,-50.659953,-12.512398,-13.427939,0.063478,-0.297490,1.018814
470,-38.513771,-10.009918,-5.859464,0.012207,-0.140871,1.020768
471,-42.053864,-12.146181,-8.728161,0.002075,-0.201175,1.056779
472,-51.514458,-8.606088,-10.986496,-0.012696,-0.160403,0.989639
473,-70.130465,-5.859464,-18.005646,0.014160,-0.088746,0.961318
474,-76.478218,-10.070954,-21.484703,-0.032593,0.032593,0.930068
475,-123.292897,-6.652934,-15.197986,0.148440,-0.001099,0.849744
476,-132.387274,-6.469825,-2.563516,-0.095338,0.226932,0.814710
477,-159.121080,-21.789883,-23.071641,0.241093,0.650278,0.752331
478,-272.892348,-31.616693,-45.960174,0.263066,0.876722,1.295186
479,-508.735790,8.117800,-36.865797,0.102174,0.651743,1.806912
480,-673.960479,23.132677,-3.601129,-0.131350,0.180179,1.183734
481,-757.946136,1.586938,-2.502480,0.057862,-0.046632,1.260517
482,-857.984283,-13.794156,22.461280,0.059327,-1.091814,1.282002
483,-993.972686,-28.015564,189.639124,-2.000031,-0.325322,1.999969
484,-185.793851,-71.473259,-30.640116,-1.137835,-2.000031,1.999969
485,270.939193,-60.975052,-8.117800,-1.126604,0.568978,1.999969
486,101.930266,-46.265354,9.277485,-0.571908,1.193133,1.999969
487,-30.151827,-80.201419,101.869230,-0.480964,0.614633,1.017227
488,44.861524,-73.792630,77.759976,0.074464,0.225345,0.705699
489,105.714504,-58.899825,53.711757,0.115724,0.594980,0.147707
490,39.490349,-59.143969,39.795529,0.254520,0.567391,0.469368
491,52.002747,-40.283818,17.090105,0.240116,0.469978,0.822766
492,84.657053,-26.245518,-4.211490,0.177981,0.624033,0.876844
493,91.554131,-28.809033,-17.883574,0.076905,0.580697,1.059342
494,123.292897,-35.217823,-28.259709,-0.006592,0.537240,1.240009
495,158.022431,-40.039673,-35.706111,-0.090211,0.504158,1.312154
496,186.648356,-40.344854,-39.368276,-0.165042,0.415900,1.442771
497,220.584421,-32.654307,-40.405890,-0.237308,0.302007,1.463890
498,252.933547,-22.156100,-39.002060,-0.255253,0.172610,1.314717
499,275.272755,-10.437171,-36.621653,-0.244999,0.040894,1.092302
500,287.541009,-1.220722,-32.166018,-0.206912,-0.056886,0.783825
501,290.775921,-3.662165,-28.259709,-0.128786,-0.081666,0.617441
502,286.015106,-10.925460,-26.428626,-0.044556,-0.075563,0.672862
503,281.986725,-12.573434,-29.785611,-0.002319,-0.074098,0.917250
504,279.423209,-1.098650,-37.659266,0.020264,-0.135378,0.971939
505,271.122301,22.949569,-46.082246,-0.033814,-0.244266,1.073014
506,259.830625,46.509499,-47.791257,-0.143435,-0.363531,1.246113
507,256.900893,53.711757,-44.922560,-0.166384,-0.449226,1.236957
508,259.830625,49.805447,-41.504540,-0.135134,-0.368292,1.358541
509,245.548180,51.392386,-36.133364,-0.204471,-0.376837,1.659327
510,240.848402,68.421454,-30.151827,-0.254154,-0.514046,1.873075
511,239.566644,89.723049,-20.752270,-0.329717,-0.559823,1.999969
512,238.834211,101.747158,-8.056764,-0.330205,-0.616098,1.999969
513,243.350881,97.657740,5.432212,-0.254643,-0.693492,1.999969
514,262.699321,85.450523,15.503166,-0.088502,-0.696666,1.999969
515,287.907225,78.309300,17.456321,0.046632,-0.813367,1.999969
516,304.325933,84.412909,14.404517,0.111452,-0.809094,1.986969
517,290.348669,87.525750,12.390326,0.114748,-0.803723,1.826688
518,284.550240,85.694667,9.704738,0.219120,-0.788098,1.829618
519,280.766003,87.403677,3.540093,0.391608,-0.726329,1.830594
520,266.788739,86.121920,-4.028382,0.379034,-0.820081,1.785672
521,258.976120,82.948043,-11.047532,0.324834,-0.985489,1.649195
522,240.970474,83.192187,-16.052491,0.200809,-1.242206,1.379049
523,213.076982,86.610208,-20.874342,0.145022,-1.587549,1.092302
524,176.638437,99.244678,-28.442817,0.247562,-2.000031,1.011490
525,131.227588,131.288624,-36.743725,0.599985,-2.000031,0.912245
526,88.624399,178.713664,-60.730907,0.663706,-2.000031,0.812879
527,76.234073,200.198367,-68.360418,0.464363,-2.000031,0.099001
528,47.364004,139.650568,-43.030442,0.150637,-2.000031,-0.725353
529,-18.432898,15.930419,-1.709010,-0.249882,-2.000031,-0.919448
530,-140.627146,-147.951476,33.752956,0.229496,-2.000031,-1.358175
531,-242.557412,-238.529030,46.204318,0.722301,-1.859159,0.318486
532,-169.375143,-171.816587,39.124132,-0.121218,-0.397345,1.999969
533,-137.453269,-92.591745,40.650034,-0.750744,0.817517,1.999969
534,-163.088426,-74.341955,73.731594,-0.603037,0.635508,0.932753
535,-246.341650,-113.588159,87.586786,0.479866,-0.179202,-0.103273
536,-264.469368,-92.408637,83.985657,1.014176,-0.050050,0.987198
537,-282.658122,-63.416495,67.627985,1.311543,0.004761,1.999969
538,-225.528344,-43.091478,41.016251,1.569238,-0.182498,1.999969
539,-138.551919,2.136263,0.000000,0.758679,-0.064942,1.777737
540,-142.641337,18.860151,-8.300908,-0.554086,-0.028199,1.532250
541,-153.627832,4.760815,27.588312,-1.847318,-0.181765,1.986725
542,-110.902571,-80.384527,54.444190,-0.984024,-0.598764,0.885878
543,-64.332036,-139.833677,54.627298,0.554086,0.395880,1.728786
544,-94.300755,-112.245365,29.114214,1.913115,0.060426,1.999969
545,-55.237659,-25.329976,9.521630,-0.115969,-0.096803,1.363546
546,-62.134737,-40.405890,9.826810,-0.560678,-0.108156,1.173114
547,-47.425040,-59.876402,5.371176,0.530892,-0.005615,1.218891
548,-49.073014,-26.794842,-0.976577,0.131716,0.027222,1.069108
549,-53.955901,-27.527276,3.479057,-0.202762,-0.082033,1.132586
550,-37.842374,-36.438544,4.699779,0.147707,-0.001831,1.115496
551,-40.588998,-25.696193,3.356985,0.056031,-0.033204,1.050797
552,-37.109941,-25.452049,2.136263,-0.067384,-0.023682,1.081926
553,-33.203632,-26.306554,2.197299,0.127077,0.012940,1.074968
554,-31.494621,-19.226368,1.647974,0.050660,-0.037476,1.132586
555,-22.339208,-17.029068,0.854505,0.064698,-0.056764,1.065812
556,-18.799115,-13.122759,1.159686,0.082399,-0.056031,1.027726
557,-23.010605,-9.887846,1.709010,0.025635,-0.051637,1.064225
558,-15.930419,-8.422980,1.464866,0.037598,-0.017090,1.047013
559,-18.799115,-6.836042,1.525902,0.056886,-0.045533,1.012833
560,-17.212177,-5.920500,1.647974,0.029908,-0.054566,1.016617
561,-14.404517,-5.859464,1.464866,0.050660,-0.026123,1.002823
562,-16.845960,-4.943923,0.732433,0.052979,-0.076173,0.996475
563,-15.503166,-4.760815,0.244144,0.058839,-0.078492,0.995621
564,-16.174563,-3.784237,0.671397,0.060548,-0.034058,0.983658
565,-17.212177,-3.723201,0.915541,0.052003,-0.049683,1.015640
566,-15.869383,-3.418021,0.488289,0.050904,-0.069703,0.958755
567,-16.540780,-3.967346,0.488289,0.029419,-0.046876,0.984512
568,-17.944610,-5.310140,0.183108,0.015991,-0.070558,1.022477
569,-20.569162,-5.798428,0.000000,0.057984,-0.026856,0.979019
570,-20.325017,-7.263294,-0.549325,0.042237,-0.069825,0.977920
571,-18.677043,-7.934691,-0.976577,0.053712,-0.056153,1.023331
572,-17.639429,-8.056764,-1.159686,0.045045,-0.084474,1.027848
573,-17.273213,-6.408789,-2.136263,0.090455,-0.115114,1.047501
574,-13.488975,-4.150454,-1.586938,0.070192,-0.113161,1.051286
575,-9.399557,-2.502480,-0.549325,0.078859,-0.097902,1.043595
576,-8.667124,-1.464866,0.000000,0.059571,-0.090700,0.997818
577,-8.361944,-1.525902,-0.305180,0.047852,-0.085206,0.982437
578,-8.178836,-1.831083,-0.610361,0.066285,-0.078737,0.994278
579,-10.193027,-1.159686,-0.671397,0.053590,-0.078981,1.001358
580,-10.681315,-1.220722,-0.915541,0.043946,-0.078370,0.983902
581,-12.207218,-1.647974,-1.403830,0.064820,-0.081910,0.993668
582,-13.000687,-1.403830,-1.037613,0.052735,-0.093874,1.004044
583,-12.268254,-2.197299,-1.037613,0.050538,-0.071412,1.029313
584,-15.564202,-1.098650,-1.098650,0.046509,-0.072145,0.974258
585,-19.043259,-1.220722,-1.098650,0.059327,-0.087160,0.987320
586,-19.470512,-0.732433,-1.098650,0.055177,-0.075807,0.996963
587,-23.498894,-0.427253,-1.098650,0.052125,-0.089113,0.992569
588,-26.062409,-0.427253,-1.342794,0.050294,-0.089479,0.988296
589,-27.771420,-0.732433,-1.525902,0.075685,-0.087282,1.000259
590,-32.532235,1.770047,-0.488289,0.088746,-0.114015,0.987320
591,-36.072328,5.859464,3.356985,0.052979,-0.129397,0.997818
592,-34.302281,5.737392,6.591897,0.074952,-0.147829,0.988540
593,-34.607462,6.958114,9.155413,0.070558,-0.118776,1.010147
594,-38.269627,9.338521,9.948882,0.048585,-0.160403,1.044205
595,-30.029755,7.995727,8.728161,0.022339,-0.145998,0.994888
596,-25.818265,5.493248,4.150454,0.025147,-0.099977,0.987930
597,-26.733806,2.014191,0.427253,0.050172,-0.041871,1.020279
598,-38.452735,3.295949,-8.056764,-0.049439,-0.140383,0.982193
599,-44.922560,1.281758,-12.756542,-0.005005,-0.247074,1.044572
600,-22.461280,-7.324331,-17.395285,-0.022705,-0.366217,1.131609
601,-4.760815,-8.422980,-20.752270,0.135744,-0.240360,1.026871
602,7.995727,-7.751583,-11.047532,0.172000,-0.122316,1.082292
603,-13.366903,2.685588,-3.540093,0.138308,-0.102174,1.112200
604,-56.397345,17.029068,-0.793469,0.100221,-0.007935,0.989273
605,-77.149615,20.752270,-9.094377,0.118044,0.087526,0.953506
606,-92.530709,25.024796,-16.662852,-0.050416,0.375860,0.894667
607,-180.422675,21.667811,-34.302281,-0.049561,0.262455,0.931044
608,-201.602197,-5.859464,7.385367,-0.419684,-0.216678,0.689220
609,-244.205386,-35.645075,1.709010,-0.176150,0.696910,1.262104
610,-332.280461,-56.580453,-1.464866,-0.078004,0.192386,1.692775
611,-532.112612,-149.294270,21.972992,-0.606332,-0.233646,0.895644
612,-650.827802,-199.221790,47.241932,0.156619,-0.194217,0.934951
613,-713.145647,-188.052186,59.815366,0.472419,-0.256107,1.121721
614,-762.157626,-152.834363,59.876402,0.410773,-0.367559,1.025895
615,-875.196460,-120.241093,106.935225,1.136492,-2.000031,1.999969
616,-509.346151,5.981537,95.033188,-0.451789,-0.813611,1.999969
617,124.269474,15.564202,-59.449149,0.022095,0.592294,1.999969
618,148.439765,49.195087,-87.769894,0.078614,0.989151,1.999969
619,48.950942,4.699779,-25.391012,-0.459846,0.846937,1.999969
620,21.972992,-38.147555,-1.464866,-0.221805,0.288334,1.866117
621,156.679637,6.591897,-5.371176,-0.286259,0.079591,1.198138
622,200.320439,25.818265,-2.990768,-0.227665,0.232792,0.382208
623,149.172198,27.100023,6.958114,-0.151369,0.129274,0.222049
624,136.842908,27.161059,13.611048,-0.091432,-0.027832,0.220829
625,150.881209,21.118486,14.648661,0.049195,0.069337,0.270024
626,143.190661,6.897078,13.305867,0.166384,0.167849,0.479988
627,144.838636,-5.188067,6.103609,0.278813,0.222416,0.848890
628,166.933700,-5.127031,-9.155413,0.349615,0.296269,1.107439
629,185.244526,6.713970,-26.306554,0.347662,0.288945,1.231952
630,201.419089,22.339208,-40.100710,0.283696,0.213382,1.265644
631,222.171359,32.715343,-49.500267,0.167849,0.093629,1.288716
632,240.115969,37.293050,-51.697566,0.076173,-0.014527,1.255634
633,255.130846,40.161746,-48.889906,0.000488,-0.125490,1.178363
634,266.971847,45.227741,-43.213550,0.003296,-0.186282,1.125628
635,271.793698,51.209277,-36.255436,0.054688,-0.218875,1.059464
636,274.601358,52.735180,-31.006332,0.194095,-0.210086,1.053117
637,270.634012,49.134051,-32.043946,0.417975,-0.230106,1.121843
638,269.840543,51.270314,-42.236973,0.517464,-0.262943,1.247211
639,272.892348,54.261082,-54.993515,0.561288,-0.271000,1.312154
640,266.361486,51.636530,-66.834516,0.547982,-0.297978,1.509911
641,263.492790,50.354772,-77.759976,0.501106,-0.402960,1.704005
642,270.145724,54.139010,-87.769894,0.463996,-0.503059,1.791287
643,272.465095,62.500954,-94.483864,0.378912,-0.590829,1.755642
644,268.619821,68.055238,-96.559091,0.271733,-0.663828,1.670436
645,265.140764,72.144656,-95.887694,0.219730,-0.737316,1.402487
646,249.027237,74.769207,-92.469673,0.206058,-0.698863,1.307759
647,225.467308,73.426413,-88.136110,0.209842,-0.656382,1.444480
648,212.039368,69.947356,-84.107729,0.195682,-0.611093,1.762722
649,209.048600,66.407263,-80.872816,0.204227,-0.592416,1.999969
650,216.372931,67.383841,-79.346914,0.209842,-0.635630,1.999969
651,229.007401,75.806821,-77.759976,0.186160,-0.694835,1.973541
652,229.068437,86.671244,-73.487449,0.107790,-0.764660,1.655665
653,214.053559,95.460441,-64.515145,0.053346,-0.886366,1.409079
654,195.376516,99.427787,-52.063783,0.015381,-0.973037,1.315328
655,178.286412,97.413596,-37.903410,0.025391,-1.105119,1.301411
656,164.919509,91.615167,-26.123445,0.124880,-1.215717,1.326436
657,149.172198,88.563363,-20.080873,0.312383,-1.426658,1.272969
658,133.791104,95.887694,-21.179522,0.495857,-1.751980,1.160174
659,117.921721,110.597391,-31.738766,0.545907,-2.000031,0.923598
660,102.296483,129.762722,-36.377508,0.461799,-2.000031,0.347295
661,72.693980,127.809567,-24.780652,0.261479,-2.000031,-0.273686
662,20.935378,82.032502,1.525902,0.091432,-2.000031,-0.545296
663,-27.710384,4.760815,31.433585,-0.089113,-1.825711,-0.286259
664,-137.819486,-112.672618,57.434958,0.217655,-1.919463,-1.322530
665,-243.106737,-206.301976,67.933165,0.916152,-1.321187,0.192752
666,-105.287251,-139.467460,40.039673,0.412482,0.125612,1.840726
667,-125.368124,-89.539940,43.579767,-0.361944,1.214008,1.999969
668,-201.785306,-94.178683,53.894865,-0.258061,0.617319,1.148821
669,-244.571603,-104.982071,55.786984,0.195315,-0.432746,0.096193
670,-231.021592,-91.676204,59.693294,0.655406,-0.228763,0.587167
671,-271.854734,-70.069429,56.214237,1.483177,0.144289,1.999969
672,-222.354467,-36.377508,20.691234,1.473899,-0.108522,1.999969
673,-125.246052,5.737392,-16.540780,0.509895,-0.238529,1.845243
674,-123.720150,31.128405,-6.042573,-1.045426,-0.107301,1.843290
675,-135.378042,-13.733120,26.001373,-1.676783,-0.776501,1.529442
676,-52.368963,-85.816739,42.420081,-0.542000,-0.252079,0.674327
677,-77.027543,-113.954376,39.917601,1.266011,0.384527,1.999969
678,-59.937438,-50.415808,8.728161,1.057633,-0.121584,1.741360
679,-36.682689,-18.066682,7.507439,-0.630747,0.019043,1.038590
680,-48.157473,-56.275273,10.193027,-0.149172,-0.002075,1.055192
681,-31.189441,-54.993515,-0.671397,0.523812,0.102419,1.209613
682,-49.195087,-30.457008,2.929732,0.066407,0.055543,1.268330
683,-39.124132,-26.794842,0.488289,-0.045045,-0.128664,1.114153
684,-18.371862,-27.466239,-4.821851,0.130129,0.047608,1.048234
685,-33.569848,-19.592584,1.159686,0.069581,-0.016602,1.056413
686,-22.583352,-16.235599,1.770047,0.038209,-0.050416,1.103044
687,-15.869383,-11.596857,1.586938,0.140261,0.021973,1.054093
688,-19.958801,-6.408789,2.136263,0.035523,-0.034180,1.079118
689,-13.061723,-5.065995,2.136263,0.025147,-0.027588,1.058976
690,-10.254063,-4.760815,2.014191,0.060426,-0.073732,0.987930
691,-9.277485,-3.723201,2.136263,0.048219,-0.041016,1.050187
692,-8.667124,-3.234913,1.831083,0.030518,-0.017578,0.982559
693,-11.596857,-4.272526,1.525902,0.007568,0.012818,0.977432
694,-11.963073,-4.760815,0.671397,0.023438,-0.013306,0.957046
695,-11.779965,-5.188067,1.342794,0.042237,-0.007568,1.034318
696,-11.657893,-4.333562,2.075227,0.046387,-0.029297,1.037613
697,-10.803388,-3.112840,2.014191,0.031739,-0.014160,1.014298
698,-8.545052,-2.380407,1.342794,0.032349,-0.054688,1.002579
699,-8.422980,-2.258335,1.403830,0.044556,-0.091676,0.958511
700,-5.859464,-2.258335,1.037613,0.059937,-0.097658,0.963394
701,-6.530861,-2.075227,0.793469,0.047730,-0.069459,0.988052
702,-5.065995,-2.014191,0.305180,0.038453,-0.058228,1.019913
703,-3.418021,-2.136263,0.427253,0.017212,-0.008057,1.005386
704,-4.394598,-3.112840,1.098650,0.019409,0.059937,1.017105
705,-5.188067,-3.784237,0.671397,0.012451,0.029541,1.002090
706,-7.446403,-5.004959,0.244144,0.040284,-0.031617,0.981460
707,-8.178836,-5.432212,0.061036,0.032593,-0.010376,0.997696
708,-6.713970,-5.615320,-0.854505,0.038331,-0.063600,0.984024
709,-7.995727,-5.981537,-0.671397,0.054200,-0.067750,1.010880
710,-6.713970,-6.042573,-0.549325,0.049805,-0.029786,1.023941
711,-4.699779,-5.127031,-0.549325,0.063966,-0.039551,1.023209
712,-3.295949,-3.479057,0.000000,0.059083,-0.004273,1.038590
713,-2.319371,-1.709010,0.793469,0.069215,-0.072999,1.001236
714,-1.281758,-0.549325,0.549325,0.049317,-0.043580,1.009049
715,-2.319371,-0.305180,0.915541,0.049561,-0.038941,0.978775
716,-2.807660,-0.549325,1.037613,0.048829,-0.026978,0.987442
717,-4.333562,-0.488289,0.915541,0.053712,-0.030030,0.988052
718,-5.004959,0.061036,0.732433,0.050294,-0.044312,0.966079
719,-7.324331,-0.061036,0.549325,0.046265,-0.037964,0.978408
720,-8.361944,-0.671397,0.305180,0.034668,-0.022461,0.951431
721,-12.512398,-2.685588,0.000000,0.015259,-0.005371,0.932753
722,-17.334249,-5.065995,-0.488289,0.040894,-0.007691,0.950942
723,-21.789883,-6.286717,-0.854505,0.041260,-0.027832,0.971817
724,-24.170291,-6.225681,-0.854505,0.071534,-0.013672,0.985367
725,-24.963760,-5.737392,-0.610361,0.066529,-0.035157,0.974258
726,-28.747997,-5.188067,0.244144,0.060304,-0.063966,0.990372
727,-29.907683,-3.784237,2.197299,0.068482,-0.097536,1.013931
728,-25.085832,-0.061036,3.356985,0.089967,-0.102174,0.981704
729,-25.513085,1.525902,5.493248,0.018067,-0.057618,1.016007
730,-27.283131,2.380407,4.699779,0.023682,-0.042359,0.976699
731,-32.959487,0.061036,3.662165,0.025757,-0.046265,0.987320
732,-34.790570,-0.854505,0.732433,-0.000244,-0.068360,0.929702
733,-34.912642,-4.211490,-1.220722,0.169314,0.081178,0.957168
734,-60.730907,4.150454,1.403830,-0.057740,-0.018799,1.035416
735,-61.280232,0.732433,-0.427253,0.078492,-0.124758,0.969619
736,-66.041047,5.004959,-2.258335,0.011841,-0.099245,1.054826
737,-81.544213,8.972305,-0.671397,0.069215,-0.184939,0.961807
738,-62.928206,2.685588,0.305180,-0.110231,-0.165896,1.079728
739,-64.332036,0.183108,-16.174563,0.022583,-0.301518,0.964614
740,-26.245518,-7.019150,-7.568475,0.171756,-0.286015,1.085710
741,0.305180,-7.507439,-5.310140,0.173465,-0.213016,0.981704
742,-6.775006,-1.647974,7.934691,0.212772,-0.054566,1.083513
743,-51.331350,19.165332,2.258335,0.083375,0.173953,0.929458
744,-84.962234,32.715343,-4.882887,-0.300420,0.632212,1.999969
745,-139.833677,16.174563,-22.949569,-0.060060,0.499519,0.427741
746,-239.444572,19.897765,-51.331350,0.107057,0.077638,-0.005859
747,-231.570916,-26.001373,9.948882,-0.394415,0.462531,0.662119
748,-315.251392,-89.234760,-22.095064,-0.440925,0.201419,1.585718
749,-511.543450,-193.423362,1.342794,-0.724498,0.177737,1.067887
750,-713.572900,-270.450904,56.702525,0.137697,0.009766,1.648707
751,-772.411688,-255.985351,70.252537,0.487556,-0.050904,1.343526
752,-830.395972,-214.663920,61.341268,0.408942,-0.101564,0.802136
753,-979.324025,-196.536202,98.756390,0.980972,-2.000031,1.999969
754,-425.177386,-10.498207,86.549172,-0.643809,-0.565316,1.999969
755,260.746166,52.185855,-88.075074,-0.322148,1.093767,1.999969
756,281.010147,82.398718,-105.470359,-0.310430,1.371603,1.910796
757,131.349660,22.827497,-51.697566,-0.957168,0.695933,1.246845
758,27.466239,-44.495308,9.155413,-0.666636,0.195071,0.713146
759,112.855726,-27.100023,9.399557,-0.418952,-0.015747,0.511971
760,176.333257,0.488289,11.596857,-0.365972,0.318853,0.260380
761,119.630732,11.718929,16.418708,-0.223270,0.295537,0.453742
762,121.034562,27.100023,16.540780,-0.291142,0.133425,0.785534
763,161.928740,32.532235,16.784924,-0.265629,0.246708,0.916884
764,172.365911,24.841688,20.630198,-0.162722,0.305547,1.141985
765,191.531243,21.240558,20.691234,-0.038819,0.235233,1.375509
766,224.979019,31.616693,13.550011,0.170779,0.168826,1.371237
767,243.289845,53.162432,-1.647974,0.375494,0.023804,1.292744
768,255.069810,78.492409,-15.808347,0.250370,-0.120851,1.219379
769,270.023651,85.694667,-23.498894,0.149050,-0.252689,0.983780
770,276.493477,75.684749,-22.827497,0.125612,-0.281743,0.879408
771,273.380636,61.341268,-19.226368,0.154299,-0.281621,0.916762
772,272.220951,52.307927,-18.799115,0.259770,-0.264286,1.022232
773,270.023651,54.139010,-23.315785,0.372442,-0.247318,1.152972
774,264.286259,63.355459,-31.006332,0.440314,-0.289921,1.305074
775,259.281300,72.449836,-39.368276,0.429328,-0.351446,1.481834
776,262.211032,76.722362,-45.899138,0.377081,-0.450446,1.568139
777,266.422522,75.867857,-48.401617,0.288945,-0.524178,1.623682
778,268.009461,71.534295,-47.119860,0.228519,-0.585458,1.660548
779,267.460136,66.102083,-43.335622,0.146120,-0.638804,1.641260
780,267.399100,62.317845,-38.818952,0.076539,-0.663340,1.604517
781,263.492790,63.660639,-34.241245,0.098146,-0.632456,1.544091
782,253.543908,69.764248,-32.104982,0.121462,-0.595712,1.517601
783,242.313268,77.943084,-31.982910,0.185794,-0.554574,1.515648
784,229.922942,86.549172,-32.410163,0.235355,-0.519295,1.576928
785,218.936446,93.324178,-32.104982,0.257450,-0.517952,1.657618
786,212.771801,94.117647,-30.762188,0.242802,-0.540169,1.652369
787,205.630579,89.845121,-27.344167,0.208377,-0.567025,1.631128
788,195.803769,81.666285,-22.522316,0.178103,-0.617441,1.648829
789,185.732815,67.566949,-16.418708,0.141726,-0.642222,1.787503
790,180.239567,50.415808,-12.390326,0.134524,-0.727550,1.910063
791,187.319753,39.002060,-13.488975,0.175051,-0.844251,1.867582
792,186.709392,44.678416,-21.118486,0.352300,-1.038102,1.757107
793,172.365911,67.811093,-38.330663,0.546761,-1.435813,1.646876
794,152.956436,108.827344,-55.481804,0.755138,-1.949859,1.509422
795,149.294270,171.633478,-83.985657,0.639536,-2.000031,1.183978
796,151.308461,221.194781,-83.741512,0.386847,-2.000031,0.115969
797,104.310674,199.465934,-54.749371,0.102541,-2.000031,-0.983169
798,39.795529,99.610895,-9.033341,-0.070436,-2.000031,-1.422995
799,-23.804074,-34.668498,34.973678,0.103395,-1.615869,-0.890150
800,-78.797589,-126.649882,60.364691,0.312749,-1.310689,0.228763
801,-90.028229,-150.942245,66.224155,0.418708,-0.957168,1.083879
802,-92.652781,-128.603037,58.960861,0.243290,-0.754284,1.608545
803,-122.804608,-128.480964,29.663539,0.011353,-0.922988,0.195315
804,-111.451896,-109.071489,54.200046,-0.156619,0.748669,1.241840
805,-132.509346,-90.211337,42.420081,-0.248539,0.709117,0.895521
806,-136.659800,-70.496681,49.317159,-0.289433,0.903334,-0.338018
807,-297.428855,-103.395132,50.904097,0.151125,-0.010010,-0.229740
808,-334.416724,-91.187915,67.505913,0.654063,-0.437507,1.133318
809,-293.888762,-67.750057,51.575494,1.455344,-0.035523,1.999969
810,-265.506981,-28.137636,18.005646,1.381247,-0.332403,1.999969
811,-159.609369,10.559243,-4.150454,-0.313359,-0.448493,1.999969
812,-159.426261,-33.325704,22.217136,-1.588159,-0.843397,1.999969
813,-37.232013,-88.075074,38.941024,-0.152224,-0.323125,1.678737
814,-28.870069,-87.159533,26.794842,1.708644,0.427008,1.999969
815,-43.884947,-4.211490,10.254063,0.535775,-0.006226,1.340230
816,-46.082246,5.493248,12.756542,-0.927993,-0.068727,1.089738
817,-30.579080,-42.786297,13.427939,-0.015503,0.044068,1.182269
818,-17.151141,-33.264668,-0.305180,0.490608,0.147341,1.237934
819,-37.842374,-14.953841,3.356985,-0.179568,-0.042969,1.101701
820,-20.263981,-24.719615,0.915541,-0.078370,-0.055299,1.173480
821,-5.493248,-25.452049,-2.441444,0.126101,0.063233,1.059953
822,-16.968032,-16.296635,0.427253,0.060670,-0.008667,1.093645
823,-6.103609,-14.709697,1.586938,-0.041749,-0.033326,1.077775
824,2.014191,-14.221408,0.671397,0.083253,0.100099,0.954116
825,-12.390326,-11.047532,2.685588,0.030884,0.075441,0.912490
826,-17.334249,-10.742351,3.234913,0.001343,0.018677,0.970474
827,-16.906996,-10.925460,3.112840,0.076417,0.067262,1.003799
828,-22.156100,-9.765774,3.662165,0.040162,0.013672,0.972671
829,-20.874342,-9.704738,2.380407,-0.010254,0.030274,0.985855
830,-23.559930,-11.352712,1.770047,0.012451,-0.009888,1.058610
831,-18.127718,-11.230640,1.342794,0.024414,-0.017456,1.025895
832,-16.540780,-11.169604,1.403830,0.025269,-0.011475,1.032975
833,-12.878614,-10.681315,0.976577,0.046143,0.004273,1.062150
834,-11.902037,-9.033341,1.098650,0.050904,0.007202,1.043351
835,-8.606088,-7.934691,0.732433,0.031617,-0.021973,1.024918
836,-8.117800,-6.408789,0.183108,0.024170,0.071290,1.035050
837,-14.160372,-6.958114,1.159686,0.035035,-0.013916,0.967666
838,-18.127718,-7.080186,1.037613,0.014405,0.001831,0.904921
839,-21.728847,-7.751583,0.976577,0.037232,0.027832,0.938857
840,-29.907683,-7.812619,0.976577,0.043824,-0.014160,1.014054
841,-27.649348,-6.103609,0.793469,0.076905,-0.041993,1.078264
842,-23.926146,-3.479057,1.159686,0.053101,-0.048463,1.036515
843,-22.278172,-1.586938,1.342794,0.050050,-0.036011,1.032242
844,-21.301595,-0.915541,2.014191,0.026978,-0.060426,1.026505
845,-16.296635,-0.976577,1.342794,0.025513,-0.035401,1.010513
846,-17.090105,-1.464866,1.220722,0.017578,-0.039429,0.990372
847,-16.540780,-2.868696,0.671397,0.024048,-0.032593,0.988174
848,-19.043259,-3.845274,0.305180,0.028443,-0.034302,0.985611
849,-19.470512,-4.516670,-0.183108,0.034668,-0.057496,0.997086
850,-18.432898,-4.638743,-0.366217,0.052613,-0.063966,1.034195
851,-16.235599,-3.723201,-0.305180,0.052247,-0.080812,1.034195
852,-13.183795,-3.173877,-0.122072,0.064942,-0.091676,1.042252
853,-9.765774,-1.586938,0.061036,0.053712,-0.077150,1.027359
854,-8.667124,-0.549325,0.671397,0.048707,-0.077272,1.005020
855,-7.873655,-0.610361,0.732433,0.030152,-0.056886,0.981582
856,-9.460594,-1.525902,0.427253,0.028321,-0.040528,0.962417
857,-12.634470,-2.990768,-0.183108,0.027222,-0.034180,0.957656
858,-17.334249,-3.906310,-0.427253,0.033936,-0.051881,0.970596
859,-18.066682,-4.882887,-0.976577,0.042725,-0.062501,0.967544
860,-19.958801,-5.493248,-0.915541,0.029419,-0.060182,0.971695
861,-23.193713,-6.469825,-0.976577,0.066285,-0.029175,1.056535
862,-26.611734,-4.211490,-1.709010,0.047486,-0.063600,0.986709
863,-28.503853,-3.418021,-1.953155,0.074464,-0.088380,0.995010
864,-27.405203,-1.831083,-1.586938,0.043946,-0.091920,1.038834
865,-28.076600,-1.586938,-1.281758,0.066773,-0.114015,1.036271
866,-26.367590,0.000000,-0.427253,0.065309,-0.115114,1.010025
867,-26.123445,2.258335,2.319371,0.076295,-0.090944,0.971206
868,-34.668498,5.493248,6.469825,0.056764,-0.119265,1.018936
869,-32.288090,6.530861,8.850233,0.031983,-0.118410,1.023331
870,-30.945296,7.324331,8.239872,0.075196,-0.071412,0.948257
871,-39.002060,7.324331,8.178836,0.000244,-0.082155,1.007218
872,-41.931792,6.286717,5.798428,0.020874,-0.097658,0.984634
873,-43.945983,5.554284,3.112840,0.044312,-0.123659,1.023331
874,-38.879988,5.310140,-0.305180,0.007813,-0.183230,0.976211
875,-36.133364,2.624552,-4.150454,-0.040528,-0.129641,1.002701
876,-46.753643,1.281758,-13.366903,-0.002564,-0.215213,1.045670
877,-37.659266,-2.319371,-9.460594,0.063233,-0.289067,0.996353
878,-13.427939,-5.859464,-7.690547,0.036866,-0.365118,0.950820
879,-0.061036,-3.784237,-12.817578,0.093629,-0.229374,1.133562
880,-5.981537,0.732433,0.671397,0.126467,-0.077638,0.996963
881,-22.156100,7.629511,-2.441444,0.063600,0.088991,0.978775
882,-56.397345,13.244831,-12.207218,0.147707,0.056031,0.972549
883,-92.042420,25.024796,-11.169604,0.025757,0.285893,0.848402
884,-147.402152,22.583352,-27.893492,-0.058961,0.418463,0.746105
885,-195.132372,-0.305180,-33.569848,-0.207889,-0.021973,0.787732
886,-262.394141,-19.775692,-27.100023,-0.065309,0.856947,0.908705
887,-422.369726,-30.640116,-34.424353,0.147829,0.465461,1.610498
888,-601.266499,-84.901198,13.061723,-0.902358,-0.070314,1.561303
889,-721.446555,-178.103304,37.842374,-0.167239,-0.336797,0.761975
890,-761.364157,-190.615702,66.773480,0.153567,-0.203983,0.880873
891,-830.518044,-192.996109,66.102083,0.529549,-1.271870,1.999969
892,-969.741360,-170.901045,188.479438,-0.652476,-0.899794,1.999969
893,-138.063630,-87.586786,3.906310,-0.348028,-1.028214,1.999969
894,328.618296,-11.291676,-39.856565,-0.190677,0.439094,1.999969
895,176.516365,36.682689,-60.059510,-0.285039,0.836194,1.812772
896,10.193027,-12.817578,26.123445,-0.736584,0.639048,1.033463
897,13.000687,-36.987869,46.448463,-0.402106,0.184695,0.739147
898,132.753491,-10.498207,34.668498,-0.367803,0.199954,0.408087
899,121.766995,-10.131991,40.466926,-0.207523,0.378302,0.131594
900,72.632944,-10.009918,42.664225,-0.104738,0.252689,0.513313
901,101.930266,5.004959,35.217823,-0.031373,0.258793,0.890150
902,130.800336,8.850233,26.733806,0.001587,0.361334,1.062272
903,144.472419,-0.305180,21.118486,0.008301,0.328130,1.263203
904,180.056458,-5.859464,12.085145,0.064332,0.300542,1.363546
905,212.222477,-1.953155,0.671397,0.115114,0.292851,1.297627
906,227.542535,8.178836,-10.864424,0.135134,0.194461,1.250019
907,243.595026,20.996414,-22.034028,0.114504,0.057618,1.175433
908,259.586481,30.395972,-31.250477,0.073121,-0.069581,1.087175
909,268.436713,33.142596,-36.926833,0.063111,-0.180179,0.953017
910,272.159915,31.067369,-42.420081,0.082155,-0.281010,0.902235
911,274.479286,31.006332,-46.753643,0.087648,-0.297368,0.877943
912,269.047074,25.635157,-50.598917,0.106203,-0.299077,0.974746
913,264.103151,24.353399,-55.420768,0.155886,-0.311162,1.230365
914,259.952697,32.043946,-61.219196,0.149660,-0.349248,1.469383
915,260.318914,42.420081,-67.505913,0.140993,-0.456794,1.673854
916,266.056306,54.505226,-71.534295,0.148318,-0.562997,1.770291
917,272.159915,64.454108,-72.571908,0.099855,-0.677379,1.751492
918,275.638972,70.008392,-69.703212,0.032715,-0.776623,1.691676
919,272.770275,72.816052,-62.073701,-0.051026,-0.856214,1.588281
920,265.568017,75.013352,-50.415808,-0.131838,-0.891737,1.500633
921,256.229496,77.027543,-35.889220,-0.161990,-0.861585,1.405905
922,242.435340,79.102770,-20.874342,-0.099367,-0.782727,1.406271
923,228.580148,81.849393,-9.216449,0.000000,-0.712902,1.411032
924,217.349508,83.863584,-1.403830,0.133913,-0.634409,1.423239
925,204.531930,81.849393,2.502480,0.263432,-0.556649,1.484276
926,195.864805,75.318532,1.586938,0.377325,-0.500862,1.626001
927,194.827192,69.214923,-3.967346,0.460822,-0.467292,1.753811
928,195.132372,63.599603,-12.207218,0.460578,-0.470710,1.807034
929,198.672465,59.327077,-21.423667,0.410773,-0.506355,1.817166
930,200.503548,56.519417,-29.297322,0.305425,-0.599985,1.747585
931,200.625620,53.650721,-34.607462,0.201053,-0.707897,1.610010
932,194.460975,56.092164,-37.903410,0.159915,-0.881483,1.461204
933,178.957809,66.102083,-38.818952,0.147585,-1.168109,1.272358
934,157.961395,78.126192,-35.095750,0.139284,-1.490623,1.122942
935,130.312047,86.671244,-31.555657,0.284184,-1.898711,1.018570
936,109.437705,95.704585,-22.522316,0.458381,-2.000031,0.914443
937,90.028229,112.550546,-26.489662,0.452766,-2.000031,0.631235
938,84.534981,123.109789,-13.305867,0.320439,-2.000031,-0.094972
939,32.837415,89.723049,14.404517,0.159915,-2.000031,-0.571542
940,-23.376822,14.343481,46.204318,0.040406,-1.942901,-1.799588
941,-148.744945,-123.781186,68.909743,0.807507,-1.547509,-1.288106
942,-228.580148,-201.846342,40.100710,1.349142,-1.022232,0.434211
943,-111.451896,-128.480964,10.193027,0.437629,0.323980,1.645899
944,-137.636378,-117.006180,8.850233,-0.398688,1.280537,1.999969
945,-208.804456,-102.357519,18.738079,-0.581430,0.372442,1.076066
946,-250.186923,-96.681163,29.175250,-0.514168,-0.523445,0.135500
947,-236.636912,-102.784772,48.950942,-0.265507,-0.402716,1.153948
948,-257.267109,-86.793317,62.928206,0.712169,-0.089357,1.999969
949,-196.841382,-62.256809,40.955215,1.149798,-0.294926,1.999969
950,-99.732967,-20.386053,13.977264,0.688609,-0.063722,1.867582
951,-108.339055,14.770733,12.390326,-0.000366,0.007813,1.275288
952,-150.576028,-18.432898,28.442817,-0.567391,-0.404181,1.999969
953,-49.439231,-39.551385,24.658579,-0.128298,-0.062867,1.797513
954,-40.039673,-52.002747,12.512398,0.833021,0.087404,1.746731
955,-38.147555,-11.963073,7.263294,0.256474,0.061646,1.116838
956,-52.185855,-7.385367,8.056764,-0.359747,0.041016,1.043839
957,-51.575494,-26.672770,4.577707,0.001953,-0.022950,1.193011
958,-32.532235,-24.536507,-2.075227,0.174075,0.057374,1.105486
959,-42.114900,-19.165332,-1.647974,-0.026123,-0.022705,1.202289
960,-24.719615,-20.691234,-4.943923,0.022339,-0.072877,1.156634
961,-14.465553,-16.235599,-5.249104,0.098512,0.035767,1.012467
962,-23.559930,-10.376135,-0.488289,0.036011,-0.011353,1.066789
963,-17.639429,-7.080186,0.061036,0.046387,-0.067506,0.972061
964,-13.183795,-6.469825,1.892119,0.050416,0.023804,1.026017
965,-17.395285,-5.188067,3.112840,0.029053,0.015869,0.993790
966,-16.662852,-4.943923,2.990768,0.034546,-0.013550,1.044694
967,-13.427939,-4.028382,2.380407,0.022827,0.006592,1.028092
968,-13.000687,-4.333562,2.014191,0.026123,-0.004883,1.018204
969,-12.085145,-4.150454,1.586938,-0.049073,0.064698,1.109270
970,-9.399557,-6.530861,3.356985,0.037964,0.030762,0.932753
971,-11.169604,-6.836042,1.709010,0.005371,-0.027710,0.987930
972,-9.704738,-7.080186,1.586938,0.016846,-0.012940,1.019425
973,-9.033341,-7.324331,2.258335,0.017212,0.013550,1.023819
974,-9.338521,-8.361944,2.502480,0.015137,0.025513,0.983780
975,-10.986496,-10.559243,1.831083,0.013550,-0.010742,1.021012
976,-8.911269,-10.376135,1.342794,0.043824,-0.015015,1.050919
977,-5.371176,-7.934691,1.525902,0.045777,0.008545,1.061051
978,-5.004959,-5.432212,1.647974,0.037598,-0.037354,0.982315
979,-4.577707,-4.333562,1.770047,0.013672,0.002075,1.030900
980,-5.432212,-3.967346,2.197299,0.021241,0.010498,1.012222
981,-4.943923,-4.150454,2.258335,0.008301,-0.003052,0.974746
982,-4.516670,-5.310140,1.831083,0.006958,-0.005615,0.989029
983,-4.028382,-6.713970,1.464866,0.006226,0.005615,0.964614
984,-7.568475,-8.789197,1.220722,-0.015381,0.022461,0.960708
985,-9.643702,-11.352712,0.488289,0.018433,-0.006226,0.958633
986,-11.169604,-13.061723,0.122072,0.023194,0.008423,0.949233
987,-16.174563,-13.977264,0.000000,0.032227,-0.010132,0.977432
988,-17.822538,-13.977264,-0.183108,0.042969,-0.030518,1.004044
989,-16.235599,-12.939651,-0.122072,0.060060,-0.029419,1.016617
990,-16.601816,-11.352712,0.122072,0.057130,-0.038087,1.011612
991,-16.479744,-9.704738,0.427253,0.053101,-0.031373,1.028214
992,-14.404517,-7.995727,0.305180,0.054688,-0.034180,0.982071
993,-15.869383,-7.385367,0.488289,0.057862,-0.038453,0.982315
994,-17.334249,-6.958114,0.671397,0.062013,-0.033692,0.993912
995,-18.432898,-6.469825,0.671397,0.050782,-0.026978,0.969009
996,-22.888533,-6.408789,0.793469,0.066285,-0.021729,0.992081
997,-24.658579,-5.920500,0.854505,0.046387,-0.045899,0.976089
998,-25.207904,-6.103609,1.159686,0.053590,-0.039185,0.977188
999,-28.381781,-5.920500,1.342794,0.063355,-0.054566,0.988418
1000,-27.893492,-5.493248,1.586938,0.062257,-0.069337,1.054948
1001,-28.503853,-2.197299,1.709010,0.087770,-0.087160,1.027848
1002,-26.001373,0.244144,1.770047,0.071168,-0.054810,1.059831
1003,-29.297322,1.281758,1.098650,0.023926,-0.064088,0.985122
1004,-28.564889,-0.427253,0.366217,0.035279,-0.052125,0.997940
1005,-31.128405,-0.671397,0.183108,0.049805,-0.073487,1.000626
1006,-31.372549,0.976577,1.342794,0.119509,-0.018311,0.968399
1007,-46.082246,4.821851,4.455634,0.075196,-0.110231,1.047379
1008,-43.335622,7.080186,6.591897,0.062745,-0.150515,1.028946
1009,-36.560616,8.789197,7.263294,0.072755,-0.078370,1.033829
1010,-45.960174,9.216449,7.263294,0.009522,-0.106813,1.016251
1011,-43.579767,7.751583,4.943923,-0.000977,-0.113405,0.985000
1012,-42.542153,6.164645,1.342794,0.017212,-0.111818,0.987442
1013,-47.913329,5.065995,-3.845274,-0.001953,-0.073854,0.922011
1014,-51.331350,2.624552,-11.352712,0.018799,-0.217411,1.047745
1015,-35.706111,-1.220722,-10.864424,0.068238,-0.242679,0.969253
1016,-12.390326,-5.432212,-9.521630,0.044556,-0.356939,1.041276
1017,-9.826810,1.403830,-12.329290,0.091920,-0.194583,1.116960
1018,-28.809033,10.131991,2.319371,0.137942,-0.145388,1.115007
1019,-38.513771,17.029068,5.249104,0.000366,0.032837,0.931411
1020,-53.711757,15.930419,-6.164645,0.071778,0.156374,0.925307
1021,-106.080720,25.391012,-3.906310,0.076295,0.291630,0.880262
1022,-158.327611,26.184482,-2.319371,-0.109377,0.406622,0.690318
1023,-215.579461,3.295949,2.929732,-0.280644,0.026490,0.550546
1024,-264.713512,-18.432898,11.413748,0.155520,1.151263,0.831067
1025,-464.850843,-34.790570,1.342794,0.046387,0.246830,1.404562
1026,-640.085451,-99.000534,66.163119,-0.637827,0.162722,1.999969
1027,-722.362097,-164.492256,59.571221,0.057374,-0.193362,1.213519
1028,-804.272526,-166.079194,79.957275,0.178592,-0.160647,0.943008
1029,-950.331884,-160.769055,159.487297,0.070680,-2.000031,1.999969
1030,-498.176547,-85.084306,132.143130,-0.887587,-1.617212,1.999969
1031,239.444572,-30.518044,-8.789197,-0.273320,0.960098,1.999969
1032,250.186923,44.251164,-39.734493,0.030152,1.335592,1.536767
1033,31.006332,23.498894,0.000000,-0.492561,0.719249,1.086198
1034,-63.477531,-31.311513,43.762875,-0.235599,0.225711,0.456916
1035,38.757916,-19.043259,24.109255,-0.068849,0.133181,0.416876
1036,86.427100,-18.616007,11.291676,-0.023438,0.465583,0.154665
1037,24.841688,-27.344167,9.155413,0.126955,0.458259,0.523445
1038,41.321431,-18.982223,-5.004959,0.139162,0.381353,0.895766
1039,83.192187,-8.361944,-19.897765,0.082399,0.504158,0.996719
1040,90.516518,-13.366903,-26.733806,0.005737,0.487068,1.158343
1041,119.874876,-19.531548,-31.494621,-0.051637,0.425299,1.313863
1042,158.144503,-22.034028,-35.645075,-0.087648,0.427131,1.343404
1043,182.253758,-17.822538,-37.842374,-0.133425,0.357549,1.338277
1044,207.095445,-5.554284,-38.941024,-0.177615,0.243534,1.305684
1045,231.448844,11.291676,-37.354086,-0.222416,0.142702,1.244770
1046,248.233768,24.170291,-31.433585,-0.262699,0.029786,1.122576
1047,263.553826,30.518044,-22.888533,-0.223026,-0.040162,1.021622
1048,274.174105,30.640116,-14.160372,-0.134768,-0.063233,0.934829
1049,279.056992,26.733806,-9.094377,-0.004028,-0.061646,0.992081
1050,284.367132,23.254749,-8.789197,0.164797,-0.042969,1.177630
1051,291.813535,24.475471,-15.503166,0.273075,-0.065919,1.214740
1052,297.978180,33.203632,-29.541466,0.344488,-0.198734,0.987320
1053,284.794385,50.904097,-45.166705,0.324468,-0.454597,0.570809
1054,259.159228,74.097810,-52.429999,0.245365,-0.442878,0.552010
1055,220.401312,74.280919,-54.200046,0.119142,-0.361700,0.911879
1056,206.240940,64.454108,-53.284504,0.087526,-0.241337,1.639796
1057,205.081254,66.468299,-52.368963,0.124758,-0.200443,1.999969
1058,223.453117,81.422141,-52.368963,0.117556,-0.356329,1.999969
1059,262.455177,98.207065,-54.139010,0.049317,-0.538460,1.999969
1060,269.047074,105.470359,-49.195087,-0.002441,-0.615000,1.999969
1061,261.295491,95.582513,-38.574807,-0.072145,-0.737316,1.999969
1062,281.071183,82.642863,-31.494621,0.019409,-0.902235,1.999969
1063,296.818494,90.150301,-30.090791,0.111696,-0.898573,1.999969
1064,273.258564,98.756390,-28.442817,0.176394,-0.957046,1.999969
1065,277.531090,106.019684,-29.724575,0.309453,-0.940688,1.958038
1066,276.310369,105.775540,-33.081559,0.399420,-0.899794,1.781521
1067,261.722744,104.310674,-36.011292,0.426154,-0.942519,1.696437
1068,248.661021,105.592432,-37.598230,0.289921,-1.081559,1.646509
1069,232.303349,106.935225,-34.668498,0.059327,-1.357565,1.512108
1070,212.405585,108.400092,-25.268940,-0.068238,-1.715114,1.325826
1071,179.446098,112.367437,-13.672084,0.148562,-2.000031,1.267964
1072,147.585260,126.832990,-0.976577,0.516732,-2.000031,1.201556
1073,118.532082,153.566796,-21.240558,0.760143,-2.000031,0.415412
1074,124.208438,168.215457,-32.104982,0.705699,-2.000031,-0.875990
1075,42.786297,102.357519,-10.315099,0.163821,-2.000031,-2.000031
1076,-138.979171,-96.314946,43.579767,0.486336,-2.000031,-2.000031
1077,-292.179751,-256.839857,58.777752,1.356588,-2.000031,0.091066
1078,-189.639124,-210.025177,24.902724,0.792981,-0.233768,1.999969
1079,-114.381628,-133.607996,0.793469,-0.379400,0.757824,1.999969
1080,-115.297169,-96.253910,17.883574,-0.923842,0.579965,0.920302
1081,-214.053559,-103.150988,51.941711,-0.546029,0.021485,-0.742687
1082,-290.897993,-117.189288,66.895552,0.135134,-0.358526,0.588754
1083,-315.251392,-78.492409,77.515831,0.873671,-0.105959,1.999969
1084,-232.852674,-58.167391,50.171664,1.694850,-0.328252,1.999969
1085,-102.723735,2.990768,2.319371,1.310811,-0.141726,1.497337
1086,-137.209125,29.480430,-9.887846,-0.274052,0.071534,1.396750
1087,-187.685969,1.342794,24.292363,-1.843534,-0.645274,1.999969
1088,-71.168078,-71.717403,42.664225,-1.115496,-0.646738,0.869520
1089,-64.332036,-126.283665,50.171664,1.170916,0.485115,1.999969
1090,-52.246891,-65.918975,22.034028,1.710231,0.180179,1.999969
1091,-31.433585,10.803388,3.234913,-0.588144,0.033936,1.080949
1092,-49.317159,-28.198672,16.174563,-0.536751,-0.036866,0.882582
1093,-34.729534,-42.908370,5.065995,0.612192,0.145876,1.510399
1094,-32.898451,-7.995727,0.427253,0.088624,-0.000244,1.071305
1095,-34.302281,-10.131991,2.990768,-0.312993,-0.011963,0.996231
1096,-27.344167,-21.911955,1.525902,0.154299,0.067140,1.089738
1097,-27.527276,-11.169604,0.427253,0.078981,-0.005982,1.126238
1098,-20.141909,-7.507439,1.159686,-0.097536,0.008545,1.042496
1099,-18.677043,-9.765774,0.000000,0.088991,0.044312,1.029923
1100,-22.461280,-3.173877,0.671397,0.043458,0.011109,1.074601
1101,-20.691234,-1.159686,1.525902,0.005493,-0.000244,1.042130
1102,-19.531548,1.586938,1.770047,0.092897,0.002686,1.074968
1103,-19.043259,7.080186,3.234913,0.028931,-0.018799,1.045670
1104,-17.029068,8.972305,3.356985,-0.010742,-0.000732,0.989395
1105,-19.287404,8.850233,3.906310,-0.008667,-0.013184,1.003433
1106,-18.799115,8.117800,4.089418,-0.032349,-0.016602,1.005386
1107,-17.578393,8.850233,0.305180,0.077028,-0.318486,0.558236
1108,-14.648661,5.310140,1.831083,-0.063355,-0.003418,1.094499
1109,-17.151141,1.525902,3.051804,-0.023438,-0.021851,1.007950
1110,-13.366903,0.305180,2.014191,-0.033570,-0.021973,0.987320
1111,-13.305867,-0.610361,1.709010,-0.022461,-0.031983,1.010758
1112,-11.108568,-1.281758,1.342794,-0.028199,-0.026368,1.002823
1113,-11.413748,-2.563516,1.159686,-0.026368,-0.023072,0.978897
1114,-12.329290,-3.234913,1.037613,-0.014038,-0.015015,0.985977
1115,-14.160372,-3.112840,1.220722,-0.024048,-0.036500,0.993301
1116,-11.841001,-5.065995,0.000000,-0.062013,0.055665,1.050309
1117,-15.259022,-4.638743,1.647974,-0.016846,-0.034058,0.965103
1118,-15.686275,-5.371176,2.014191,-0.031495,-0.047364,1.038468
1119,-13.794156,-6.408789,1.586938,-0.016602,-0.060670,0.982193
1120,-12.817578,-7.751583,1.037613,-0.025147,-0.057496,0.987320
1121,-13.305867,-8.911269,0.915541,-0.031250,-0.054322,0.999405
1122,-12.634470,-10.254063,0.488289,-0.014160,-0.053101,0.981827
1123,-15.075914,-11.963073,0.671397,-0.018433,-0.036378,0.975479
1124,-16.296635,-11.474784,-1.647974,0.141726,-0.159426,0.667002
1125,-15.320058,-14.099336,-1.281758,-0.013916,-0.020752,1.091203
1126,-20.935378,-14.465553,0.366217,0.020508,-0.052735,1.006119
1127,-19.409476,-12.817578,0.366217,0.029053,-0.070069,1.000626
1128,-18.371862,-10.925460,0.671397,0.022583,-0.071534,1.004410
1129,-20.447089,-9.826810,1.220722,0.009522,-0.062013,1.014176
1130,-20.325017,-9.765774,1.403830,0.009888,-0.083742,1.001358
1131,-18.738079,-9.338521,1.342794,0.028809,-0.070192,0.996719
1132,-22.705425,-9.216449,1.342794,-0.019287,-0.062379,1.004288
1133,-22.522316,-10.009918,0.671397,0.011719,-0.070069,0.986954
1134,-24.719615,-10.254063,0.000000,0.022217,-0.076173,0.991958
1135,-26.062409,-9.704738,-2.075227,0.022950,-0.083497,1.008560
1136,-24.719615,-8.789197,-0.854505,0.029053,-0.055787,0.973526
1137,-30.457008,-7.873655,-0.610361,0.035035,-0.081544,0.998184
1138,-30.823224,-6.225681,-0.427253,0.001221,-0.104372,1.000504
1139,-30.273899,-5.127031,1.342794,0.058595,-0.093507,1.005142
1140,-34.851606,-2.563516,3.418021,0.013550,-0.097414,1.000992
1141,-37.537194,-0.793469,5.065995,0.083864,-0.120729,1.092546
1142,-38.025483,4.211490,6.897078,0.024292,-0.158816,1.011246
1143,-34.363317,4.638743,7.934691,0.042359,-0.145998,0.994278
1144,-31.616693,6.408789,9.521630,0.029786,-0.126467,0.903456
1145,-33.081559,5.737392,9.704738,-0.016114,-0.103151,1.029923
1146,-32.837415,5.981537,6.897078,-0.018799,-0.144167,1.033463
1147,-24.048219,7.202258,3.662165,-0.042847,-0.072267,0.916274
1148,-46.631571,-2.563516,-6.408789,-0.051637,-0.088869,1.026749
1149,-62.806134,-6.775006,-16.113527,-0.015503,-0.166262,1.042008
1150,-56.763561,-2.807660,-10.437171,0.093751,-0.330938,1.035416
1151,-38.025483,-2.929732,-3.662165,0.013550,-0.209598,1.034562
1152,-29.053178,-5.493248,-10.070954,0.031617,-0.245731,1.089250
1153,-29.480430,-5.310140,-9.399557,0.055787,-0.134890,0.996475
1154,-41.260395,-1.709010,-14.709697,0.017456,0.013184,1.012222
1155,-59.693294,-4.333562,-18.677043,0.046754,-0.097292,1.095720
1156,-87.525750,6.408789,-19.531548,0.033692,0.118898,0.848524
1157,-107.545586,0.000000,-23.743038,-0.083375,0.474739,0.690806
1158,-175.600824,-8.178836,-30.701152,0.224979,0.034180,0.623178
1159,-255.924315,-18.127718,-19.226368,0.058350,1.216571,0.450813
1160,-492.988479,-26.550698,-26.062409,-0.010376,0.242802,1.627344
1161,-634.225986,-56.275273,38.269627,-0.182498,-0.040650,1.581567
1162,-692.698558,-88.990616,29.602502,0.023926,-0.481209,1.531151
1163,-738.170443,-96.803235,39.612421,0.005371,-0.360357,0.711681
1164,-802.319371,-114.869917,58.167391,-0.392096,-1.362814,1.009537
1165,-955.397879,-119.752804,195.193408,-0.952529,-2.000031,1.999969
1166,-415.350576,-106.507973,77.576867,-1.113787,-2.000031,1.999969
1167,72.449836,-128.419928,35.400931,-0.282597,0.062501,1.999969
1168,1.525902,-79.530022,18.249790,0.239017,1.222309,1.999969
1169,-106.935225,-42.542153,64.576181,0.119997,0.967300,1.999969
1170,4.943923,7.263294,31.616693,0.255497,0.331426,1.999969
1171,171.755550,51.209277,-2.258335,0.105715,0.520027,1.495628
1172,149.843595,37.598230,-7.751583,0.063233,0.441291,0.864149
1173,134.828717,11.963073,-6.775006,-0.041138,0.140993,0.763439
1174,178.286412,-9.887846,-9.826810,-0.089357,0.076783,0.571664
1175,186.343175,-32.471199,-9.948882,-0.057252,0.113405,0.421515
1176,178.957809,-47.791257,-10.681315,-0.063844,0.071290,0.606821
1177,191.775387,-53.223468,-16.418708,-0.056764,0.046632,0.751476
1178,206.118868,-49.317159,-24.719615,-0.061402,0.078248,0.800793
1179,210.452430,-39.734493,-33.203632,-0.091432,0.056641,0.867079
1180,219.546807,-24.658579,-40.100710,-0.164797,0.033204,1.029313
1181,230.472267,-10.925460,-43.823911,-0.237186,-0.035645,1.151019
1182,247.928588,-0.122072,-41.992828,-0.350591,-0.065553,1.294575
1183,267.277028,7.690547,-36.316472,-0.407477,-0.162356,1.381857
1184,286.991684,15.686275,-26.428626,-0.432013,-0.264652,1.412253
1185,308.171206,21.667811,-14.160372,-0.401862,-0.363653,1.259785
1186,319.829099,22.705425,-1.709010,-0.287968,-0.374884,1.168231
1187,321.965362,20.325017,5.920500,-0.064942,-0.384039,1.153460
1188,324.101625,21.240558,4.150454,0.160769,-0.366339,1.157488
1189,318.791485,30.273899,-8.667124,0.300298,-0.448737,1.118181
1190,308.293278,49.134051,-23.804074,0.347906,-0.547982,0.900771
1191,287.724117,66.651408,-37.354086,0.331182,-0.584848,0.745739
1192,253.177691,71.473259,-43.884947,0.219242,-0.581308,0.855726
1193,229.129473,60.059510,-48.157473,0.161013,-0.549569,1.160052
1194,219.485771,55.909056,-51.758602,0.098756,-0.446784,1.561303
1195,203.616388,60.547799,-51.636530,0.029175,-0.423590,1.999969
1196,204.165713,66.346227,-49.561303,-0.015625,-0.538582,1.999969
1197,237.613489,70.679789,-47.486076,-0.018189,-0.673716,1.999969
1198,267.338064,69.581140,-45.349813,0.034424,-0.743420,1.999969
1199,272.709239,69.764248,-44.739452,0.190311,-0.819348,1.999969
1200,263.797971,75.623713,-46.997787,0.339483,-0.834852,1.999969
1201,260.990311,80.872816,-56.031128,0.500984,-0.958877,1.584863
1202,250.125887,90.028229,-68.055238,0.709117,-0.880140,1.430198
1203,209.353780,90.577554,-77.393759,0.693736,-0.951797,1.599756
1204,208.316167,82.520790,-86.793317,0.686046,-1.062882,1.594018
1205,202.578775,72.632944,-91.920348,0.566171,-1.197772,1.541894
1206,182.314794,63.233387,-89.478904,0.304814,-1.581201,1.513573
1207,175.478752,61.463340,-79.468986,0.177859,-2.000031,1.484764
1208,164.370184,70.252537,-60.914015,0.201785,-2.000031,1.252827
1209,145.998322,85.633631,-41.321431,0.263798,-2.000031,0.633555
1210,130.983444,100.099184,-22.644388,0.203372,-2.000031,-0.184573
1211,85.572595,89.600977,9.277485,0.050294,-2.000031,-0.856214
1212,5.249104,35.950256,48.950942,-0.149538,-2.000031,-0.828504
1213,-120.241093,-90.821698,79.896239,0.466804,-2.000031,-1.512352
1214,-248.050660,-175.783932,86.060884,1.324727,-1.523827,-0.156619
1215,-138.735027,-106.630045,43.945983,0.751720,0.092653,1.484031
1216,-108.705272,-106.935225,20.752270,-0.186160,1.088396,1.999969
1217,-185.732815,-105.348287,34.241245,-0.128664,0.848280,1.029068
1218,-284.550240,-100.038148,38.635843,0.012207,-0.269047,0.610727
1219,-280.827039,-86.488136,50.232700,0.182620,-0.571542,1.730129
1220,-224.063478,-75.318532,42.542153,1.079606,-0.312505,1.999969
1221,-156.557565,-36.133364,17.029068,1.086320,-0.171878,1.999969
1222,-93.812467,-5.188067,-2.685588,0.314580,0.006348,1.738552
1223,-114.503700,0.915541,17.395285,-0.897963,0.128054,1.786282
1224,-119.630732,-43.335622,35.339895,-1.037491,-0.388190,1.382223
1225,-57.618067,-89.662013,29.602502,0.604990,0.316411,1.999969
1226,-56.763561,-52.979324,6.836042,1.292866,-0.092164,1.792142
1227,-20.569162,0.000000,-0.732433,-0.277592,0.120607,1.233661
1228,-51.819638,-26.489662,7.385367,-0.465461,-0.100099,0.877455
1229,-26.733806,-43.457694,-0.305180,0.295781,0.058595,1.254047
1230,-35.156786,-28.870069,-1.525902,0.175174,0.036011,1.170672
1231,-32.166018,-23.987182,-0.549325,-0.065797,-0.143557,1.167010
1232,-4.333562,-25.452049,-3.051804,0.121950,0.065064,1.110002
1233,-14.526589,-19.470512,-0.488289,0.105592,0.005859,1.049210
1234,-11.657893,-13.122759,0.000000,0.014527,-0.009644,1.038468
1235,-8.789197,-12.878614,1.220722,0.041016,0.040162,0.989151
1236,-9.948882,-9.155413,2.685588,0.095583,0.047364,0.991836
1237,-14.770733,-3.479057,3.723201,0.058228,-0.011719,1.002213
1238,-13.550011,-0.366217,4.333562,0.052125,0.033692,1.032242
1239,-15.075914,0.427253,4.699779,0.034424,-0.004883,0.973770
1240,-14.221408,0.000000,4.577707,0.003540,0.010742,1.012589
1241,-11.902037,-2.014191,3.784237,0.008911,0.015259,0.995499
1242,-13.366903,-3.540093,2.868696,0.008423,0.038087,0.949844
1243,-18.005646,-6.225681,2.197299,-0.003906,0.021973,0.992569
1244,-17.273213,-7.080186,0.854505,0.032593,-0.038209,0.943984
1245,-18.066682,-7.202258,1.098650,0.048585,-0.001343,0.981582
1246,-20.935378,-6.408789,0.976577,0.039185,-0.019532,1.031754
1247,-17.578393,-4.943923,1.342794,0.055543,-0.032593,1.011612
1248,-16.296635,-3.051804,1.342794,0.058839,-0.001221,1.005631
1249,-20.996414,-1.892119,1.770047,0.025269,-0.033570,1.015396
1250,-16.906996,-1.403830,1.525902,0.058839,-0.045045,1.013077
1251,-18.249790,0.122072,1.831083,0.033448,-0.031861,1.013321
1252,-15.991455,0.183108,1.525902,0.015015,-0.030152,0.999161
1253,-16.540780,-1.159686,1.342794,0.018189,-0.022461,0.982193
1254,-17.517357,-2.197299,0.549325,0.020630,-0.011841,0.979507
1255,-21.301595,-2.807660,0.488289,0.037110,-0.048341,1.008438
1256,-19.653620,-2.380407,0.000000,0.042115,-0.042359,1.011978
1257,-20.019837,-1.403830,-0.183108,0.034058,-0.049195,1.020645
1258,-18.921187,-0.793469,-0.122072,0.042847,-0.055787,1.013809
1259,-17.822538,-0.305180,-0.366217,0.040284,-0.049928,1.011124
1260,-18.371862,0.183108,0.244144,0.055787,-0.080446,1.021622
1261,-14.465553,1.342794,0.732433,0.032593,-0.072633,1.021744
1262,-14.160372,1.647974,1.037613,0.046265,-0.074708,1.014176
1263,-12.695506,2.441444,1.464866,0.038575,-0.076783,1.006973
1264,-11.108568,2.990768,1.525902,0.037476,-0.067140,1.008194
1265,-12.268254,3.418021,1.892119,0.039551,-0.068238,1.020157
1266,-11.718929,4.089418,1.709010,0.031983,-0.067140,1.005875
1267,-11.291676,4.394598,1.647974,0.039307,-0.067018,1.006973
1268,-11.779965,4.760815,1.770047,0.028931,-0.070924,0.989029
1269,-12.268254,4.333562,1.709010,0.016968,-0.069947,1.001480
1270,-11.291676,3.479057,1.403830,0.024048,-0.071168,0.996353
1271,-11.413748,3.173877,0.671397,0.019287,-0.064698,0.993912
1272,-12.024109,2.624552,0.122072,0.026246,-0.077760,1.004532
1273,-11.657893,2.990768,-0.549325,0.026001,-0.081544,1.021500
1274,-10.864424,3.418021,-1.159686,0.025025,-0.072877,1.019425
1275,-10.559243,4.333562,-1.709010,0.037110,-0.088136,0.991104
1276,-10.986496,4.760815,-1.525902,-0.021363,0.083253,0.886488
1277,-18.799115,5.859464,1.770047,0.096315,-0.085695,0.899306
1278,-9.826810,10.009918,5.065995,-0.017823,0.014282,0.830945
1279,-30.884260,7.202258,6.713970,0.052979,-0.035889,0.992569
1280,-33.142596,9.460594,8.178836,-0.004517,-0.110719,1.026993
1281,-25.635157,9.338521,7.507439,0.014893,-0.064942,1.011978
1282,-29.236286,9.887846,6.042573,-0.016846,-0.098756,0.967544
1283,-23.620966,9.765774,7.690547,-0.038941,-0.029786,1.036271
1284,-28.076600,5.188067,-2.502480,-0.029541,-0.118288,0.914565
1285,-35.706111,-1.098650,-4.699779,-0.069703,-0.115969,1.081682
1286,-44.861524,-3.479057,-10.620279,-0.084230,-0.137697,0.992569
1287,-52.674144,-10.315099,-16.845960,0.000366,-0.168948,1.029801
1288,-46.570535,-6.836042,-11.291676,0.085328,-0.252811,1.053117
1289,-41.504540,-1.586938,-5.432212,0.025269,-0.179690,1.028214
1290,-36.682689,-4.760815,-4.150454,-0.002441,-0.117556,1.019791
1291,-45.899138,-5.249104,-9.643702,0.065675,-0.068971,0.986099
1292,-58.411536,-0.854505,-12.512398,0.032959,0.042847,0.920912
1293,-83.619440,1.037613,-13.366903,0.025635,0.193240,0.803967
1294,-137.636378,6.530861,-18.860151,0.026978,0.364630,0.712535
1295,-183.962768,-3.723201,-20.569162,-0.059693,0.208621,0.859266
1296,-229.129473,-21.606775,-12.573434,0.144411,0.854871,0.787121
1297,-366.582742,-21.179522,-28.564889,-0.141970,0.726329,1.810941
1298,-567.086290,-49.439231,1.342794,-0.484504,-0.192142,1.286885
1299,-626.108186,-104.371710,17.029068,-0.157107,-0.255375,0.923964
1300,-671.885252,-125.490196,27.161059,0.127443,-0.453986,1.139666
1301,-734.935531,-146.791791,49.134051,-0.069093,-0.341314,0.659068
1302,-830.518044,-174.807355,81.300069,0.576303,-2.000031,1.999969
1303,-811.841001,-150.148775,185.671778,-0.489509,-0.471687,1.999969
1304,-98.084993,-163.088426,-5.188067,0.184451,-0.544198,1.999969
1305,161.257343,-98.573281,-16.601816,0.084596,1.095109,1.999969
1306,41.382467,-17.395285,-42.664225,0.261479,0.824720,1.999969
1307,-7.934691,4.211490,-18.982223,-0.230350,0.440803,1.999969
1308,134.401465,41.687648,-29.663539,-0.265019,0.168215,1.556298
1309,192.813001,47.974365,-28.992142,-0.312505,0.300175,0.539803
1310,143.312734,27.100023,-14.343481,-0.217166,0.187503,0.284428
1311,136.903944,15.320058,-6.164645,-0.160403,0.043580,0.394171
1312,159.792477,13.183795,-6.530861,-0.041993,0.105715,0.358282
1313,153.139544,9.704738,-6.286717,-0.006592,0.166140,0.505135
1314,151.186389,3.051804,-6.958114,0.005493,0.151247,0.775158
1315,174.868391,-2.746624,-11.291676,0.021118,0.185183,0.950942
1316,190.005341,-5.859464,-15.381094,0.021241,0.210575,1.028092
1317,203.189136,-4.089418,-19.653620,0.001221,0.143557,1.075334
1318,221.988251,4.211490,-23.682002,-0.023926,0.068727,1.025162
1319,232.242313,13.855192,-26.245518,-0.069093,0.011719,1.058976
1320,242.496376,23.254749,-25.696193,-0.104372,-0.072511,1.044327
1321,253.665980,31.616693,-22.522316,-0.135988,-0.128298,1.046525
1322,258.670939,36.133364,-16.113527,-0.127810,-0.172244,1.127092
1323,264.591440,36.255436,-9.094377,-0.079835,-0.209598,1.256977
1324,274.357214,34.363317,-3.784237,-0.018677,-0.250370,1.382467
1325,284.245060,33.813993,-0.915541,0.063355,-0.268193,1.521508
1326,289.921416,38.513771,-4.516670,0.193362,-0.406867,1.522606
1327,300.358587,52.613108,-12.756542,0.214237,-0.459236,1.508568
1328,299.626154,68.177310,-19.287404,0.157107,-0.550912,1.296651
1329,288.761730,72.022583,-21.606775,0.122072,-0.600839,1.245502
1330,277.958343,73.670558,-22.949569,0.116701,-0.623545,1.111101
1331,257.877470,73.914702,-25.635157,0.134768,-0.603159,1.060807
1332,232.730602,73.670558,-26.367590,0.191409,-0.471565,1.347189
1333,210.940719,65.735866,-30.029755,0.292119,-0.467048,1.691310
1334,211.734188,52.368963,-39.429313,0.430426,-0.419196,1.999969
1335,219.851987,46.509499,-54.688334,0.525765,-0.458991,1.999969
1336,235.355154,56.458381,-74.036774,0.507576,-0.578012,1.999969
1337,243.778134,71.107042,-89.723049,0.381842,-0.659312,1.999969
1338,243.717098,79.774166,-96.986343,0.242435,-0.787243,1.999969
1339,250.736248,81.910430,-100.343328,0.191287,-0.853773,1.883696
1340,244.205386,89.478904,-101.625086,0.270268,-0.893690,1.716945
1341,227.908751,106.263828,-104.310674,0.302007,-1.000870,1.568505
1342,212.405585,124.269474,-105.226215,0.256229,-1.154437,1.393576
1343,191.531243,132.875563,-99.916075,0.103395,-1.401999,1.309346
1344,165.896086,128.419928,-84.962234,-0.025147,-1.783352,1.492332
1345,146.242466,116.639963,-61.036088,0.007324,-2.000031,1.669215
1346,142.641337,117.860685,-35.767147,0.157717,-2.000031,1.371969
1347,163.088426,132.509346,-21.118486,0.234745,-2.000031,0.196902
1348,142.763409,126.832990,-2.563516,0.185306,-2.000031,-1.150042
1349,42.725261,70.252537,29.785611,0.051392,-2.000031,-1.640040
1350,-56.092164,-18.493935,60.791943,-0.047364,-1.704982,-0.876478
1351,-172.243839,-135.744259,75.867857,0.142214,-1.954253,-1.402121
1352,-278.690776,-228.885328,97.352560,0.664439,-1.155901,0.566903
1353,-156.923781,-194.399939,72.449836,0.448249,0.135378,1.867094
1354,-121.950103,-138.551919,66.224155,-0.195926,1.208270,1.999969
1355,-216.067750,-108.705272,80.628672,-0.027588,0.632944,1.228534
1356,-257.755398,-115.602350,79.957275,0.759167,-0.359136,0.427253
1357,-239.261463,-88.441291,67.627985,1.136858,-0.266972,0.988174
1358,-257.450217,-69.581140,52.674144,1.628443,0.044800,1.999969
1359,-205.264363,-41.687648,13.061723,1.492454,-0.113039,1.999969
1360,-127.016098,6.836042,-19.287404,0.272953,-0.346075,1.760891
1361,-117.189288,19.470512,-0.854505,-1.419944,-0.146120,1.781643
1362,-144.411383,-37.598230,42.359045,-1.728054,-0.712779,1.485008
1363,-62.439918,-109.010452,50.537881,0.256352,-0.005249,1.867216
1364,-57.557031,-98.390173,30.518044,1.996979,0.259770,1.999969
1365,-36.987869,-8.300908,1.098650,0.383795,-0.030030,1.128313
1366,-59.937438,-9.216449,5.371176,-0.881361,-0.123293,1.180804
1367,-41.321431,-52.063783,6.103609,0.123415,-0.065431,1.188251
1368,-25.329976,-37.720302,-4.272526,0.452399,0.095094,1.237690
1369,-45.105669,-16.235599,-1.342794,-0.034302,-0.201053,1.311666
1370,-4.943923,-18.677043,-3.051804,-0.044190,-0.086183,1.188739
1371,0.610361,-19.104295,-3.540093,0.137697,0.049928,0.969497
1372,-9.582666,-12.878614,-1.281758,0.001221,-0.027832,1.084367
1373,-3.356985,-15.075914,-1.037613,-0.030640,-0.054444,1.051286
1374,3.173877,-15.075914,-0.976577,0.105470,-0.010254,0.953994
1375,-5.004959,-8.606088,1.403830,0.087160,0.000122,0.986465
1376,-4.577707,-4.516670,3.112840,0.031617,0.000000,1.017960
1377,-6.103609,-1.403830,3.356985,0.061036,0.035523,0.955947
1378,-10.742351,0.061036,3.356985,0.016358,0.019287,0.976822
1379,-11.169604,-0.976577,3.112840,0.014160,0.017945,0.965469
1380,-12.329290,-1.709010,1.831083,0.029297,0.063355,0.983902
1381,-19.470512,-3.295949,1.464866,0.004517,-0.024048,1.022110
1382,-12.634470,-4.394598,0.671397,0.032959,-0.035767,1.029191
1383,-10.131991,-3.112840,0.305180,0.044678,0.006836,0.978408
1384,-14.160372,-2.502480,1.220722,0.010742,0.008667,0.992691
1385,-13.672084,-1.159686,0.549325,0.034668,-0.003662,0.938491
1386,-21.789883,-0.427253,1.770047,0.048829,0.004517,0.953628
1387,-24.841688,1.037613,2.197299,0.020386,-0.016358,1.005386
1388,-25.085832,-0.061036,2.563516,0.023926,-0.038819,1.020279
1389,-20.996414,0.000000,1.709010,0.016480,-0.031739,0.991348
1390,-21.606775,-1.464866,1.342794,0.007935,-0.030762,1.012711
1391,-19.958801,-2.990768,0.793469,0.009400,-0.050172,0.996475
1392,-18.493935,-4.272526,0.061036,0.016236,-0.027832,0.997208
1393,-21.850919,-4.760815,0.000000,0.022827,-0.047852,0.995377
1394,-21.423667,-4.699779,0.122072,0.043458,-0.064820,0.959854
1395,-25.940337,-4.211490,0.427253,0.026368,-0.059693,1.010391
1396,-23.865110,-3.967346,0.366217,0.031128,-0.063111,1.017350
1397,-23.865110,-2.746624,0.427253,0.048463,-0.070558,1.038834
1398,-22.644388,-0.793469,0.366217,0.048829,-0.065919,1.034684
1399,-22.949569,1.709010,0.488289,0.070558,-0.081544,1.045914
1400,-21.118486,4.211490,1.464866,0.057374,-0.091188,1.025162
1401,-20.447089,5.554284,2.319371,0.029297,-0.069581,0.998550
1402,-21.484703,5.737392,2.685588,0.044190,-0.090822,1.000748
1403,-19.104295,5.981537,3.356985,0.033448,-0.083986,1.012467
1404,-18.738079,5.615320,3.601129,0.020874,-0.077028,0.993179
1405,-19.531548,4.821851,3.906310,0.025269,-0.081666,1.003555
1406,-19.836728,4.333562,3.723201,0.021973,-0.087404,1.005631
1407,-19.226368,4.150454,3.234913,0.033448,-0.092409,0.994766
1408,-19.775692,4.028382,2.807660,0.015503,-0.082765,0.997086
1409,-21.301595,3.845274,2.441444,0.031495,-0.097658,1.004654
1410,-20.202945,4.150454,1.403830,0.017456,-0.110719,1.008072
1411,-19.470512,3.967346,0.732433,0.014527,-0.123659,1.009659
1412,-16.357671,3.356985,-0.122072,0.005371,-0.098756,0.998062
1413,-16.540780,3.540093,-0.244144,0.034913,-0.077150,0.972915
1414,-25.085832,4.150454,0.671397,-0.028931,-0.090822,0.973281
1415,-22.339208,3.295949,0.488289,0.036011,-0.078737,0.989517
1416,-30.151827,5.188067,2.685588,0.029053,-0.096071,0.985977
1417,-33.264668,6.408789,5.004959,0.022705,-0.128298,1.010758
1418,-31.860838,8.117800,5.920500,-0.010254,-0.120241,1.018448
1419,-33.020523,7.995727,7.568475,-0.004150,-0.115480,1.000748
1420,-31.677729,6.775006,7.385367,0.005371,-0.131716,1.028092
1421,-20.813306,10.803388,7.141222,0.030762,-0.138308,0.929580
1422,-30.151827,5.432212,-2.197299,-0.099001,-0.087404,0.965347
1423,-51.514458,-5.554284,-10.925460,-0.058106,-0.116091,1.056046
1424,-55.298695,-4.333562,-16.540780,0.040894,-0.265873,1.046769
1425,-45.899138,2.319371,-3.295949,0.071534,-0.238651,1.077409
1426,-37.232013,1.281758,-2.624552,0.041016,-0.190555,1.078019
1427,-31.250477,1.831083,-7.690547,0.051759,-0.164675,1.021256
1428,-39.063096,4.699779,-9.460594,-0.018189,0.020874,0.914443
1429,-56.824598,1.953155,-15.381094,0.036866,0.189822,0.860731
1430,-103.883421,4.333562,-12.634470,-0.029541,0.147707,0.795178
1431,-130.922408,-1.892119,-4.516670,-0.090333,0.191165,0.776379
1432,-203.555352,-10.376135,-8.972305,0.167239,0.493782,1.028458
1433,-349.004349,-4.150454,-18.493935,0.223514,0.878553,1.474998
1434,-547.676814,-9.094377,17.212177,-0.294072,0.539437,1.999969
1435,-675.608454,-27.954528,52.368963,-0.231327,-0.031739,1.053727
1436,-756.298161,-37.476158,76.661326,0.121950,-0.243778,1.090715
1437,-816.784924,-59.205005,80.140383,-0.065064,-0.511482,0.899550
1438,-1017.776761,-143.617914,162.233921,-0.820081,-1.820096,1.999969
1439,-430.365454,-123.964294,62.439918,-0.728283,-1.871855,1.999969
1440,128.847181,-119.386587,-7.934691,-0.052491,0.847181,1.999969
1441,180.605783,-64.820325,-23.071641,-0.104128,1.373678,1.999969
1442,43.884947,-24.414435,-12.817578,0.028565,0.882704,1.999969
1443,37.659266,-9.582666,-16.113527,-0.065431,0.279057,1.146990
1444,139.589532,23.254749,-35.339895,-0.014160,0.323369,0.317754
1445,107.423514,18.982223,-41.748684,-0.009400,0.372686,-0.169436
1446,63.355459,5.004959,-41.016251,-0.055909,0.195438,0.050782
1447,84.657053,-5.004959,-45.410849,-0.055787,0.204959,0.189456
1448,91.248951,-17.578393,-47.058824,-0.067750,0.306401,0.323369
1449,87.464714,-29.419394,-45.777066,-0.089601,0.278569,0.685435
1450,111.757076,-35.278859,-46.326390,-0.132815,0.309087,0.978775
1451,135.866331,-39.063096,-45.899138,-0.185550,0.313603,1.207050
1452,158.327611,-40.588998,-43.396658,-0.209354,0.266606,1.426413
1453,192.324712,-32.349126,-43.030442,-0.243412,0.190188,1.541161
1454,223.208972,-16.662852,-40.955215,-0.282353,0.105104,1.478904
1455,246.219577,0.732433,-37.109941,-0.335698,-0.012329,1.367208
1456,264.225223,16.296635,-29.907683,-0.382940,-0.146853,1.212421
1457,277.653162,27.405203,-19.409476,-0.381109,-0.183230,1.102434
1458,280.643931,35.461967,-9.338521,-0.314458,-0.253422,1.044816
1459,285.709926,42.236973,-0.671397,-0.205081,-0.288212,1.054337
1460,286.381323,48.523690,4.394598,-0.061891,-0.288701,1.145159
1461,285.282673,53.589685,4.699779,0.105592,-0.291264,1.259907
1462,287.663081,59.205005,-1.159686,0.236088,-0.294438,1.412375
1463,290.409705,63.111315,-10.376135,0.420172,-0.294194,1.495384
1464,290.165560,67.017624,-24.597543,0.498421,-0.363165,1.568505
1465,290.348669,68.726635,-39.185168,0.479988,-0.452155,1.631250
1466,288.822766,68.726635,-50.720989,0.371710,-0.542733,1.671046
1467,286.991684,67.078660,-56.092164,0.188846,-0.600961,1.701198
1468,285.648890,61.463340,-55.542840,0.059449,-0.606943,1.735256
1469,281.925689,58.106355,-54.077974,0.061769,-0.623056,1.721706
1470,273.441672,64.393072,-53.589685,0.083375,-0.600473,1.667994
1471,256.351568,70.618753,-54.871443,0.141115,-0.575326,1.786526
1472,242.801556,75.013352,-59.205005,0.172000,-0.554696,1.999969
1473,236.270695,79.224842,-65.003433,0.178470,-0.610239,1.999969
1474,239.017319,87.769894,-68.360418,0.122560,-0.740002,1.999969
1475,246.829938,95.216297,-65.552758,0.015747,-0.939223,1.999969
1476,253.543908,96.925307,-56.702525,-0.045411,-1.138079,1.999969
1477,253.604944,94.239719,-44.434272,-0.078737,-1.296162,1.865263
1478,238.101778,92.530709,-31.006332,-0.009033,-1.504540,1.647608
1479,212.527657,100.343328,-19.043259,0.142458,-1.853178,1.516014
1480,181.887541,110.719463,-6.713970,0.438849,-2.000031,1.393454
1481,153.994049,133.913176,-16.968032,0.694469,-2.000031,1.303853
1482,153.871977,172.487984,-28.137636,0.806287,-2.000031,0.343511
1483,146.181430,182.742046,-37.781338,0.633555,-2.000031,-0.925551
1484,58.594644,123.964294,-18.677043,0.359258,-2.000031,-1.805936
1485,-46.936751,6.775006,15.869383,0.114260,-1.955474,-1.320333
1486,-110.414282,-102.540627,41.992828,0.071046,-1.537377,-0.003052
1487,-127.565423,-150.270848,59.571221,0.043336,-1.039689,1.075456
1488,-129.640650,-180.483711,29.053178,0.043214,0.029419,1.769314
1489,-121.400778,-131.288624,59.082933,-0.387579,1.188373,1.999969
1490,-133.607996,-99.671931,50.843061,-0.598764,0.538827,0.855970
1491,-134.950790,-103.944457,68.604562,-0.257816,0.571298,-0.656992
1492,-264.896620,-128.236820,74.525063,0.659190,0.097658,-0.626596
1493,-324.895094,-103.517205,71.290150,1.434470,-0.037110,1.137713
1494,-333.928435,-68.421454,46.021210,1.786282,-0.125490,1.999969
1495,-218.631266,-20.691234,0.000000,1.452049,-0.358648,1.999969
1496,-135.500114,29.053178,-31.494621,0.169802,-0.067384,1.836942
1497,-178.469520,50.598917,-9.277485,-1.468650,-0.383307,1.999969
1498,-182.436866,-9.826810,39.307240,-1.922026,-0.822278,1.999969
1499,-43.396658,-68.421454,48.462654,-0.251835,-0.417853,0.852186
1500,-56.702525,-99.305715,47.058824,1.294575,0.641123,1.999969
1501,-70.374609,-41.443503,18.677043,1.074723,-0.066163,1.818143
1502,-30.029755,-2.563516,8.606088,-0.731212,-0.065553,1.237568
1503,-38.025483,-46.509499,11.169604,-0.274418,-0.018555,0.860853
1504,-29.907683,-50.720989,0.061036,0.618173,0.186648,1.445457
1505,-42.542153,-21.484703,-2.197299,0.027100,-0.017700,1.169696
1506,-31.433585,-21.362631,-2.319371,-0.169070,0.005737,1.033341
1507,-31.860838,-24.414435,-1.525902,0.173953,0.048707,1.187396
1508,-26.977951,-10.559243,-0.732433,0.104494,-0.081788,1.241840
1509,-11.047532,-3.540093,-1.098650,-0.053468,0.024292,1.020890
1510,-17.273213,-4.272526,-0.488289,0.077882,0.008789,1.006485
1511,-17.273213,0.305180,1.037613,0.019532,-0.013428,1.060685
1512,-13.672084,0.427253,1.464866,-0.005615,-0.011719,1.048844
1513,-10.986496,1.281758,1.525902,0.041627,0.002197,1.023941
1514,-11.779965,2.990768,2.258335,-0.009522,0.004517,1.002945
1515,-10.742351,1.464866,2.014191,-0.023072,0.014405,0.967788
1516,-12.451362,-0.732433,1.220722,-0.033082,0.025757,0.944717
1517,-16.662852,-2.502480,1.342794,-0.037232,0.034668,1.080461
1518,-11.291676,-4.577707,2.014191,0.030884,0.082765,0.924697
1519,-16.845960,-3.356985,1.770047,0.004273,-0.031250,0.967788
1520,-13.916228,-3.540093,1.525902,-0.007568,-0.026368,1.020035
1521,-12.634470,-4.699779,1.586938,-0.003296,-0.009888,0.968276
1522,-13.061723,-6.713970,1.403830,-0.040162,-0.017578,0.959243
1523,-14.343481,-10.681315,1.342794,-0.028809,-0.010254,1.016739
1524,-10.437171,-13.611048,2.075227,0.046265,0.067872,0.960220
1525,-10.620279,-11.169604,1.220722,0.007935,-0.030030,0.958511
1526,-10.620279,-10.742351,0.549325,-0.001221,-0.014771,1.018448
1527,-12.085145,-10.559243,0.976577,0.005737,-0.002564,0.991958
1528,-14.221408,-10.498207,1.220722,0.017700,-0.025757,0.986343
1529,-13.611048,-9.765774,1.525902,0.016968,-0.017823,1.003189
1530,-15.197986,-9.338521,1.464866,-0.002930,-0.040894,0.983413
1531,-14.404517,-9.765774,1.464866,0.018799,-0.048463,1.035660
1532,-11.596857,-8.667124,1.342794,0.020874,-0.053834,1.049577
1533,-8.667124,-7.446403,0.671397,0.008667,-0.056641,1.006485
1534,-6.286717,-7.446403,0.488289,0.013184,-0.035401,1.015152
1535,-8.606088,-7.934691,0.793469,0.008545,-0.012329,0.984634
1536,-9.887846,-8.850233,0.793469,0.020142,-0.023316,0.989639
1537,-10.742351,-9.155413,0.305180,0.004883,-0.035523,0.984512
1538,-11.169604,-9.094377,0.549325,0.046876,-0.049439,1.006363
1539,-12.024109,-7.324331,0.793469,0.040528,-0.058717,1.012467
1540,-11.474784,-5.493248,1.342794,0.046876,-0.057252,1.002701
1541,-12.573434,-3.662165,1.892119,0.057984,-0.079225,0.967666
1542,-17.090105,-2.563516,2.746624,0.019654,-0.051392,1.013809
1543,-15.075914,-2.014191,2.685588,0.012451,-0.038941,0.986831
1544,-18.554971,-2.807660,2.502480,0.023316,-0.049928,0.999039
1545,-18.982223,-2.746624,2.319371,0.023072,-0.064332,1.005142
1546,-17.944610,-2.441444,2.014191,0.031495,-0.049928,1.015885
1547,-19.226368,-1.892119,2.014191,0.036500,-0.064942,0.999893
1548,-19.897765,-1.342794,2.136263,0.030884,-0.066163,1.002579
1549,-19.653620,-0.915541,2.197299,0.020630,-0.057862,0.983413
1550,-22.766461,-1.709010,2.258335,0.016236,-0.060670,0.981216
1551,-23.865110,-1.831083,2.563516,0.012085,-0.060182,0.986221
1552,-23.987182,-2.136263,2.502480,0.029175,-0.052735,0.970962
1553,-28.381781,-2.441444,2.990768,0.030396,-0.082399,0.985122
1554,-27.710384,-2.136263,3.906310,0.023072,-0.099001,0.998062
1555,-25.452049,-0.366217,4.455634,0.028443,-0.051026,0.971695
1556,-35.645075,-2.014191,5.371176,-0.001831,-0.062867,0.949722
1557,-37.537194,-0.366217,3.540093,0.041260,-0.073487,0.970474
1558,-39.856565,0.305180,1.586938,0.014527,-0.062379,1.010147
1559,-43.518730,0.854505,0.732433,0.013916,-0.105592,1.007340
1560,-42.420081,2.624552,0.671397,0.019776,-0.099733,0.996353
1561,-41.809720,2.624552,-0.183108,0.025757,-0.089235,1.059709
1562,-42.114900,4.028382,-1.770047,-0.003540,-0.156497,1.015640
1563,-44.922560,2.807660,-1.647974,-0.080934,-0.091554,1.082780
1564,-64.271000,-1.098650,-13.305867,-0.005371,-0.168093,1.086076
1565,-60.791943,-0.183108,-6.775006,0.113283,-0.302373,1.058854
1566,-44.678416,5.188067,0.000000,0.090333,-0.266239,1.092546
1567,-29.480430,3.051804,-1.709010,0.055299,-0.199588,1.033951
1568,-28.076600,3.418021,-5.065995,0.047120,0.006348,0.984268
1569,-54.932479,7.202258,-9.338521,-0.029175,0.150881,0.851820
1570,-109.193561,8.850233,-14.831769,0.056153,0.258671,0.720592
1571,-139.772641,5.737392,-18.188754,-0.078370,0.315312,0.729870
1572,-200.015259,-10.437171,-19.531548,-0.061036,0.130861,0.786145
1573,-267.399100,-10.864424,-28.747997,0.138430,0.805676,1.141131
1574,-476.325628,-23.559930,-35.034714,-0.234501,0.233524,1.201190
1575,-615.487907,-81.666285,19.104295,-0.242435,-0.072267,1.600366
1576,-660.532540,-131.288624,27.161059,0.036866,-0.529793,1.060685
1577,-697.276265,-150.576028,48.096437,-0.074464,-0.298100,0.640635
1578,-768.017090,-182.558938,59.510185,0.156252,-1.273945,1.446433
1579,-910.841535,-194.949264,175.906004,-0.838392,-0.784314,1.999969
1580,-265.323873,-147.341115,31.433585,-0.415290,-1.040909,1.999969
1581,183.291371,-89.112688,-2.990768,-0.046265,0.921645,1.999969
1582,158.205539,-16.906996,-28.198672,0.041016,1.090349,1.999969
1583,75.257496,5.676356,8.056764,-0.395026,0.756970,1.900664
1584,123.476005,12.268254,4.699779,-0.342535,0.241703,1.025528
1585,187.380789,28.686961,2.746624,-0.280888,0.286748,0.205936
1586,150.209812,22.583352,9.521630,-0.139040,0.247074,-0.064332
1587,113.099870,16.968032,13.183795,-0.058839,0.150759,0.159060
1588,128.297856,20.752270,7.141222,0.034791,0.166018,0.350713
1589,134.828717,18.677043,0.305180,0.082033,0.270512,0.504891
1590,135.133898,9.948882,-6.958114,0.103029,0.276249,0.766857
1591,155.886168,4.577707,-16.174563,0.091920,0.284184,1.001724
1592,176.943618,2.563516,-24.353399,0.077882,0.275029,1.150896
1593,194.216831,3.784237,-31.738766,0.040284,0.198489,1.233661
1594,218.448157,9.704738,-37.659266,-0.021729,0.111452,1.181415
1595,235.843442,17.090105,-40.772107,-0.068849,0.041260,1.136492
1596,244.571603,25.757229,-39.734493,-0.094484,-0.017823,1.188495
1597,256.717784,35.339895,-37.109941,-0.096193,-0.093874,1.256367
1598,265.445945,42.114900,-33.386740,0.011719,-0.161501,1.328389
1599,269.291218,47.180896,-36.011292,0.129152,-0.312505,1.499290
1600,286.137179,62.317845,-39.673457,0.084230,-0.417121,1.465965
1601,296.879530,65.857939,-40.833143,0.097902,-0.438361,1.428489
1602,293.278401,68.177310,-41.931792,0.200565,-0.526619,1.395651
1603,288.944839,71.595331,-44.678416,0.281865,-0.619760,1.397726
1604,282.047761,76.417182,-48.767834,0.271977,-0.701915,1.362203
1605,275.516899,77.149615,-51.087205,0.189334,-0.755138,1.320089
1606,264.530404,70.862898,-48.340581,0.053223,-0.764904,1.349996
1607,252.567330,63.721675,-41.870756,-0.013428,-0.726940,1.392477
1608,240.787366,61.219196,-34.973678,0.019532,-0.650889,1.568017
1609,227.786679,64.942397,-29.480430,0.064942,-0.604135,1.834379
1610,224.795911,69.336996,-25.940337,0.126101,-0.564706,1.999969
1611,232.852674,70.984970,-26.245518,0.198123,-0.559213,1.999969
1612,244.571603,72.999161,-28.992142,0.229862,-0.613046,1.999969
1613,254.703594,76.295109,-32.349126,0.226688,-0.673716,1.953521
1614,253.360800,81.300069,-33.997101,0.176516,-0.740490,1.702174
1615,243.228809,82.825971,-31.921874,0.083131,-0.791638,1.521386
1616,227.725643,78.370336,-26.245518,-0.025269,-0.842664,1.430808
1617,212.039368,71.168078,-18.066682,-0.090822,-0.896132,1.421042
1618,195.132372,67.444877,-8.972305,-0.051270,-1.001236,1.551171
1619,182.131685,71.961547,-1.892119,0.042725,-1.201801,1.549950
1620,169.619287,83.497368,1.342794,0.245365,-1.518456,1.466941
1621,143.739986,99.122606,-0.549325,0.527840,-2.000031,1.444480
1622,125.062943,136.110475,-13.366903,0.753185,-2.000031,1.078874
1623,130.495155,173.708705,-23.865110,0.678721,-2.000031,0.199710
1624,90.211337,156.191348,-11.474784,0.465095,-2.000031,-0.771008
1625,23.376822,67.078660,13.611048,0.313848,-1.967803,-1.133440
1626,-32.898451,-46.936751,37.598230,0.324102,-1.448997,-0.638682
1627,-142.397192,-163.027390,33.752956,0.778820,-1.576806,-0.856092
1628,-235.416190,-210.208286,32.043946,1.068986,-1.010636,0.373907
1629,-143.556878,-163.332570,6.286717,0.146365,-0.175662,1.664820
1630,-117.860685,-127.443351,5.676356,-0.471931,0.843885,1.999969
1631,-155.580987,-87.586786,19.226368,-0.777356,0.582040,1.218891
1632,-216.678111,-77.088579,39.917601,-0.649424,-0.064454,-0.185794
1633,-254.215305,-95.338369,56.763561,-0.163821,-0.239384,0.377935
1634,-281.986725,-94.178683,67.444877,0.890883,-0.116091,1.999969
1635,-232.913710,-44.007019,45.471885,1.611597,-0.118166,1.999969
1636,-146.181430,-4.516670,3.234913,1.296162,-0.088380,1.999969
1637,-135.194934,39.795529,-16.113527,0.288701,0.084962,1.704860
1638,-160.463874,45.471885,12.878614,-1.474998,0.080690,1.999969
1639,-120.363165,-24.475471,29.785611,-1.361715,-0.996109,1.384787
1640,-12.329290,-87.037461,31.677729,0.234134,0.244633,1.753445
1641,-70.923934,-77.088579,24.292363,1.672389,0.254154,1.999969
1642,-32.776379,7.324331,3.234913,0.009033,-0.027832,1.233661
1643,-48.767834,-5.310140,6.713970,-0.823011,-0.083497,0.886488
1644,-36.682689,-41.626612,5.249104,0.320684,0.101320,1.285908
1645,-33.325704,-19.348440,-4.516670,0.269169,0.071901,1.156634
1646,-34.912642,-11.535821,-0.915541,-0.257328,-0.019287,1.015640
1647,-25.452049,-22.522316,-3.601129,0.071778,-0.006348,1.117082
1648,-20.386053,-12.939651,-4.699779,0.115846,-0.013306,1.136858
1649,-19.958801,-5.676356,-0.244144,-0.032105,-0.037232,1.084001
1650,-12.329290,-3.906310,0.488289,0.033814,0.010132,1.042496
1651,-12.573434,-1.037613,0.976577,0.022339,0.022339,1.017227
1652,-14.648661,0.244144,1.770047,-0.023072,-0.003662,0.999283
1653,-12.817578,-0.610361,2.075227,0.015015,-0.006226,1.034195
1654,-11.047532,1.037613,2.441444,0.017578,-0.009766,1.023209
1655,-10.376135,1.037613,2.929732,-0.019043,-0.000977,0.994766
1656,-10.437171,-0.732433,2.807660,-0.035279,0.005005,0.980117
1657,-10.559243,-3.112840,2.258335,-0.024659,0.010620,0.966201
1658,-12.024109,-4.699779,1.647974,-0.093996,0.192996,1.240375
1659,-14.160372,-7.873655,2.929732,0.013916,-0.003052,0.932387
1660,-18.921187,-8.545052,1.831083,-0.020752,-0.037842,0.947524
1661,-16.784924,-10.070954,2.319371,-0.019654,-0.021729,0.994156
1662,-17.761501,-11.718929,2.380407,-0.013550,-0.009400,0.955825
1663,-19.653620,-13.183795,2.319371,-0.047974,0.038575,0.961440
1664,-23.437858,-16.906996,3.234913,0.050660,0.103883,0.919448
1665,-28.015564,-13.122759,2.380407,0.036255,-0.034302,1.002579
1666,-25.452049,-10.254063,1.770047,0.013062,-0.033570,1.060807
1667,-26.550698,-8.484016,2.441444,0.020020,-0.040772,1.014176
1668,-24.414435,-7.385367,2.502480,0.008301,-0.058350,0.989517
1669,-22.644388,-8.484016,2.380407,-0.022095,-0.030152,0.987076
1670,-23.865110,-11.779965,2.258335,-0.036378,-0.047974,0.991470
1671,-25.207904,-15.381094,2.136263,0.005249,-0.034913,1.032609
1672,-21.606775,-15.014878,0.427253,0.022950,-0.102907,1.100114
1673,-12.817578,-12.878614,-0.549325,0.022095,-0.093751,1.025284
1674,-10.070954,-11.963073,-0.854505,0.024781,-0.060426,1.009659
1675,-11.779965,-11.352712,0.061036,0.011719,-0.024537,0.993301
1676,-11.718929,-12.146181,-0.183108,0.019287,-0.053712,0.985977
1677,-13.122759,-11.718929,-0.610361,0.032349,-0.091554,1.009415
1678,-11.230640,-10.559243,-0.366217,0.025269,-0.088136,1.030411
1679,-10.131991,-9.765774,0.000000,0.034058,-0.066529,1.029923
1680,-8.178836,-8.911269,0.305180,0.024292,-0.066773,1.008804
1681,-8.300908,-9.216449,-0.183108,0.030762,-0.060304,0.987320
1682,-8.545052,-9.765774,-0.793469,0.027588,-0.079957,1.016007
1683,-6.775006,-9.704738,-1.098650,0.030884,-0.079835,1.008438
1684,-6.408789,-9.765774,-1.464866,0.041382,-0.079957,1.012467
1685,-6.103609,-8.484016,-1.281758,0.042237,-0.078859,1.009293
1686,-6.469825,-7.690547,-0.549325,0.042359,-0.067628,0.997330
1687,-7.568475,-7.141222,-0.427253,0.031128,-0.051026,0.974502
1688,-12.329290,-7.812619,-0.549325,0.028809,-0.048219,0.969863
1689,-15.320058,-8.361944,-0.732433,0.034791,-0.054932,0.970596
1690,-18.982223,-8.484016,-0.488289,0.041016,-0.081788,0.986587
1691,-18.982223,-8.728161,0.061036,0.043824,-0.080812,1.031388
1692,-20.508125,-5.798428,0.000000,0.070069,-0.105592,1.016861
1693,-19.226368,-4.394598,1.037613,0.065675,-0.077272,1.051286
1694,-21.301595,-1.586938,0.915541,0.044312,-0.101076,0.996963
1695,-22.095064,-0.732433,1.770047,0.071534,-0.123293,1.011246
1696,-20.813306,0.671397,2.258335,0.043824,-0.102541,0.999039
1697,-23.071641,1.464866,2.807660,0.057008,-0.100587,0.994644
1698,-26.245518,2.685588,3.662165,0.030274,-0.084230,0.989029
1699,-26.733806,4.638743,4.455634,0.076173,-0.080323,0.954849
1700,-35.400931,4.089418,4.821851,0.054688,-0.118288,1.011368
1701,-31.799802,6.042573,4.699779,0.035889,-0.104860,1.012467
1702,-36.865797,5.981537,4.455634,0.058106,-0.147707,0.960098
1703,-35.584039,6.958114,4.211490,0.028565,-0.123415,1.012589
1704,-37.048905,7.324331,2.685588,0.034913,-0.137819,1.012589
1705,-37.537194,7.507439,1.770047,0.035645,-0.125490,1.020279
1706,-36.926833,8.300908,0.244144,0.061891,-0.148196,1.004532
1707,-39.063096,10.681315,0.793469,0.030396,-0.165652,1.028702
1708,-35.156786,13.122759,-0.244144,0.005737,-0.171389,1.023087
1709,-37.293050,13.916228,-4.821851,-0.016846,-0.199100,0.994400
1710,-36.011292,9.643702,-6.591897,-0.018433,-0.165896,1.009659
1711,-34.851606,7.751583,-8.117800,0.051392,-0.245731,1.021622
1712,-23.926146,6.958114,-5.676356,0.056886,-0.225467,1.018082
1713,-16.418708,6.836042,-5.004959,0.089113,-0.153079,0.952285
1714,-24.597543,9.338521,-2.441444,0.031983,-0.057862,0.999283
1715,-53.345541,11.108568,-3.723201,-0.023926,0.071534,0.885878
1716,-89.967193,10.681315,-5.065995,0.030518,0.002441,0.839612
1717,-101.686122,8.850233,5.493248,-0.021485,0.072389,0.839979
1718,-127.687495,-0.061036,-6.042573,-0.092531,-0.074464,0.829236
1719,-135.317006,-16.784924,1.586938,-0.222171,0.427863,1.356100
1720,-250.308995,-18.005646,-5.127031,0.067140,-0.136599,0.932998
1721,-382.024872,-30.579080,28.625925,0.009644,-0.115236,0.887587
1722,-411.078050,-42.420081,39.673457,-0.107424,-0.348394,1.446555
1723,-431.586175,-57.495995,23.620966,-0.030152,-0.331182,0.814710
1724,-486.884871,-75.684749,37.903410,-0.067506,-0.362799,1.037003
1725,-516.914626,-88.136110,43.884947,0.018799,-0.522957,0.796765
1726,-534.859236,-106.019684,59.082933,0.046387,-0.723766,0.808484
1727,-520.332647,-118.104829,93.995575,0.260136,-1.407126,1.999969
1728,-383.611811,-128.603037,82.337682,-0.364508,-0.152956,1.999969
1729,-22.461280,-108.827344,1.098650,0.422736,0.091676,1.999969
1730,63.111315,-34.546426,-34.363317,0.332280,0.754406,1.999969
1731,2.380407,-17.090105,-37.048905,0.093019,0.438849,1.999969
1732,74.158846,9.521630,-54.444190,-0.085817,-0.059449,1.813260
1733,166.750591,25.757229,-65.247578,-0.205570,-0.016846,0.885389
1734,148.744945,18.982223,-58.533608,-0.258915,-0.108278,0.428473
1735,139.528496,11.535821,-50.782025,-0.335943,-0.294072,0.359991
1736,158.144503,7.141222,-45.716030,-0.365484,-0.311162,0.191775
1737,149.965667,3.479057,-37.598230,-0.387701,-0.304204,0.176150
1738,138.490883,4.821851,-28.625925,-0.394537,-0.342168,0.386481
1739,144.777600,12.390326,-20.752270,-0.402228,-0.331182,0.563973
1740,149.660487,19.653620,-12.024109,-0.378424,-0.310185,0.784192
1741,159.914549,26.855879,-3.234913,-0.316045,-0.308721,1.000870
1742,180.727855,34.790570,3.234913,-0.211185,-0.288701,1.116106
1743,201.602197,42.725261,5.798428,-0.082643,-0.287724,1.128435
1744,217.349508,53.406577,5.371176,0.036378,-0.326787,1.175799
1745,233.524071,64.698253,2.380407,0.127199,-0.372442,1.197772
1746,248.905165,74.280919,-2.197299,0.141115,-0.464485,1.202289
1747,261.539635,78.919661,-4.516670,0.167239,-0.561288,1.119280
1748,268.986038,82.459754,-5.798428,0.139895,-0.678233,1.034318
1749,269.718471,80.445563,-3.112840,0.145998,-0.750134,0.912001
1750,262.272068,74.830243,1.220722,0.140871,-0.805676,0.846937
1751,249.637598,62.012665,6.713970,0.122560,-0.845472,0.942031
1752,240.787366,42.725261,11.169604,0.123293,-0.849744,1.114519
1753,238.345922,26.428626,11.596857,0.155642,-0.843153,1.259907
1754,236.026551,22.461280,7.385367,0.195560,-0.860609,1.290669
1755,228.213931,31.128405,2.136263,0.167605,-0.921523,1.230732
1756,214.419776,45.960174,0.000000,0.086183,-1.019791,1.125872
1757,197.756924,57.740139,4.272526,0.041993,-1.080827,1.035660
1758,179.751278,59.327077,13.427939,0.059327,-1.091814,1.026749
1759,165.590906,52.429999,22.827497,0.194217,-1.027359,0.998306
1760,152.773327,44.068055,26.428626,0.389776,-0.921645,0.880507
1761,137.087053,36.194400,23.010605,0.570077,-0.803845,0.726696
1762,115.480278,23.193713,15.991455,0.654551,-0.657359,0.726085
1763,98.329137,5.676356,4.211490,0.669566,-0.549081,0.797620
1764,87.891966,-12.024109,-11.596857,0.625498,-0.448737,0.867567
1765,76.722362,-25.146868,-25.329976,0.436042,-0.443122,0.881727
1766,60.975052,-37.964446,-33.508812,0.209476,-0.532967,0.922133
1767,46.143282,-45.288777,-36.743725,-0.327031,-1.485863,0.566415
1768,-76.112001,-3.967346,-5.188067,-0.361700,-1.173602,0.202396
1769,-142.519265,-59.143969,7.141222,-0.720836,-2.000031,0.040772
1770,-164.187076,-71.717403,49.561303,0.539315,-1.950713,0.080690
1771,-218.997482,-92.896925,4.577707,1.999969,-1.367697,1.999969
1772,110.719463,20.813306,-0.793469,0.459358,-0.965469,1.999969
1773,362.493324,87.708858,-62.378882,-0.193729,0.856214,-0.265263
1774,113.282979,55.298695,-32.349126,-0.623056,1.144793,-0.294926
1775,-117.250324,-20.447089,26.428626,-0.267094,0.705211,-0.091066
1776,-205.081254,-51.636530,36.743725,0.261845,0.114626,1.013687
1777,-131.776913,-14.648661,5.004959,0.053956,-0.418341,1.999969
1778,-11.596857,1.098650,-2.624552,-0.160647,-0.204105,1.262226
1779,-10.131991,-6.469825,1.342794,-0.033204,0.027710,1.037491
1780,-21.179522,-7.141222,3.601129,0.143313,0.019043,1.059464
1781,-10.070954,0.244144,1.464866,-0.071412,0.117800,0.849622
1782,-33.264668,-8.789197,1.464866,-0.107301,0.042237,0.947768
1783,-28.686961,-13.427939,-1.647974,0.019898,-0.008179,1.102190
1784,-15.503166,-9.826810,-1.892119,0.042115,-0.017090,1.078264
1785,-14.831769,-7.080186,-0.793469,0.027344,-0.001709,1.045060
1786,-9.460594,-1.770047,-1.709010,0.010254,-0.024048,0.894423
1787,-11.963073,-2.380407,-1.037613,0.008911,0.059205,0.999161
1788,-15.197986,-2.319371,-1.342794,0.022217,0.023682,1.010391
1789,-13.916228,-0.671397,-2.075227,0.024292,0.055299,0.967300
1790,-20.874342,-0.183108,-1.892119,-0.023438,0.003540,0.990738
1791,-23.315785,-0.244144,0.854505,0.007446,-0.098756,1.104387
1792,-7.202258,1.281758,1.525902,-0.013428,-0.088869,1.106096
1793,4.333562,0.793469,0.488289,-0.028321,0.013306,0.956313
1794,-2.868696,-2.929732,0.305180,-0.015259,0.032105,0.945937
1795,-4.638743,-5.065995,-0.854505,-0.019165,0.005005,0.972671
1796,-5.371176,-6.713970,-1.403830,0.017823,-0.008301,1.015885
1797,-3.723201,-5.310140,-1.098650,0.020386,-0.023194,1.040909
1798,-0.488289,-3.295949,-0.610361,0.026246,-0.011109,1.017472
1799,-0.793469,-0.976577,0.000000,0.036744,-0.011231,1.033463
1800,0.671397,1.342794,0.244144,0.008301,-0.004883,1.001968
1801,0.488289,1.464866,0.305180,0.008545,0.001099,0.999771
1802,-0.549325,1.647974,0.183108,-0.000488,-0.014527,1.014908
1803,1.525902,1.709010,0.122072,-0.004517,-0.011597,1.014054
1804,2.197299,1.892119,0.000000,-0.001221,-0.002930,0.995865
1805,1.464866,1.403830,-0.122072,-0.002441,-0.006836,1.007462
1806,3.234913,1.342794,-0.305180,0.006714,-0.005127,0.999039
1807,2.746624,1.403830,-0.305180,0.009155,-0.006226,1.005020
1808,3.601129,2.014191,-0.183108,0.008057,-0.003662,1.001968
1809,3.662165,2.685588,0.000000,0.000366,-0.003418,0.993423
1810,4.577707,2.746624,0.000000,-0.001465,-0.007568,1.016861
1811,6.347753,2.807660,-0.244144,0.000977,0.006348,1.003311
1812,5.676356,2.563516,-0.366217,0.002808,-0.007691,1.003922
1813,6.958114,2.441444,-0.366217,0.007202,0.002319,1.010758
1814,7.507439,2.563516,-0.610361,-0.003662,0.011353,0.980972
1815,5.004959,2.075227,-0.427253,-0.003052,0.002930,1.001968
1816,6.591897,2.441444,-0.549325,-0.003418,0.000977,0.988418
1817,5.554284,2.014191,-0.305180,-0.017090,0.018433,0.966445
1818,3.356985,0.976577,-0.183108,-0.015137,0.013428,0.984146
1819,3.540093,0.488289,-0.183108,-0.015625,0.018799,0.965591
1820,1.953155,-0.366217,-0.305180,-0.007080,0.015625,0.977676
1821,1.159686,-0.671397,-0.244144,0.004150,-0.001587,1.015640
1822,3.173877,-0.488289,-0.488289,-0.004639,-0.000977,1.017838
1823,4.638743,-0.244144,-0.427253,0.006470,-0.006592,1.019059
1824,6.286717,0.671397,-0.183108,0.006104,0.005005,1.005875
1825,6.591897,1.159686,-0.305180,-0.005737,0.015137,0.998550
1826,5.920500,1.342794,-0.183108,-0.009155,0.029297,0.975723
1827,4.394598,0.793469,-0.427253,0.000244,0.039429,0.948379
1828,-0.549325,1.037613,-0.366217,0.028321,-0.001831,1.024430
1829,3.112840,3.479057,0.061036,0.015015,-0.012085,1.037613
1830,5.920500,5.493248,0.671397,0.003784,0.022339,1.003677
1831,3.540093,6.103609,1.342794,-0.017212,0.003540,1.010147
1832,6.836042,6.103609,1.464866,-0.021485,0.022217,0.985855
1833,5.676356,4.455634,1.037613,-0.035157,0.044434,0.939223
1834,1.709010,0.976577,0.244144,-0.054078,0.043091,0.949355
1835,0.122072,-2.746624,-0.610361,-0.036133,0.027710,0.973037
1836,-0.488289,-5.065995,-1.281758,-0.025147,0.037354,0.965591
1837,-2.563516,-6.347753,-1.586938,0.000732,0.023926,0.950820
1838,-5.859464,-6.164645,-1.281758,0.011719,-0.013794,1.042374
1839,0.671397,-3.967346,-0.732433,0.008179,-0.020874,1.055314
1840,4.638743,-1.953155,-0.122072,0.005249,0.016236,1.011978
1841,2.868696,-1.037613,0.915541,-0.006104,0.010742,1.012711
1842,4.699779,-0.427253,1.159686,-0.008667,0.015991,1.002823
1843,4.882887,-0.610361,1.037613,-0.018311,0.035157,0.960586
1844,4.089418,-1.953155,0.671397,-0.015137,0.028321,0.941909
1845,1.647974,-3.723201,0.244144,-0.025391,0.049683,0.944472
1846,-2.075227,-5.798428,-0.488289,-0.001587,0.030762,0.991714
1847,-1.037613,-5.859464,-0.976577,0.001465,0.018433,0.999283
1848,-0.976577,-6.042573,-1.220722,-0.003540,0.030152,0.984512
1849,-1.647974,-6.103609,-1.342794,0.026368,0.023804,0.998306
1850,-1.037613,-3.845274,-1.464866,0.034424,0.048096,0.956435
1851,-8.484016,-2.990768,-1.037613,-0.014893,-0.004883,1.038102
1852,-0.793469,-2.197299,-0.976577,0.046754,-0.002686,1.060563
1853,0.854505,2.197299,-0.122072,0.066896,0.026978,1.020035
1854,-1.464866,5.737392,0.488289,-0.026368,0.024414,0.964492
1855,-4.028382,3.967346,0.915541,-0.015747,0.000977,1.014542
1856,1.770047,2.441444,0.000000,-0.008179,0.016480,1.000137
1857,0.671397,0.732433,-0.549325,-0.002808,0.026734,0.979019
1858,0.244144,0.305180,-0.915541,-0.005127,0.055421,0.937392
1859,-7.080186,-0.671397,-1.037613,-0.012451,0.033936,0.980117
1860,-7.263294,-1.831083,-1.220722,-0.006470,-0.006226,1.004044
1861,-3.845274,-1.586938,-1.464866,0.008057,-0.002197,1.018204
1862,-4.699779,-1.342794,-0.793469,0.008301,-0.020264,1.056779
1863,2.014191,0.976577,-0.244144,0.027466,-0.015625,1.062882
1864,5.249104,3.906310,0.244144,0.009400,0.030884,0.980117
1865,1.709010,2.868696,0.305180,-0.052979,0.029419,0.937758
1866,0.244144,-1.770047,-0.305180,-0.055543,0.017456,0.972549
1867,0.000000,-4.882887,-0.732433,-0.018067,-0.005127,1.013077
1868,4.333562,-5.554284,-0.976577,-0.012207,0.034180,0.964370
1869,-0.305180,-5.676356,-0.793469,-0.003540,0.063355,0.930434
1870,-6.530861,-6.042573,-0.976577,-0.000366,0.036011,0.983902
1871,-7.080186,-6.591897,-1.342794,0.004150,-0.000244,1.025895
1872,-4.272526,-5.859464,-1.159686,0.034668,-0.018189,1.066789
1873,0.244144,-3.051804,-0.793469,0.051514,-0.004517,1.052018
1874,1.525902,1.098650,-0.183108,0.041871,0.026734,1.000381
1875,-0.976577,3.540093,0.488289,0.015259,0.017700,0.982681
1876,-1.586938,2.990768,0.305180,-0.037842,0.006958,0.968643
1877,-0.305180,-1.403830,-0.488289,-0.030030,0.004883,0.989639
1878,1.281758,-3.906310,-0.976577,0.006592,-0.002564,1.012467
1879,3.723201,-3.112840,-1.037613,0.032349,0.010864,1.012955
1880,2.807660,-1.098650,-0.488289,0.017456,0.016236,1.014786
1881,2.807660,0.427253,0.122072,0.019898,0.013306,1.014542
1882,3.540093,2.014191,0.488289,0.007080,0.029786,0.971450
1883,0.549325,1.892119,0.549325,-0.002564,0.015137,1.000870
1884,2.197299,2.258335,0.488289,0.016236,0.010254,1.007828
1885,2.319371,3.479057,0.549325,0.011353,0.025025,0.983658
1886,0.671397,3.540093,0.976577,0.002564,0.012085,1.000381
1887,2.502480,3.540093,0.671397,-0.004517,0.034424,0.954482
1888,-0.671397,1.098650,0.244144,-0.035523,0.012818,0.987320
1889,1.770047,-0.915541,-0.366217,0.006714,0.014405,1.004288
1890,1.525902,-1.159686,-0.610361,0.002808,0.016358,0.984268
1891,1.403830,-1.342794,-0.549325,0.010986,0.001343,1.022599
1892,4.028382,0.366217,-0.244144,0.025879,0.019043,1.012467
1893,3.234913,2.136263,0.183108,0.012085,0.018799,1.015030
1894,4.211490,3.356985,0.488289,0.011475,0.022095,1.001846
