Packet number,Gyroscope X (deg/s),Gyroscope Y (deg/s),Gyroscope Z (deg/s),Accelerometer X (g),Accelerometer Y (g),Accelerometer Z (g)
0,-0.244144,-0.366217,-0.183108,0.000855,-0.007935,0.986099
1,-0.244144,-0.183108,-0.183108,0.003174,-0.003296,0.985611
2,-1.281758,-0.305180,-0.122072,-0.003052,-0.013306,1.018326
3,0.915541,0.000000,-0.183108,0.007813,-0.004639,0.993301
4,-0.488289,0.000000,-0.122072,0.005127,-0.006226,0.998062
5,0.000000,0.000000,0.000000,-0.000732,-0.007813,0.997696
6,0.000000,0.061036,-0.122072,0.002197,0.003052,0.994522
7,-0.305180,-0.061036,0.000000,0.000732,-0.005859,0.998917
8,-0.061036,-0.122072,-0.122072,-0.000732,-0.010132,1.006729
9,0.061036,-0.122072,-0.183108,0.008057,-0.005371,1.005386
10,0.061036,0.061036,-0.183108,0.006348,-0.007080,0.997086
11,-0.122072,-0.061036,-0.122072,0.002930,-0.004395,0.995865
12,-0.305180,-0.061036,0.000000,0.004273,-0.004273,1.002823
13,0.183108,0.000000,-0.183108,0.000732,-0.004395,0.995743
14,0.000000,0.061036,-0.122072,0.002808,-0.008057,0.991714
15,0.061036,0.061036,-0.122072,0.004150,-0.000855,0.999771
16,-0.122072,-0.061036,-0.244144,0.002808,-0.003296,0.995865
17,-0.305180,0.000000,0.000000,0.001709,-0.008423,1.001602
18,-0.122072,-0.061036,-0.122072,0.006470,-0.005127,1.001846
19,-0.122072,0.000000,-0.122072,0.000366,-0.005982,0.995987
20,0.000000,0.061036,-0.122072,0.006226,-0.005859,0.999527
21,0.000000,0.000000,-0.183108,0.003906,-0.003662,0.992691
22,-0.122072,-0.061036,-0.183108,0.006104,-0.001831,0.992569
23,-0.366217,-0.061036,-0.183108,0.002075,-0.005371,0.997940
24,-0.305180,-0.244144,-0.122072,0.005982,-0.008179,0.994522
25,-0.122072,-0.061036,-0.183108,-0.003052,-0.002441,1.003311
26,-0.549325,-0.061036,0.000000,0.005859,-0.005982,1.004044
27,-0.549325,-0.061036,-0.122072,0.007568,-0.001221,0.995254
28,-0.427253,0.061036,-0.122072,-0.003052,-0.010254,0.997086
29,-0.183108,-0.061036,0.000000,0.001953,-0.003784,0.992081
30,-0.427253,0.000000,0.000000,0.006714,-0.013062,0.994156
31,0.061036,0.183108,-0.183108,-0.002564,-0.006836,0.996963
32,-0.305180,-0.183108,-0.122072,0.009888,-0.008057,0.990127
33,-0.305180,-0.061036,-0.183108,0.006226,-0.005982,0.996841
34,-0.244144,-0.061036,-0.122072,0.003784,-0.003296,0.999283
35,-0.244144,-0.183108,-0.122072,0.002319,-0.006470,0.998428
36,-0.366217,-0.244144,-0.183108,-0.000366,-0.005249,0.993301
37,-0.427253,-0.366217,-0.122072,0.010010,-0.005249,1.002945
38,-0.244144,-0.427253,-0.122072,0.006226,-0.004150,0.994156
39,-0.061036,-0.427253,-0.183108,0.000366,-0.007324,1.004532
40,-0.305180,-0.549325,-0.122072,0.000366,-0.004028,0.999893
41,-0.488289,-0.610361,0.000000,0.009644,-0.002319,1.003433
42,-0.061036,-0.427253,0.000000,0.002197,-0.003784,0.991714
43,-0.488289,-0.366217,0.000000,0.001221,-0.005493,0.996109
44,-0.488289,-0.427253,0.000000,0.007691,-0.006592,1.002579
45,-0.427253,-0.183108,0.000000,0.003052,-0.004028,1.004532
46,-0.854505,-0.305180,0.000000,0.007935,-0.015991,1.011002
47,0.427253,0.000000,0.000000,0.004395,-0.017334,0.998306
48,1.403830,0.000000,-0.122072,0.000488,-0.003174,0.960464
49,-1.342794,0.000000,0.000000,-0.003418,-0.006714,1.005020
50,-0.793469,-0.366217,0.000000,-0.001709,-0.014649,1.005264
51,0.610361,-0.244144,-0.244144,0.004883,-0.001465,0.983047
52,-1.342794,-0.305180,0.000000,-0.002808,-0.008057,1.012467
53,0.000000,-0.244144,0.000000,0.007568,-0.005737,1.011002
54,0.000000,0.000000,0.000000,0.002441,-0.003906,0.994766
55,-0.061036,0.061036,0.000000,0.004395,-0.008545,1.008316
56,0.244144,0.122072,-0.244144,-0.000488,-0.005249,0.995865
57,0.366217,0.183108,-0.183108,0.001709,-0.003174,1.005142
58,-0.122072,0.000000,0.000000,0.000366,-0.006958,0.994034
59,-0.183108,-0.061036,-0.183108,0.007813,-0.003418,0.996231
60,-0.183108,-0.061036,-0.183108,0.000122,-0.008179,0.997574
61,-0.488289,-0.061036,-0.244144,0.001221,-0.003174,0.995987
62,-0.122072,-0.061036,-0.183108,0.007202,-0.007691,1.002213
63,0.122072,0.061036,-0.183108,0.001587,-0.001221,1.002335
64,0.000000,0.122072,-0.122072,0.002075,-0.002808,0.997818
65,0.000000,0.000000,-0.244144,0.004150,-0.005982,1.000381
66,-0.244144,-0.061036,-0.183108,0.003662,-0.008545,0.998184
67,0.000000,0.000000,-0.183108,0.008057,-0.006836,1.000015
68,-0.366217,-0.061036,-0.244144,0.000855,-0.006592,0.993790
69,-0.732433,-0.244144,-0.183108,0.002930,-0.007324,1.000137
70,-0.183108,-0.183108,-0.183108,0.000488,-0.008545,1.006485
71,-0.427253,-0.183108,-0.183108,0.002319,-0.007324,1.000992
72,-0.061036,-0.122072,-0.122072,-0.000488,-0.003296,0.997696
73,-0.244144,-0.183108,0.000000,0.004761,-0.009155,0.994400
74,0.366217,0.061036,-0.122072,-0.001343,-0.004639,0.993301
75,-0.122072,-0.061036,-0.122072,0.005127,-0.002319,0.999893
76,-0.244144,0.061036,-0.122072,-0.001587,-0.005982,0.993790
77,-0.183108,-0.061036,0.000000,0.002075,-0.008911,0.995499
78,-0.305180,0.183108,-0.122072,0.003052,-0.007446,1.001480
79,-0.061036,0.122072,0.000000,0.000122,-0.006714,1.004288
80,0.000000,0.122072,-0.122072,0.000977,-0.004395,0.994888
81,0.061036,0.305180,-0.244144,0.000610,-0.008545,0.995377
82,0.000000,0.122072,-0.122072,0.006226,-0.006470,0.996109
83,0.000000,0.183108,-0.122072,0.003784,-0.000732,0.994522
84,0.183108,0.122072,-0.122072,0.002319,-0.004150,0.993057
85,-0.244144,0.000000,-0.122072,0.004028,-0.006348,0.999405
86,0.061036,0.061036,-0.183108,0.000855,-0.006226,0.994888
87,0.183108,0.122072,-0.122072,0.008301,-0.007568,0.997574
88,0.000000,0.061036,-0.122072,0.003052,-0.004028,0.992569
89,0.061036,0.000000,-0.122072,0.001465,0.000000,0.998672
90,-0.244144,-0.061036,0.000000,-0.001709,-0.003418,0.998184
91,-0.305180,-0.061036,-0.122072,0.001465,-0.004517,0.998428
92,-0.610361,-0.061036,-0.122072,-0.002930,-0.002808,1.001236
93,-0.732433,-0.183108,-0.122072,0.000000,-0.008789,1.002457
94,-0.183108,-0.244144,-0.183108,0.000366,-0.006104,1.001114
95,-0.488289,-0.244144,0.000000,0.000732,-0.003662,1.005142
96,-0.122072,-0.244144,-0.122072,0.002686,-0.008301,0.999405
97,0.305180,-0.183108,-0.122072,0.000366,-0.000488,0.993057
98,-0.732433,-0.305180,-0.122072,0.001343,-0.004761,0.991958
99,-0.244144,-0.305180,0.000000,0.002197,-0.009888,1.007095
100,-0.061036,-0.122072,0.000000,0.003540,-0.000855,0.999039
101,-0.427253,-0.244144,0.000000,0.001587,-0.008057,1.001724
102,0.000000,0.000000,-0.122072,0.007202,-0.007446,1.006119
103,-0.183108,-0.061036,0.000000,-0.005127,-0.005737,0.994766
104,-0.549325,-0.244144,-0.122072,0.003052,-0.000977,1.000381
105,-0.732433,-0.244144,-0.122072,0.000244,-0.005859,1.003677
106,0.000000,-0.122072,-0.122072,0.001709,-0.002808,0.998428
107,-0.183108,-0.061036,0.000000,-0.000244,-0.005005,1.001602
108,-0.305180,-0.183108,-0.122072,0.005493,-0.003784,1.001602
109,0.000000,0.061036,-0.122072,0.004273,-0.007446,1.000381
110,0.000000,0.000000,-0.183108,0.003174,-0.005371,0.999893
111,0.366217,0.000000,-0.122072,-0.002197,-0.000977,0.998795
112,0.000000,0.000000,-0.122072,0.003052,-0.003906,0.993301
113,-0.488289,-0.061036,0.000000,0.002197,-0.006470,0.998184
114,0.183108,0.000000,0.000000,0.005127,-0.005615,0.999283
115,-0.183108,-0.061036,0.000000,0.005859,-0.000122,0.995743
116,-0.366217,0.000000,0.000000,0.004761,-0.006592,0.999405
117,0.122072,0.061036,0.000000,-0.001221,-0.005371,0.999527
118,-0.183108,0.061036,0.000000,0.000610,-0.002808,1.000748
119,0.000000,0.183108,0.000000,-0.001953,-0.002564,0.996719
120,0.000000,0.000000,0.000000,0.001221,-0.005493,1.001602
121,0.061036,0.000000,0.000000,0.007568,-0.006958,0.998917
122,0.183108,0.000000,0.000000,-0.003296,-0.003540,1.001602
123,0.305180,-0.122072,0.000000,-0.003540,0.000855,0.994034
124,-0.244144,-0.488289,0.000000,0.005249,-0.006958,0.988907
125,-0.427253,-0.427253,-0.122072,-0.003662,0.000244,0.994400
126,-0.610361,-0.427253,0.000000,0.003784,-0.006836,0.998917
127,-0.732433,-0.427253,0.000000,0.003174,-0.003418,1.002945
128,-0.549325,-0.488289,0.000000,0.000000,-0.007202,1.012345
129,0.244144,-0.305180,0.000000,0.001099,-0.005493,0.996231
130,-0.122072,-0.427253,0.000000,0.003784,-0.003174,1.000870
131,-0.183108,-0.244144,0.000000,0.005249,-0.010254,1.011856
132,0.915541,0.122072,0.061036,0.007202,-0.005859,1.005142
133,0.488289,0.061036,0.061036,0.000000,-0.005005,0.994156
134,0.671397,0.061036,0.000000,0.007080,-0.008667,0.992325
135,0.671397,0.122072,-0.122072,0.003052,-0.013306,1.008927
136,1.220722,0.488289,0.000000,-0.004517,-0.005982,0.987076
137,0.488289,0.183108,0.000000,0.000732,0.006714,0.991836
138,-1.037613,-0.061036,0.061036,-0.000244,-0.014527,1.008682
139,1.159686,0.244144,0.000000,0.009400,-0.005371,1.001724
140,0.000000,0.000000,0.122072,-0.005859,-0.008423,1.000504
141,0.854505,-0.366217,0.122072,0.013184,-0.001709,1.000748
142,0.061036,0.061036,0.000000,-0.010254,-0.007813,0.996353
143,0.183108,-0.549325,0.122072,-0.002686,-0.002808,0.995254
144,-0.366217,-0.976577,0.122072,0.006836,0.002319,1.007095
145,-0.671397,-0.427253,-0.183108,0.004639,-0.004883,0.986954
146,-0.305180,-0.244144,0.122072,-0.006470,-0.005615,1.015518
147,0.671397,-0.427253,0.061036,0.019654,-0.008789,0.998917
148,1.342794,0.427253,0.000000,-0.003906,0.000366,0.993790
149,0.244144,0.122072,0.183108,-0.001221,-0.010742,1.005631
150,2.258335,0.366217,0.000000,0.002075,-0.000122,0.993423
151,0.671397,0.244144,0.000000,-0.008911,0.005371,1.000015
152,0.000000,0.000000,-0.305180,0.007324,-0.005371,1.021500
153,2.197299,0.427253,-0.671397,-0.003784,0.000610,1.005386
154,0.732433,0.366217,-0.610361,0.006958,-0.010742,0.998306
155,1.586938,0.671397,-0.488289,0.002319,-0.001465,1.002579
156,2.014191,0.671397,-0.427253,-0.004761,0.008301,1.001358
157,1.525902,0.061036,-0.305180,0.003052,0.011475,1.004898
158,0.244144,0.549325,-0.488289,0.017456,-0.015503,0.958145
159,2.014191,1.037613,-0.122072,-0.006470,0.007813,0.985611
160,-0.244144,-0.915541,0.671397,-0.023072,0.005005,0.907118
161,-2.563516,-1.647974,0.000000,0.006958,0.045289,0.956313
162,-8.789197,-1.831083,-0.610361,-0.000122,-0.020020,1.036515
163,-4.150454,-1.464866,-0.488289,0.007202,-0.047120,1.057145
164,1.647974,0.061036,-0.244144,0.003296,-0.006348,1.017105
165,-0.061036,-0.305180,0.793469,-0.038941,0.004150,0.976211
166,1.525902,-0.793469,0.244144,-0.007568,0.019532,0.990005
167,-1.464866,-1.892119,0.122072,-0.002075,-0.009155,1.002335
168,0.976577,-2.197299,-0.305180,-0.000244,0.002441,0.986465
169,-0.671397,-3.051804,-0.183108,-0.000977,0.009400,0.980972
170,-1.403830,-3.234913,-0.244144,-0.002319,-0.006714,0.989395
171,-1.831083,-3.540093,-0.183108,0.006348,-0.005005,0.996231
172,-1.037613,-3.234913,-0.183108,-0.000122,0.003418,0.973037
173,-4.516670,-3.601129,-0.183108,0.007935,-0.007568,1.018326
174,-3.112840,-2.990768,-0.305180,0.017212,-0.019532,1.043961
175,1.098650,-1.831083,-0.488289,0.010376,-0.005737,0.988296
176,-0.610361,-1.647974,-0.183108,0.008667,-0.006714,1.001114
177,0.610361,-1.342794,0.183108,0.018921,-0.024537,1.017716
178,3.051804,-0.610361,0.000000,0.012573,-0.009155,0.997452
179,1.953155,-1.159686,0.305180,0.005005,0.006226,1.002090
180,1.647974,-1.586938,0.244144,0.003662,0.004395,0.985367
181,0.488289,-1.892119,0.244144,0.005127,0.008057,0.970596
182,-0.976577,-2.136263,0.122072,-0.006592,0.000366,0.993545
183,-1.403830,-2.868696,0.122072,0.012573,-0.004150,1.008316
184,-0.793469,-2.563516,0.061036,0.011109,0.000732,0.984146
185,-1.342794,-2.563516,0.183108,0.004639,-0.006348,0.995254
186,-1.037613,-2.868696,0.366217,0.016114,-0.003784,0.993668
187,-1.159686,-2.380407,0.244144,0.003296,0.002197,0.990249
188,-2.075227,-2.929732,0.244144,0.001587,-0.019776,1.015518
189,0.915541,-2.990768,0.122072,0.018921,-0.001343,1.007828
190,-0.122072,-3.234913,0.183108,-0.001953,0.001587,0.978897
191,-0.122072,-4.333562,0.488289,0.010620,0.007813,0.921645
192,-2.197299,-5.127031,0.488289,-0.001099,0.037110,0.985245
193,-7.873655,-6.042573,0.122072,0.009644,-0.011963,0.967422
194,-3.479057,-5.127031,-0.549325,0.012940,0.021851,0.959243
195,-11.718929,-5.554284,-0.488289,0.020264,0.005737,0.945449
196,-13.855192,-4.821851,0.000000,0.019409,-0.020630,1.060929
197,-8.117800,-4.333562,-0.244144,0.030274,-0.028321,1.006973
198,-7.629511,-2.624552,0.183108,0.028199,0.002564,0.975479
199,-10.681315,-2.319371,0.732433,-0.000855,-0.016480,0.990005
200,-10.437171,-3.723201,0.976577,0.022217,-0.042847,1.047257
201,-4.516670,-2.807660,0.671397,0.015381,-0.036988,1.035904
202,-4.821851,-2.380407,1.342794,0.028077,-0.064210,1.049943
203,2.075227,-1.342794,1.709010,0.009766,-0.019043,0.975479
204,1.403830,-3.112840,1.892119,0.008179,0.022827,0.908095
205,-8.361944,-5.859464,2.380407,0.007202,0.005493,0.968521
206,-7.568475,-7.263294,2.014191,0.026368,-0.012818,0.991104
207,-8.117800,-7.263294,1.892119,0.036011,-0.030396,1.028824
208,-5.920500,-6.469825,2.136263,0.035767,-0.041627,1.023575
209,-2.197299,-5.554284,2.014191,0.021241,-0.016358,1.009781
210,-4.211490,-5.310140,2.014191,0.037598,-0.029419,1.006119
211,-3.906310,-4.577707,2.258335,0.031006,-0.046387,1.044694
212,-0.244144,-3.845274,2.380407,0.048951,-0.048707,1.017472
213,2.014191,-2.685588,2.319371,0.045655,-0.000977,0.949722
214,-4.882887,-3.112840,2.502480,0.028077,0.007324,0.947524
215,-8.361944,-4.882887,2.563516,0.027344,0.001831,0.968887
216,-9.033341,-5.615320,2.075227,0.035645,-0.001099,0.978042
217,-12.634470,-6.225681,2.014191,0.040284,-0.001709,0.934707
218,-19.043259,-6.652934,2.563516,0.055543,-0.001831,0.975723
219,-22.034028,-6.652934,2.136263,0.018921,-0.019532,0.984634
220,-22.217136,-7.629511,1.770047,0.050660,-0.027588,1.033219
221,-22.095064,-6.469825,1.586938,0.055299,-0.048585,1.014420
222,-20.569162,-5.981537,1.525902,0.040162,-0.041016,1.001236
223,-21.179522,-5.920500,1.342794,0.041749,-0.051881,1.021500
224,-20.996414,-5.798428,1.464866,0.043336,-0.075196,1.018082
225,-17.578393,-5.554284,1.159686,0.041871,-0.070802,1.017227
226,-15.686275,-6.286717,0.976577,0.026978,-0.058839,0.998062
227,-17.212177,-7.568475,0.793469,0.026978,-0.079835,1.003189
228,-14.404517,-8.789197,0.366217,0.039307,-0.072511,0.997574
229,-14.709697,-8.850233,0.183108,0.036133,-0.066041,0.990982
230,-16.418708,-9.216449,0.671397,0.045289,-0.060792,1.019303
231,-16.784924,-7.934691,0.427253,0.059327,-0.064942,1.004044
232,-18.799115,-7.690547,0.732433,0.048707,-0.091310,0.994034
233,-18.066682,-7.202258,0.915541,0.054200,-0.080934,1.015640
234,-17.578393,-6.836042,0.915541,0.053590,-0.077638,0.982071
235,-17.456321,-6.408789,0.183108,0.055177,-0.073243,0.994766
236,-17.212177,-7.080186,-0.244144,0.046387,-0.091188,1.001114
237,-15.930419,-6.836042,-0.427253,0.051881,-0.095583,0.997818
238,-17.578393,-6.958114,0.000000,0.055787,-0.100343,1.014420
239,-15.442130,-6.164645,0.427253,0.049683,-0.112673,1.044327
240,-14.282444,-4.577707,0.488289,0.069459,-0.114626,1.023209
241,-13.672084,-3.540093,0.732433,0.084474,-0.113771,1.025528
242,-12.390326,-1.647974,1.464866,0.090578,-0.102174,1.039567
243,-11.902037,0.610361,2.014191,0.078981,-0.109743,1.021988
244,-10.193027,2.197299,3.234913,0.040894,-0.125612,0.977188
245,-7.934691,2.380407,3.234913,0.078614,-0.104616,0.978164
246,-9.155413,2.380407,4.028382,0.061646,-0.084108,1.010513
247,-13.611048,3.295949,4.455634,0.056397,-0.081178,0.960220
248,-11.413748,2.929732,2.685588,0.079103,-0.072755,0.967910
249,-18.554971,5.065995,4.028382,0.066529,-0.077394,0.994156
250,-24.597543,6.958114,6.042573,0.099245,-0.105470,0.990860
251,-24.841688,9.521630,7.141222,0.060426,-0.075319,0.984024
252,-34.851606,10.315099,7.568475,0.058228,-0.070069,1.008438
253,-37.842374,10.559243,5.554284,0.039185,-0.078859,0.972183
254,-42.420081,9.460594,4.272526,0.017823,-0.115724,1.003189
255,-46.448463,8.667124,2.136263,0.021851,-0.128542,1.008682
256,-47.730220,9.521630,-0.305180,0.030762,-0.141970,0.992691
257,-49.439231,9.338521,-1.220722,-0.017823,-0.124269,1.090593
258,-54.566262,6.958114,-3.906310,-0.001587,-0.160647,0.999283
259,-52.796216,8.667124,-6.652934,0.032959,-0.222904,0.979019
260,-51.880674,6.164645,-11.352712,0.026368,-0.206058,1.033707
261,-44.373236,3.418021,-13.550011,-0.014405,-0.261479,1.159686
262,-22.583352,0.000000,-12.573434,0.128176,-0.206790,1.112078
263,-20.325017,9.460594,-12.451362,0.124147,-0.200443,1.093278
264,-45.654994,14.160372,-6.408789,0.080934,-0.046632,1.081193
265,-67.933165,22.217136,-6.775006,0.055909,-0.069215,0.896132
266,-81.483177,28.259709,-6.591897,0.054200,-0.023194,0.934585
267,-111.879149,34.180209,-5.004959,0.008301,0.010254,0.813855
268,-129.335470,33.936065,0.793469,0.082887,-0.169070,0.905287
269,-112.916762,29.663539,12.207218,0.037354,0.488289,1.012589
270,-210.269322,15.625238,-12.756542,-0.154421,0.037964,1.096574
271,-362.920577,10.803388,16.845960,0.136965,0.137209,1.262837
272,-451.544976,36.255436,33.142596,0.308965,0.128786,1.652247
273,-515.754940,46.143282,25.329976,-0.076539,-0.050050,1.188495
274,-593.148699,48.462654,16.357671,0.083742,-0.108766,1.249897
275,-642.954147,60.059510,15.869383,0.211795,-0.505501,1.047990
276,-767.040513,95.094224,113.038834,-0.750134,-1.598291,1.999969
277,-416.205081,71.595331,33.875029,-1.274434,-0.431403,1.999969
278,103.089952,55.054551,-45.471885,-0.400519,0.330938,1.999969
279,56.397345,52.185855,-54.139010,-0.626230,0.307012,1.878813
280,-117.189288,-4.272526,15.869383,-0.427619,0.484260,1.611353
281,-63.111315,-42.542153,25.635157,-0.195560,0.022461,1.661769
282,99.977111,-45.716030,17.029068,-0.081422,0.449226,0.974990
283,64.820325,-62.806134,5.676356,0.141970,0.518807,0.709239
284,22.827497,-46.082246,8.056764,0.225711,0.379767,0.946304
285,65.735866,-25.513085,-11.230640,0.154543,0.290043,0.991348
286,95.948730,-16.357671,-24.536507,0.057984,0.346441,0.834974
287,87.159533,-25.574121,-27.832456,-0.078492,0.257328,0.857313
288,108.949416,-35.461967,-27.771420,-0.153201,0.209476,0.944839
289,131.288624,-40.344854,-25.085832,-0.204837,0.260746,1.052995
290,138.063630,-38.513771,-19.470512,-0.243290,0.234501,1.227192
291,162.600137,-28.809033,-14.160372,-0.283330,0.182498,1.358907
292,188.845655,-19.104295,-7.080186,-0.315557,0.126833,1.354025
293,208.072023,-14.709697,2.807660,-0.312627,0.041382,1.251606
294,226.810101,-14.038300,12.207218,-0.229496,-0.036255,1.068986
295,237.125200,-15.625238,19.714656,-0.087648,-0.064210,0.936172
296,237.613489,-18.493935,23.315785,0.067872,-0.068727,0.955337
297,240.482185,-19.226368,20.569162,0.211063,-0.055055,1.090471
298,246.646830,-15.686275,12.512398,0.282963,-0.051759,1.241840
299,253.971160,-9.460594,2.990768,0.276127,-0.058595,1.374777
300,263.736934,-6.164645,-6.225681,0.235599,-0.097292,1.430564
301,273.868925,-5.554284,-13.366903,0.192142,-0.144411,1.439597
302,279.301137,-7.019150,-19.165332,0.186282,-0.205570,1.370016
303,278.202487,-7.019150,-25.940337,0.192508,-0.312627,1.310811
304,270.756085,-0.549325,-32.837415,0.169924,-0.378912,1.361227
305,261.722744,11.413748,-38.513771,0.136477,-0.417609,1.532006
306,255.436027,22.705425,-41.016251,0.108034,-0.451179,1.604883
307,251.712825,24.963760,-41.992828,0.091310,-0.385138,1.690211
308,242.313268,22.278172,-45.532921,0.142824,-0.449958,1.719265
309,229.800870,19.592584,-48.218509,0.175540,-0.476204,1.999969
310,224.979019,16.845960,-53.406577,0.148928,-0.548592,1.999969
311,240.604257,18.066682,-59.266041,0.054200,-0.655528,1.999969
312,268.314641,21.179522,-63.233387,-0.012818,-0.762829,1.999969
313,282.963302,26.367590,-63.294423,-0.005859,-0.854383,1.927153
314,274.052033,31.921874,-60.364691,0.050660,-0.918959,1.499046
315,253.116655,36.377508,-56.214237,0.074342,-0.938369,1.384176
316,231.265736,38.696880,-50.782025,-0.019165,-1.032853,1.477440
317,219.302663,40.161746,-41.565576,-0.146731,-1.176287,1.464012
318,205.935760,40.222782,-28.931106,-0.158206,-1.352926,1.322408
319,185.671778,40.100710,-18.982223,0.058228,-1.573266,1.114885
320,160.769055,41.443503,-20.080873,0.386847,-1.837919,0.852430
321,134.279393,44.312200,-32.837415,0.738537,-2.000031,0.560433
322,106.507973,43.701839,-51.209277,0.800671,-2.000031,0.361822
323,82.581827,37.720302,-62.134737,0.651865,-2.000031,0.045533
324,45.838102,9.704738,-56.397345,0.322393,-2.000031,-0.071046
325,1.953155,-32.043946,-39.673457,0.043702,-1.714870,0.156741
326,-25.268940,-60.730907,-20.935378,-0.167849,-1.392355,0.601328
327,-41.138323,-70.862898,-5.432212,-0.319707,-1.030655,0.914687
328,-153.871977,-83.802548,-42.542153,-0.377935,-1.891020,-0.954116
329,-208.926528,-90.028229,28.870069,-0.362188,-0.573495,-0.187625
330,-151.247425,-47.791257,21.911955,-0.373297,0.122805,1.393698
331,-158.571756,-12.146181,36.133364,-0.678233,1.229389,1.636744
332,-279.850462,-68.360418,41.504540,-0.378668,0.113161,0.809461
333,-311.345083,-87.037461,54.627298,0.011719,-0.525887,1.121965
334,-265.934234,-46.631571,60.547799,0.443366,-0.402472,1.947906
335,-270.206760,-47.119860,53.711757,1.014908,-0.205447,1.999969
336,-193.911650,-33.875029,25.513085,1.038590,-0.387213,1.999969
337,-56.092164,-2.868696,-5.554284,0.253666,-0.096681,1.860624
338,-64.271000,-10.070954,9.155413,-0.700572,0.210697,1.692531
339,-119.447623,-51.758602,27.710384,-0.610483,-0.171389,1.172259
340,-81.544213,-70.557717,21.179522,0.936294,0.251102,1.999969
341,-72.266728,-28.320745,-0.915541,0.755871,-0.290532,1.690700
342,-2.807660,8.117800,0.671397,-0.505013,0.087037,1.139788
343,-55.298695,-26.672770,8.056764,-0.129274,0.021118,0.982315
344,-35.156786,-25.574121,1.342794,0.406500,-0.020996,1.303853
345,-28.198672,-4.211490,-0.183108,0.006592,-0.057130,1.094621
346,-27.283131,-6.652934,2.746624,-0.016724,-0.024537,1.137713
347,-13.672084,-7.019150,0.366217,0.095949,0.004273,1.020523
348,-19.958801,-2.319371,1.770047,0.014771,0.009277,1.005997
349,-22.156100,-1.770047,2.563516,0.038209,-0.018067,1.032242
350,-18.371862,1.464866,1.709010,0.072999,0.000610,1.004288
351,-24.719615,3.418021,2.868696,0.042115,-0.026123,1.036637
352,-21.362631,5.310140,2.197299,0.059205,-0.032471,1.072160
353,-19.043259,7.507439,2.136263,0.069215,-0.040284,1.056046
354,-17.761501,9.887846,2.502480,0.037598,-0.045045,1.048234
355,-14.282444,10.864424,2.136263,0.026368,-0.041382,1.025284
356,-14.465553,9.887846,2.197299,-0.004761,-0.042237,1.013321
357,-13.000687,7.873655,1.892119,0.024659,-0.054322,1.043961
358,-7.995727,7.995727,1.525902,0.000244,-0.033936,1.007218
359,-8.728161,5.981537,1.647974,-0.009644,-0.046754,0.999527
360,-6.897078,4.333562,1.098650,0.005371,-0.057130,1.020523
361,-3.906310,3.295949,0.732433,0.009522,-0.043091,1.012222
362,-3.234913,2.197299,0.488289,0.010498,-0.046265,1.002335
363,-2.746624,0.915541,0.549325,0.007813,-0.047364,1.004044
364,-1.709010,0.488289,0.427253,0.017578,-0.048829,1.009293
365,-1.037613,0.732433,0.427253,0.005982,-0.037964,0.985977
366,-2.929732,0.183108,0.671397,0.006104,-0.032349,0.968643
367,-5.371176,-0.061036,0.793469,0.014160,-0.032227,0.987686
368,-7.263294,-0.061036,0.915541,0.010986,-0.048707,1.003555
369,-5.798428,-0.244144,0.915541,0.013916,-0.046632,0.988785
370,-6.775006,-0.854505,1.220722,0.012818,-0.042969,0.998184
371,-6.530861,-1.586938,1.403830,0.005615,-0.047974,0.997330
372,-7.080186,-3.051804,1.403830,-0.000122,-0.044800,0.995254
373,-6.958114,-4.699779,1.037613,0.000855,-0.055543,1.001114
374,-5.798428,-5.859464,0.427253,0.010498,-0.059205,0.988296
375,-5.249104,-6.591897,0.366217,0.013062,-0.050660,0.998184
376,-6.347753,-6.958114,0.183108,0.009888,-0.037232,0.970474
377,-8.972305,-7.934691,0.305180,0.018677,-0.028809,0.952895
378,-15.136950,-8.484016,0.671397,0.019287,-0.024292,0.951797
379,-21.667811,-8.850233,1.159686,0.019898,-0.037110,0.968276
380,-25.207904,-8.484016,1.037613,0.038697,-0.055787,1.014542
381,-24.902724,-7.263294,1.220722,0.030518,-0.058106,1.006119
382,-26.794842,-5.676356,1.525902,0.039918,-0.072145,1.028092
383,-25.085832,-4.028382,1.831083,0.035157,-0.079835,1.009781
384,-23.437858,-3.051804,1.831083,0.033204,-0.081788,1.018936
385,-23.071641,-2.685588,2.014191,0.029053,-0.085451,0.995132
386,-22.034028,-3.051804,1.403830,0.029908,-0.062379,0.991836
387,-25.268940,-3.967346,0.671397,0.007202,-0.084840,0.986587
388,-23.743038,-5.615320,-0.488289,0.017823,-0.049439,0.968887
389,-29.480430,-6.836042,-1.220722,0.021241,-0.043946,0.969009
390,-36.865797,-7.812619,-2.258335,0.031373,-0.104005,0.983047
391,-32.654307,-7.324331,-2.868696,0.023804,-0.123171,1.015885
392,-32.227054,-6.713970,-0.305180,0.028931,-0.137209,1.006729
393,-31.555657,-5.737392,3.418021,0.076417,-0.135378,1.014908
394,-33.936065,1.281758,6.347753,0.047242,-0.109865,1.002701
395,-37.109941,2.441444,8.484016,0.055543,-0.090211,1.019669
396,-43.518730,5.432212,9.704738,0.032959,-0.102174,0.962905
397,-50.293736,4.943923,10.864424,0.026123,-0.063966,1.028214
398,-56.641489,5.859464,8.056764,-0.004395,-0.129274,0.967300
399,-59.388113,4.516670,7.019150,-0.002319,-0.110109,0.999039
400,-63.416495,5.859464,4.760815,-0.048096,-0.125978,1.078508
401,-66.468299,3.540093,-3.418021,-0.097292,-0.202640,1.120256
402,-59.693294,-3.967346,-15.991455,0.000122,-0.261479,1.044938
403,-39.978637,-5.859464,-20.691234,-0.010254,-0.288945,1.143084
404,-30.029755,-5.615320,-18.310826,0.058228,-0.268681,1.111223
405,-31.555657,-7.141222,-12.939651,0.069947,-0.260624,1.079362
406,-36.865797,3.051804,-10.498207,0.034791,-0.013916,0.981460
407,-65.125505,9.521630,-14.343481,0.100954,-0.022827,1.031388
408,-103.212024,29.419394,-16.113527,0.031861,0.103883,0.936416
409,-146.303502,28.992142,-25.635157,0.092897,0.077638,0.585214
410,-138.307774,-1.342794,-13.122759,-0.209232,0.529671,0.798596
411,-269.657435,-33.020523,-30.029755,-0.165042,0.526253,1.190692
412,-512.886244,-20.691234,-5.554284,0.340215,0.354986,1.318257
413,-697.215229,-35.950256,65.369650,-0.120974,0.508309,1.547143
414,-802.563516,-66.773480,50.659953,0.034302,-0.400397,1.414206
415,-844.922561,-73.243305,62.745098,-0.138552,-0.170657,0.835950
416,-993.911650,-93.018997,104.066529,0.752575,-2.000031,1.999969
417,-754.100862,-54.444190,211.673152,-1.382101,-1.102312,1.999969
418,193.179217,-62.500954,-37.415122,-0.068971,0.169802,1.999969
419,325.383383,2.380407,-48.523690,-0.101564,1.059220,1.999969
420,109.254597,-19.775692,-2.807660,-0.172854,1.153094,1.707546
421,-48.462654,-67.322805,16.968032,-0.309941,0.535409,1.130266
422,78.736553,-41.809720,0.732433,-0.077394,-0.126101,0.897353
423,211.306935,-15.930419,-8.667124,-0.164431,0.430060,0.247074
424,137.880522,-21.667811,-20.569162,-0.054078,0.281865,0.149416
425,90.760662,-2.441444,-3.601129,-0.069093,0.245243,0.380499
426,126.100557,3.601129,-12.634470,-0.087037,0.194217,0.652598
427,155.214771,-1.342794,-15.991455,-0.142824,0.309819,0.751598
428,151.857786,-17.212177,-13.733120,-0.085817,0.297734,0.971939
429,178.469520,-21.423667,-16.052491,-0.061158,0.258793,1.198871
430,210.757610,-14.160372,-20.813306,-0.056641,0.252934,1.294087
431,228.641184,-3.723201,-23.865110,-0.088869,0.158938,1.309468
432,249.210346,6.164645,-24.963760,-0.129519,0.034791,1.206683
433,270.450904,12.268254,-23.682002,-0.142336,-0.042237,1.063981
434,278.873884,14.648661,-20.141909,-0.131594,-0.098024,1.026139
435,283.085374,17.090105,-16.052491,-0.097902,-0.149050,1.128313
436,291.447318,20.141909,-13.183795,-0.015625,-0.173220,1.218402
437,301.274128,23.010605,-12.817578,0.058106,-0.190311,1.312154
438,310.856794,23.132677,-15.075914,0.081422,-0.279667,1.169085
439,312.077516,26.306554,-19.470512,0.103273,-0.417609,0.881239
440,294.132906,36.743725,-21.911955,0.200320,-0.491829,0.807385
441,268.925002,45.899138,-21.728847,0.228031,-0.380377,1.139788
442,248.355840,42.847333,-28.259709,0.308965,-0.355474,1.518822
443,251.956970,44.190127,-37.109941,0.331792,-0.356573,1.769680
444,255.252918,53.040360,-45.288777,0.226200,-0.427008,1.887968
445,247.196155,65.735866,-44.617380,0.064698,-0.538949,1.988556
446,239.444572,64.637217,-38.941024,-0.016846,-0.637705,1.999969
447,241.458763,57.923247,-33.142596,-0.087160,-0.721569,1.999969
448,251.041428,54.932479,-27.466239,-0.129397,-0.780285,1.999969
449,268.009461,60.608835,-23.437858,-0.122683,-0.893935,1.999969
450,290.409705,71.595331,-20.996414,-0.062257,-1.000992,1.999969
451,292.484932,81.971466,-17.700465,-0.013428,-1.041764,1.762234
452,270.328832,84.901198,-13.916228,0.026001,-1.076921,1.503441
453,247.440299,81.910430,-11.291676,0.061646,-1.078386,1.551293
454,231.570916,76.234073,-10.925460,0.072633,-1.118425,1.733181
455,220.279240,68.177310,-13.183795,0.119265,-1.305074,1.867582
456,213.199054,63.599603,-19.104295,0.330083,-1.656886,1.827787
457,198.184176,72.571908,-34.424353,0.682994,-2.000031,1.588281
458,174.441138,108.827344,-61.158160,0.802991,-2.000031,0.957046
459,170.962081,149.477379,-82.093538,0.691417,-2.000031,-0.227176
460,152.590219,138.307774,-77.027543,0.363775,-2.000031,-1.415549
461,45.227741,40.405890,-46.265354,0.012085,-2.000031,-1.529808
462,-59.143969,-71.412222,-1.892119,-0.047608,-1.803006,-0.434455
463,-94.972152,-125.673304,23.498894,-0.206668,-1.675685,-0.611704
464,-196.719310,-192.446784,22.400244,0.089113,-1.860014,-0.390021
465,-245.181964,-207.217517,42.053864,0.161379,-0.659922,1.253193
466,-162.844282,-113.282979,41.382467,-0.207767,0.365362,1.999969
467,-145.204852,-59.205005,50.537881,-0.513802,0.976211,1.750149
468,-226.016632,-82.948043,60.914015,-0.015015,0.180056,0.048341
469,-287.357900,-81.422141,57.312886,0.560189,-0.407477,0.094850
470,-325.627527,-42.420081,72.266728,0.984390,-0.164309,1.682521
471,-344.426642,-37.598230,49.805447,1.623316,-0.267460,1.999969
472,-216.189822,38.452735,5.920500,0.948623,-0.478035,1.999969
473,-132.570382,27.832456,9.155413,-1.120623,0.031617,1.999969
474,-183.108263,-38.635843,35.339895,-1.391989,-1.119280,1.999969
475,0.427253,-100.587472,27.283131,0.406622,-0.062501,1.999969
476,-16.052491,-73.792630,6.469825,1.750393,0.272099,1.999969
477,-29.297322,16.357671,14.648661,-0.050294,-0.063722,0.966201
478,-35.217823,-8.484016,15.747311,-0.831189,-0.014527,1.054215
479,-31.128405,-46.082246,5.065995,0.482429,0.046998,1.223774
480,-22.461280,-15.381094,-1.220722,0.344610,0.015503,1.131731
481,-44.190127,-4.089418,6.713970,-0.255375,-0.065064,1.189837
482,-16.479744,-17.090105,1.098650,0.101320,-0.053346,1.159197
483,-10.681315,-6.103609,0.000000,0.103883,-0.003662,1.088029
484,-21.728847,-1.892119,3.662165,-0.071901,-0.062623,1.055802
485,-5.493248,-2.807660,1.220722,0.081178,0.000610,1.044938
486,-12.695506,2.075227,2.197299,0.044923,0.004150,1.016007
487,-13.977264,3.967346,2.441444,0.022950,-0.049683,1.072770
488,-5.371176,6.103609,1.403830,0.057740,-0.027100,1.045548
489,-5.615320,8.789197,1.342794,0.026368,-0.003296,1.003922
490,-8.300908,9.643702,1.342794,0.008789,-0.017334,1.000626
491,-6.286717,9.643702,0.793469,-0.010742,0.003296,0.943130
492,-11.413748,8.239872,0.976577,-0.027222,0.003784,0.962051
493,-15.503166,6.530861,0.976577,-0.010742,-0.033570,1.007340
494,-10.620279,5.737392,0.488289,-0.015259,-0.027955,1.003189
495,-11.169604,4.516670,0.671397,-0.015503,-0.038209,1.006851
496,-10.254063,3.845274,0.549325,-0.104005,0.096193,1.333028
497,-6.286717,2.441444,0.915541,0.025269,-0.058106,0.905165
498,-12.146181,-0.732433,0.000000,-0.021241,-0.049928,0.955947
499,-10.376135,-1.892119,0.122072,-0.014160,-0.032105,1.000504
500,-9.826810,-2.807660,-0.305180,-0.011109,-0.022583,0.963516
501,-13.061723,-4.089418,0.000000,-0.011963,-0.026734,0.982559
502,-14.465553,-4.272526,0.000000,-0.009277,-0.041260,1.003799
503,-14.953841,-2.258335,-1.953155,0.135134,-0.195804,0.697032
504,-10.559243,-2.624552,-0.183108,-0.041505,-0.000244,1.148455
505,-15.075914,-4.577707,0.732433,-0.003296,-0.071901,0.963394
506,-10.925460,-4.516670,0.732433,0.001709,-0.052125,1.002457
507,-10.803388,-4.272526,0.915541,-0.004883,-0.041382,1.016983
508,-11.779965,-4.760815,0.976577,0.013794,-0.059327,1.026749
509,-8.972305,-3.662165,0.854505,0.012573,-0.072267,1.012345
510,-8.484016,-3.112840,1.525902,-0.067506,-0.004273,1.122942
511,-7.751583,-4.150454,2.441444,0.118288,-0.112551,0.819104
512,-11.474784,-3.112840,2.258335,-0.028931,-0.038697,0.951553
513,-14.953841,-4.089418,2.929732,0.003418,-0.047120,0.996963
514,-17.639429,-4.699779,3.234913,0.005982,-0.059693,1.017716
515,-17.273213,-4.638743,2.807660,0.030518,-0.083131,0.967910
516,-17.700465,-3.723201,1.709010,-0.007446,-0.087648,0.990127
517,-22.278172,-5.432212,3.479057,0.009644,-0.055421,0.973770
518,-27.038987,-6.103609,4.333562,-0.020996,-0.065309,0.992447
519,-26.489662,-7.019150,3.906310,0.009155,-0.052979,1.019669
520,-29.419394,-5.798428,3.234913,0.002564,-0.091066,0.978286
521,-28.809033,-5.676356,2.929732,0.017090,-0.063966,0.982803
522,-31.982910,-4.699779,3.112840,0.030030,-0.068971,0.992935
523,-33.386740,-2.380407,3.906310,0.030518,-0.071534,0.975723
524,-40.039673,-2.136263,4.699779,-0.037842,-0.081910,0.955581
525,-39.002060,-4.028382,4.211490,0.015625,-0.055665,0.998672
526,-44.129091,-3.356985,4.089418,-0.052125,-0.093996,0.985855
527,-46.326390,-5.310140,5.371176,0.092653,-0.151980,1.061906
528,-43.152514,-0.366217,7.934691,-0.060426,-0.177249,1.000748
529,-36.865797,-2.807660,7.629511,0.055177,-0.177615,1.074357
530,-36.377508,2.624552,7.934691,-0.011841,-0.141238,1.009415
531,-35.584039,0.976577,6.164645,-0.030762,-0.091188,0.988174
532,-36.987869,-1.831083,4.028382,-0.115846,-0.084108,1.127703
533,-46.631571,0.244144,3.234913,-0.032593,-0.042725,0.960952
534,-67.689021,-5.798428,-7.690547,-0.064454,-0.094240,0.993057
535,-78.431373,-7.995727,-19.714656,-0.011109,-0.200565,1.006851
536,-80.201419,-6.408789,-15.747311,0.048585,-0.282597,1.044327
537,-58.106355,-5.310140,-14.526589,0.061524,-0.306401,1.064836
538,-37.842374,-9.216449,-18.249790,0.034913,-0.271733,1.045670
539,-40.955215,-3.173877,-19.165332,0.100587,-0.146487,0.989517
540,-48.218509,1.403830,-16.235599,0.077150,0.037232,0.943252
541,-81.483177,16.601816,-19.165332,0.086183,0.114504,0.892348
542,-112.489509,21.789883,-28.564889,-0.035279,0.215335,0.809827
543,-156.740673,15.686275,-28.259709,0.141604,0.202884,0.564828
544,-191.042954,-19.165332,-19.775692,0.100343,0.796399,0.949233
545,-375.555047,-32.898451,-27.222095,0.161379,0.822522,1.293721
546,-614.328222,-33.203632,26.367590,-0.432013,0.128908,1.254536
547,-720.653086,-82.642863,27.405203,-0.214237,-0.297612,1.322896
548,-745.922026,-99.977111,28.137636,0.063844,-0.178470,1.067887
549,-843.579767,-111.451896,29.724575,-0.034913,-0.580087,1.080583
550,-1031.937133,-57.251850,185.488670,-0.429572,-1.901640,1.999969
551,-347.295338,-51.697566,65.491722,-1.201556,-1.484398,1.999969
552,284.550240,-32.349126,-13.611048,-0.357305,0.676036,1.999969
553,217.959869,-4.760815,-26.062409,-0.282597,0.873304,1.999969
554,-25.207904,-23.987182,45.777066,-0.342168,0.959121,1.741482
555,-90.943771,-56.336309,42.175937,-0.297734,0.333135,1.601953
556,132.936599,-4.760815,44.251164,-0.135866,0.220462,1.107927
557,195.986877,-0.854505,25.329976,-0.081788,0.428229,0.255253
558,99.366751,-8.422980,26.489662,0.093507,0.239506,0.347906
559,81.361105,-1.403830,32.532235,0.080568,0.167849,0.534432
560,134.401465,-0.488289,18.188754,0.118288,0.224857,0.625620
561,142.458228,-6.897078,10.742351,0.052491,0.333379,0.714244
562,134.828717,-20.935378,6.103609,0.038453,0.250614,1.007462
563,169.314107,-23.437858,-1.892119,0.040650,0.223758,1.193622
564,198.733501,-19.470512,-10.864424,0.041138,0.202396,1.225605
565,211.429007,-11.108568,-17.456321,-0.008423,0.101686,1.250629
566,231.143664,-1.159686,-22.034028,-0.081422,-0.029419,1.258076
567,251.590753,5.371176,-22.522316,-0.170535,-0.133059,1.261860
568,264.103151,7.385367,-17.517357,-0.214603,-0.220706,1.296773
569,275.761044,7.507439,-10.803388,-0.203006,-0.314214,1.337911
570,290.409705,9.704738,-5.554284,-0.127077,-0.382818,1.316793
571,298.649577,15.320058,-5.188067,-0.022950,-0.453254,1.273579
572,302.738994,24.231327,-6.775006,0.020386,-0.484260,1.199115
573,303.227283,26.916915,-9.948882,0.074586,-0.492561,1.144060
574,295.719844,25.818265,-13.488975,0.151125,-0.483406,1.157733
575,287.296864,22.705425,-19.531548,0.283574,-0.452644,1.280171
576,277.714199,19.531548,-30.090791,0.420172,-0.438239,1.489403
577,270.756085,20.386053,-45.105669,0.503670,-0.457282,1.746731
578,271.549554,27.527276,-63.111315,0.485725,-0.539193,1.888457
579,276.127260,36.804761,-77.759976,0.339483,-0.650889,1.887846
580,276.310369,43.030442,-83.497368,0.149783,-0.749767,1.822049
581,273.136492,42.420081,-80.262455,0.018555,-0.785534,1.760525
582,270.023651,35.217823,-73.670558,-0.026490,-0.790539,1.663111
583,263.431754,29.846647,-67.933165,0.021485,-0.732189,1.585962
584,249.515526,30.823224,-67.200732,0.110475,-0.698131,1.598535
585,238.223850,38.941024,-71.412222,0.158450,-0.655650,1.641138
586,226.138705,48.035401,-76.844434,0.119020,-0.662608,1.664332
587,214.419776,54.566262,-79.346914,0.007324,-0.725963,1.694850
588,202.883955,58.594644,-76.417182,-0.088624,-0.865370,1.792386
589,191.836423,64.148928,-67.261769,-0.163088,-1.012467,1.985016
590,185.244526,70.740826,-53.345541,-0.175174,-1.277607,1.999969
591,189.211872,82.032502,-35.584039,-0.076417,-1.664210,1.999969
592,187.685969,91.859312,-16.540780,0.068116,-2.000031,1.680812
593,174.380102,94.911116,-4.638743,0.516732,-2.000031,1.072282
594,150.087739,99.244678,-9.277485,0.952041,-2.000031,0.344244
595,124.757763,111.940185,-22.339208,0.922255,-2.000031,-0.347906
596,82.215610,103.578241,-19.104295,0.581674,-2.000031,-1.057267
597,-1.037613,43.030442,0.976577,0.208743,-2.000031,-0.941665
598,-131.105516,-69.398032,20.508125,-0.252201,-2.000031,-2.000031
599,-198.794537,-210.391394,75.318532,0.752575,0.220218,1.184588
600,-143.007553,-148.867018,16.968032,0.487312,0.609018,1.999969
601,-101.747158,-52.124819,39.490349,-0.680430,1.807034,1.999969
602,-232.730602,-124.269474,31.738766,-0.756115,0.026123,0.011231
603,-280.033570,-116.334783,64.332036,0.035645,-0.540902,-0.613779
604,-312.077516,-82.459754,69.153887,0.722179,-0.581796,0.806775
605,-353.215839,-70.496681,76.539254,1.580591,0.012207,1.999969
606,-264.408331,-19.348440,33.813993,1.402976,-0.552499,1.999969
607,-94.117647,27.588312,-5.615320,0.054932,-0.251102,1.673121
608,-186.587320,-17.334249,27.222095,-1.308003,-0.286503,1.999969
609,-139.894713,-75.257496,57.129778,-1.140764,-0.667124,1.637232
610,-17.944610,-119.081407,36.743725,1.141985,0.308721,1.999969
611,-42.786297,-60.975052,2.746624,1.612573,-0.103029,1.657984
612,-23.071641,2.441444,6.897078,-0.455940,0.003052,1.081926
613,-60.242618,-38.757916,11.841001,-0.370367,-0.044068,1.092546
614,-32.166018,-50.537881,1.525902,0.531868,-0.041871,1.252216
615,-28.198672,-23.254749,-0.427253,0.172854,0.029053,1.346334
616,-40.588998,-20.019837,3.234913,-0.033936,-0.104128,1.143572
617,-2.197299,-19.104295,-2.136263,0.193362,0.020996,1.104265
618,-20.508125,-8.789197,1.525902,0.072389,0.007568,1.024430
619,-20.752270,-5.554284,3.418021,0.066163,-0.031373,1.080583
620,-10.376135,-0.793469,2.075227,0.108766,0.020508,1.015274
621,-20.080873,4.150454,3.112840,0.100221,0.010132,1.000015
622,-20.996414,6.836042,2.929732,0.058961,-0.023682,1.033097
623,-18.249790,6.897078,2.990768,0.038453,-0.037964,0.999649
624,-18.860151,6.836042,3.601129,0.059083,-0.032349,1.017105
625,-18.799115,5.859464,3.479057,-0.004761,-0.020020,0.977920
626,-20.874342,2.380407,3.112840,0.017334,-0.034668,0.996231
627,-21.484703,0.915541,3.234913,0.022705,-0.060060,1.016617
628,-17.273213,-0.427253,2.990768,0.011719,-0.056886,1.010758
629,-15.930419,-2.258335,3.356985,0.019898,-0.048219,0.992813
630,-15.747311,-4.333562,3.051804,-0.000732,-0.038575,1.007218
631,-16.418708,-6.591897,2.441444,0.016846,-0.055421,0.979873
632,-14.221408,-7.873655,1.464866,0.023560,-0.051270,1.009537
633,-16.235599,-9.155413,1.159686,0.024170,-0.046265,0.986099
634,-17.090105,-10.070954,0.793469,0.032959,-0.045655,0.995010
635,-18.127718,-10.620279,0.549325,0.035157,-0.058228,1.005509
636,-19.165332,-10.437171,0.305180,0.049195,-0.076783,1.046891
637,-16.906996,-8.789197,0.244144,0.036866,-0.085084,1.030045
638,-14.221408,-8.300908,0.427253,0.039796,-0.066407,0.984634
639,-18.005646,-8.484016,0.732433,0.046265,-0.059571,0.986099
640,-20.752270,-8.545052,0.488289,0.047608,-0.067506,1.006119
641,-20.019837,-8.667124,-0.244144,0.038453,-0.068482,0.999283
642,-20.935378,-8.545052,-1.098650,0.060182,-0.080323,1.002335
643,-22.827497,-7.568475,-0.976577,0.058106,-0.105592,1.020157
644,-19.592584,-6.225681,-0.854505,0.062745,-0.106569,1.005264
645,-20.080873,-4.882887,-1.464866,0.057618,-0.119875,1.030411
646,-22.034028,-4.089418,0.244144,0.062013,-0.128664,1.046525
647,-16.662852,-2.868696,1.037613,0.071046,-0.102174,1.025528
648,-16.540780,-1.220722,1.220722,0.071290,-0.106813,1.026993
649,-16.601816,0.427253,1.464866,0.068360,-0.108766,1.013809
650,-13.611048,1.098650,1.525902,0.070192,-0.116091,1.019669
651,-13.427939,1.525902,2.075227,0.038575,-0.096681,0.989639
652,-15.320058,1.037613,2.258335,0.065553,-0.095949,0.970230
653,-19.409476,1.159686,2.319371,0.039185,-0.085939,0.970718
654,-21.972992,0.915541,2.075227,0.069947,-0.102419,1.032364
655,-24.048219,1.709010,1.586938,0.044678,-0.108278,0.985977
656,-28.747997,1.953155,1.770047,0.057130,-0.114382,1.002701
657,-29.968719,2.014191,1.647974,0.040772,-0.124514,1.016983
658,-29.053178,1.709010,1.220722,0.062745,-0.115236,0.970352
659,-28.381781,0.854505,1.525902,0.054200,-0.126345,1.041398
660,-26.611734,2.746624,2.990768,0.076905,-0.145876,1.000015
661,-32.959487,6.164645,7.629511,0.090455,-0.184085,0.995865
662,-28.686961,6.775006,9.948882,0.045899,-0.155520,1.009781
663,-28.198672,7.446403,10.254063,0.036378,-0.111940,0.972305
664,-35.461967,6.408789,10.193027,0.040284,-0.119875,1.010147
665,-39.124132,6.103609,7.263294,0.004028,-0.122072,0.962783
666,-43.457694,4.943923,4.333562,0.007691,-0.122927,1.019181
667,-53.223468,9.338521,-0.610361,-0.006714,-0.239384,1.125017
668,-47.241932,5.432212,-1.892119,-0.044556,-0.166751,1.013443
669,-52.918288,3.418021,-11.474784,-0.000610,-0.193362,1.019425
670,-53.223468,-0.427253,-17.700465,0.042847,-0.343877,1.013687
671,-29.175250,-2.441444,-16.357671,0.077760,-0.262577,0.958511
672,6.408789,-10.925460,-13.366903,0.146731,-0.266728,1.154314
673,-11.108568,-0.793469,-6.530861,0.151858,-0.207767,1.063981
674,-34.607462,11.779965,1.403830,0.064210,0.110597,0.938857
675,-69.947356,19.958801,-5.127031,0.134279,0.029175,1.022721
676,-92.408637,31.799802,-7.873655,-0.051392,0.338506,0.896742
677,-166.689555,32.593271,-27.405203,0.068727,0.371588,0.704723
678,-180.117494,-8.178836,-1.525902,-0.106081,0.658213,0.879164
679,-312.993057,-33.081559,-18.493935,-0.210086,0.877699,1.685939
680,-561.409934,-24.536507,16.540780,-0.161257,0.167483,1.253925
681,-719.798581,-63.965820,78.736553,-0.182864,0.101930,1.210834
682,-801.525902,-130.556191,60.425727,-0.090700,-0.284916,1.058976
683,-864.271000,-132.143130,89.234760,0.319219,-0.553231,1.262837
684,-1109.575036,-102.235447,232.791638,-0.095216,-1.858549,1.999969
685,-308.781567,-91.432059,74.097810,-0.448371,-1.627344,1.999969
686,355.779355,-6.225681,-16.052491,0.207645,1.022477,1.999969
687,307.621881,35.645075,-54.383154,0.101076,1.133684,1.999969
688,52.674144,-12.207218,-10.009918,-0.240238,0.843030,1.034562
689,-39.551385,-44.739452,-9.765774,-0.084718,0.289799,0.669078
690,111.573968,-10.376135,-6.652934,-0.003906,0.065553,0.492317
691,164.492256,5.676356,-22.705425,0.020630,0.402228,-0.046265
692,88.624399,1.342794,-26.550698,0.137697,0.293584,0.077394
693,61.585412,5.249104,-23.743038,0.084962,0.250248,0.335454
694,103.883421,-3.479057,-34.363317,0.120851,0.324468,0.547616
695,124.269474,-13.733120,-42.175937,0.101808,0.440314,0.689586
696,120.241093,-22.400244,-45.227741,-0.031861,0.372564,0.985367
697,145.326925,-24.231327,-47.180896,-0.080568,0.318486,1.208392
698,184.206912,-15.320058,-49.134051,-0.133791,0.264775,1.219745
699,204.409857,-4.089418,-46.021210,-0.245365,0.188479,1.206317
700,220.218204,5.615320,-37.720302,-0.345464,0.064088,1.219135
701,240.665293,13.611048,-25.391012,-0.406867,-0.041871,1.254047
702,257.450217,20.935378,-10.925460,-0.390875,-0.139406,1.251606
703,272.709239,27.893492,3.906310,-0.311650,-0.187015,1.261616
704,283.634699,31.311513,16.357671,-0.145388,-0.192020,1.346578
705,290.531777,32.654307,21.911955,0.147829,-0.214847,1.422141
706,296.513314,35.523003,12.939651,0.365850,-0.348760,1.446311
707,314.091707,46.570535,-2.441444,0.471931,-0.425788,1.226825
708,310.917830,46.082246,-21.789883,0.555795,-0.549813,0.897719
709,284.672313,49.073014,-39.612421,0.577157,-0.679088,0.755627
710,252.567330,53.162432,-52.429999,0.408209,-0.689097,0.830579
711,226.871138,51.087205,-60.120546,0.218997,-0.641611,1.146990
712,204.409857,42.359045,-58.899825,0.089357,-0.501228,1.783474
713,195.620661,33.264668,-55.115587,0.053346,-0.495125,1.999969
714,216.495003,34.607462,-55.176623,0.058839,-0.599741,1.999969
715,246.952010,47.486076,-60.303655,0.080934,-0.721569,1.999969
716,251.468681,64.332036,-60.547799,0.015991,-0.757580,1.999969
717,240.848402,67.383841,-55.237659,-0.059327,-0.836072,1.999969
718,258.304723,66.346227,-48.401617,-0.091310,-0.932143,1.999969
719,285.526818,71.473259,-41.748684,0.003174,-0.945449,1.999969
720,277.164874,78.126192,-34.302281,0.096315,-0.958267,1.742947
721,261.722744,81.422141,-29.663539,0.200198,-0.998184,1.606104
722,250.370031,84.473945,-28.503853,0.220951,-1.041886,1.590845
723,235.843442,85.145342,-27.344167,0.208865,-1.135149,1.532128
724,223.392081,81.910430,-28.381781,0.276738,-1.311788,1.486717
725,205.020218,79.224842,-35.950256,0.517464,-1.588037,1.461570
726,178.957809,85.755703,-53.711757,0.759411,-2.000031,1.348653
727,159.304189,115.175097,-80.201419,0.788098,-2.000031,0.855482
728,162.661173,151.735714,-97.718776,0.553109,-2.000031,-0.231937
729,130.861372,138.246738,-86.549172,0.217533,-2.000031,-1.336080
730,30.762188,45.838102,-51.392386,-0.088380,-2.000031,-1.374899
731,-69.031815,-67.933165,-8.911269,-0.111574,-1.650538,-0.303471
732,-101.808194,-129.640650,20.019837,-0.193851,-1.794339,-1.239399
733,-195.376516,-223.086900,41.260395,0.257206,-1.374166,-0.206424
734,-239.932860,-223.453117,48.645762,0.366339,-0.451057,1.543359
735,-114.930953,-132.143130,35.156786,-0.106935,0.477913,1.999969
736,-107.606622,-76.295109,46.204318,-0.450813,0.961440,1.417258
737,-183.596551,-97.352560,57.862211,0.122316,0.165774,-0.503426
738,-278.812848,-110.780499,53.894865,0.765515,-0.386358,-0.251713
739,-319.584955,-71.046006,59.205005,0.969986,-0.143923,1.870512
740,-326.420996,-52.552071,47.425040,1.320089,-0.175540,1.999969
741,-207.461662,-13.916228,7.690547,0.835096,-0.553475,1.999969
742,-109.010452,31.067369,-6.591897,-0.513680,-0.284184,1.835966
743,-163.271534,-4.028382,36.743725,-1.677882,-0.130007,1.999969
744,-122.804608,-73.670558,49.805447,-0.537362,-0.602914,1.293111
745,-23.865110,-99.427787,29.236286,1.782986,0.486336,1.999969
746,-53.162432,-15.320058,-7.873655,1.266621,-0.273075,1.631495
747,-13.122759,26.855879,-2.929732,-0.932021,-0.050660,1.003189
748,-55.237659,-32.104982,9.033341,-0.262821,-0.028565,0.933242
749,-33.508812,-32.959487,-1.159686,0.630991,0.070924,1.278828
750,-35.339895,-4.089418,-4.699779,0.036622,0.011353,1.181415
751,-53.345541,-10.498207,-0.610361,-0.170535,-0.109255,1.088396
752,-13.305867,-15.136950,-6.408789,0.219486,-0.020752,1.082780
753,-31.677729,-3.845274,-1.098650,0.014038,-0.083375,1.093156
754,-20.202945,-6.164645,1.037613,0.000122,-0.101076,1.089616
755,-6.103609,-5.798428,-0.305180,0.077150,0.002808,0.969375
756,-22.644388,-2.990768,2.197299,0.056764,-0.035767,1.023087
757,-17.517357,-2.197299,2.197299,0.045411,-0.061769,1.062394
758,-12.817578,-0.427253,2.380407,0.080201,-0.043702,1.014420
759,-15.930419,3.845274,1.159686,0.157839,-0.085817,0.779431
760,-10.681315,2.380407,2.319371,0.024537,-0.080812,1.080949
761,-15.747311,-0.915541,3.540093,-0.011231,-0.077882,0.943130
762,-14.282444,-3.784237,3.112840,0.014282,-0.067994,1.002090
763,-11.963073,-5.493248,3.112840,0.014649,-0.055055,1.020523
764,-9.887846,-7.141222,2.685588,0.032227,-0.066773,1.017838
765,-8.911269,-7.446403,2.380407,0.028565,-0.061891,1.020035
766,-6.958114,-7.385367,2.197299,0.037964,-0.055299,1.017838
767,-7.019150,-7.507439,1.709010,0.037964,-0.056764,1.029557
768,-6.713970,-6.713970,1.525902,0.041871,-0.067262,1.019791
769,-5.493248,-6.042573,1.159686,0.041627,-0.051514,1.008438
770,-6.469825,-5.249104,1.159686,0.043458,-0.064088,1.012467
771,-5.004959,-4.150454,1.403830,0.045777,-0.062379,1.001724
772,-5.737392,-3.540093,1.525902,0.030152,-0.061646,0.994766
773,-6.225681,-4.089418,1.525902,0.028077,-0.056764,0.983658
774,-6.225681,-4.211490,1.342794,0.039918,-0.060548,1.003799
775,-7.202258,-4.028382,1.403830,0.032349,-0.065919,1.000259
776,-7.263294,-4.272526,1.342794,0.027710,-0.056519,0.981460
777,-8.850233,-5.004959,1.342794,0.037720,-0.034302,0.961440
778,-13.794156,-6.286717,1.342794,0.037354,-0.033692,0.971572
779,-16.968032,-7.141222,0.976577,0.046265,-0.055055,0.973159
780,-20.141909,-7.568475,1.220722,0.039307,-0.066407,0.986099
781,-22.278172,-7.202258,1.403830,0.067384,-0.079591,0.975479
782,-23.376822,-6.347753,1.403830,0.062745,-0.090089,1.033463
783,-22.522316,-4.272526,0.427253,0.055299,-0.138430,1.073381
784,-20.141909,-2.929732,1.709010,0.081422,-0.117189,1.045548
785,-16.235599,-1.037613,2.014191,0.055299,-0.105959,1.020523
786,-13.733120,0.122072,2.380407,0.061769,-0.089967,1.012833
787,-14.221408,0.793469,2.502480,0.043580,-0.087404,0.998672
788,-14.221408,0.427253,2.319371,0.048341,-0.080201,0.989883
789,-16.906996,-0.244144,1.892119,0.028321,-0.084108,0.964981
790,-19.958801,-1.403830,1.647974,0.036622,-0.070069,0.961318
791,-22.644388,-2.380407,1.525902,0.038087,-0.098390,0.972793
792,-29.419394,-3.051804,1.647974,0.026368,-0.081056,0.964614
793,-29.480430,-4.211490,1.709010,0.043702,-0.052857,0.923598
794,-36.987869,-6.775006,1.770047,0.044068,-0.072633,1.061784
795,-42.114900,-1.709010,1.403830,0.081788,-0.142702,0.974746
796,-36.072328,2.136263,3.784237,0.111330,-0.110719,1.014908
797,-45.960174,6.897078,10.193027,0.058839,-0.156252,1.052262
798,-41.321431,10.437171,12.390326,0.064698,-0.166751,0.982925
799,-40.283818,12.817578,14.953841,0.057374,-0.130983,0.989761
800,-50.049592,13.122759,16.113527,0.013550,-0.143313,1.001358
801,-47.730220,11.352712,14.404517,-0.004761,-0.140871,1.020035
802,-48.767834,12.329290,10.498207,-0.001831,-0.139040,0.974502
803,-51.392386,12.695506,8.056764,0.060792,-0.206546,0.880018
804,-54.932479,10.803388,1.464866,-0.080446,-0.252811,1.062028
805,-53.833829,3.295949,-11.902037,0.008423,-0.251591,1.040421
806,-43.213550,-0.488289,-15.320058,0.062745,-0.301274,1.031754
807,-27.710384,-1.831083,-13.366903,0.062867,-0.276860,1.073259
808,-22.949569,-1.098650,-11.413748,0.067018,-0.244755,1.066911
809,-28.625925,2.197299,-9.277485,0.095338,-0.167971,1.071305
810,-39.856565,9.094377,-9.582666,0.016480,0.079713,0.891249
811,-73.060197,13.122759,-16.968032,0.126223,0.049805,0.960586
812,-110.536355,30.090791,-20.263981,-0.033936,0.381964,0.793957
813,-158.144503,23.559930,-31.067369,0.053346,0.100465,0.751598
814,-160.402838,-21.118486,-16.113527,-0.114626,0.712535,1.165057
815,-337.346456,-49.317159,-33.081559,-0.101686,0.901015,1.710597
816,-588.815137,-35.584039,32.288090,-0.525765,0.337896,1.385153
817,-787.426566,-101.441978,83.680476,-0.222782,-0.179690,1.083635
818,-838.757916,-161.318380,77.759976,0.022217,-0.605966,1.004776
819,-863.660639,-169.436179,99.061570,0.566293,-1.134295,1.431418
820,-1086.930648,-162.417029,224.490730,-0.189456,-1.229145,1.999969
821,-189.944305,-136.659800,6.042573,0.098878,-1.416159,1.999969
822,347.966735,-25.452049,-42.725261,0.266239,1.198749,1.999969
823,277.042802,15.869383,-84.229801,-0.023072,0.925185,1.999969
824,97.291524,-13.061723,-33.447776,-0.487556,0.880507,0.920058
825,20.263981,-39.978637,-42.847333,-0.401617,0.283574,0.439582
826,126.649882,-8.850233,-16.052491,-0.411139,0.194827,0.225711
827,147.768368,-4.577707,-17.029068,-0.333135,0.278569,-0.063844
828,88.624399,-8.606088,-5.493248,-0.243656,0.255863,0.182986
829,83.558404,-9.948882,-1.586938,-0.195560,0.200443,0.545052
830,125.429160,-9.155413,-5.188067,-0.118044,0.297978,0.719371
831,138.246738,-9.582666,-8.117800,-0.084840,0.377813,0.872816
832,145.693141,-6.469825,-12.451362,-0.040040,0.322637,1.081193
833,177.553979,4.272526,-19.470512,-0.044190,0.285649,1.239643
834,206.057832,12.512398,-24.780652,-0.087404,0.230716,1.296773
835,228.397040,18.066682,-26.794842,-0.121096,0.131960,1.305440
836,251.407645,24.353399,-26.550698,-0.161013,0.043580,1.298726
837,270.878157,31.067369,-23.620966,-0.164309,-0.018677,1.277974
838,285.465782,37.354086,-19.714656,-0.118166,-0.102785,1.218402
839,294.499123,39.368276,-15.197986,-0.060304,-0.166506,1.176410
840,301.091020,34.119173,-12.939651,0.060548,-0.232914,1.108293
841,305.851835,28.931106,-17.334249,0.156985,-0.288579,1.071794
842,301.762417,35.828183,-26.855879,0.216678,-0.384527,0.878553
843,280.399786,56.702525,-40.772107,0.272953,-0.585092,0.744030
844,258.915084,89.662013,-43.762875,0.224125,-0.523079,0.871107
845,226.688029,91.004807,-45.532921,0.150149,-0.462531,1.264179
846,217.959869,75.928893,-43.152514,0.129274,-0.379889,1.687037
847,225.284199,63.294423,-41.931792,0.142336,-0.325933,1.999969
848,225.101091,68.116274,-40.466926,0.130617,-0.415045,1.999969
849,240.543221,82.581827,-39.124132,0.176272,-0.581308,1.999969
850,262.760357,92.591745,-37.903410,0.161868,-0.612314,1.999969
851,266.666667,85.328450,-29.724575,0.111940,-0.647349,1.999969
852,285.404746,72.266728,-23.132677,0.182376,-0.844617,1.999969
853,331.181811,78.553445,-23.743038,0.316655,-0.973281,1.999969
854,329.228656,89.295796,-21.789883,0.372564,-0.958877,1.829252
855,296.269169,87.037461,-19.348440,0.357183,-1.034928,1.769680
856,278.995956,78.614481,-19.348440,0.237430,-1.159197,1.918853
857,271.488518,69.703212,-20.996414,0.109499,-1.390036,1.920439
858,258.487831,68.543526,-24.597543,0.091554,-1.782864,1.790677
859,231.876097,85.999847,-30.579080,0.359991,-2.000031,1.621851
860,181.521324,128.053712,-46.814679,0.662119,-2.000031,1.294453
861,159.670405,203.189136,-68.787671,0.732677,-2.000031,0.313848
862,185.976959,243.533989,-67.994202,0.495735,-2.000031,-1.113054
863,102.052338,153.505760,-38.818952,0.154177,-2.000031,-1.993439
864,-26.428626,-17.395285,15.442130,0.167971,-1.999786,-1.305318
865,-118.837263,-147.035935,48.401617,0.348516,-1.536767,0.153079
866,-155.580987,-210.025177,31.494621,0.766735,-1.467796,-0.883192
867,-214.847028,-191.531243,29.846647,0.344732,-0.360357,1.405539
868,-170.046540,-178.835737,15.503166,-0.362310,0.058350,1.999969
869,-107.545586,-123.842222,30.884260,-0.599130,1.081315,1.999969
870,-145.571069,-81.483177,34.485389,-0.908217,0.225711,-0.082887
871,-256.107424,-94.300755,68.970779,-0.406744,-0.162112,-1.081682
872,-387.151904,-122.255283,93.568322,0.512215,-0.372198,1.118669
873,-433.844511,-67.872129,100.038148,1.673121,-0.430426,1.999969
874,-261.783780,-7.507439,37.476158,1.999969,-0.605722,1.999969
875,-107.789731,31.311513,-11.413748,0.978408,-0.284428,1.999969
876,-168.093385,2.075227,0.122072,-0.987930,-0.578622,1.999969
877,-50.598917,-31.372549,25.635157,-1.354879,-0.566781,1.371115
878,25.024796,-79.407950,21.179522,0.367071,0.360235,1.369284
879,-58.777752,-52.613108,11.596857,1.472435,0.137942,1.454978
880,-64.393072,11.352712,12.878614,-0.246098,-0.030762,1.264424
881,-56.397345,-21.118486,10.070954,-0.724376,-0.140627,1.001846
882,-27.954528,-51.148241,3.723201,0.319707,0.055543,1.174334
883,-32.349126,-33.875029,-1.647974,0.225589,0.057130,1.196063
884,-53.284504,-27.710384,0.427253,-0.136233,-0.136477,1.153582
885,-14.465553,-33.020523,-4.455634,0.075074,-0.004273,1.077531
886,-21.667811,-23.071641,-3.479057,0.156374,0.006226,1.066789
887,-43.274586,-15.259022,2.441444,-0.012818,-0.102296,1.186175
888,-9.765774,-9.826810,0.488289,0.148684,-0.041138,1.081926
889,-15.075914,-0.732433,1.464866,0.082277,0.019165,1.003799
890,-29.907683,2.624552,3.906310,0.083864,-0.078248,1.100359
891,-13.305867,7.324331,2.929732,0.103151,-0.071046,1.092546
892,-13.550011,11.657893,4.089418,0.068849,-0.062989,1.062516
893,-11.413748,12.573434,4.760815,0.035157,-0.075929,1.065812
894,-4.089418,12.573434,3.784237,0.004639,-0.051148,1.019303
895,-4.211490,10.559243,3.051804,-0.010254,-0.014282,0.987686
896,-7.812619,7.995727,3.112840,0.006836,-0.036378,0.979019
897,-6.164645,6.408789,2.380407,0.006714,-0.051270,0.997574
898,-7.507439,5.310140,2.136263,0.010864,-0.060548,0.997574
899,-6.530861,4.638743,2.075227,0.027100,-0.061891,1.018326
900,-4.272526,4.638743,2.075227,0.015137,-0.055543,1.000015
901,-3.601129,3.601129,1.892119,0.009766,-0.043091,0.978897
902,-5.798428,2.380407,1.647974,0.019898,-0.050538,0.990738
903,-6.103609,1.953155,1.464866,0.017578,-0.058961,0.994644
904,-7.385367,4.333562,-1.037613,0.156130,-0.262577,0.589242
905,-5.981537,2.990768,1.098650,-0.022705,0.017700,1.124895
906,-13.611048,1.586938,1.709010,0.019776,-0.055177,0.953506
907,-13.977264,1.464866,1.709010,0.020752,-0.060670,0.960586
908,-15.991455,1.709010,2.014191,-0.003052,-0.044800,0.981704
909,-20.630198,0.427253,2.441444,0.018677,-0.074586,0.998550
910,-19.409476,-0.305180,2.197299,0.008911,-0.085817,1.012833
911,-17.944610,-0.854505,2.136263,0.013550,-0.090089,1.030045
912,-16.418708,-1.098650,2.075227,0.004761,-0.099977,1.029557
913,-12.451362,-1.770047,1.647974,0.006104,-0.093385,1.023331
914,-11.047532,-2.380407,1.220722,0.005737,-0.089845,1.010513
915,-9.338521,-3.662165,0.915541,-0.011353,-0.068360,0.964004
916,-13.488975,-5.371176,0.793469,0.021851,-0.061646,0.984878
917,-18.066682,-5.920500,0.549325,0.011841,-0.098146,0.994522
918,-15.259022,-6.286717,0.000000,0.027222,-0.087160,0.998184
919,-17.822538,-5.798428,0.488289,0.022827,-0.097169,1.011734
920,-17.517357,-4.882887,0.732433,0.036255,-0.093141,1.028214
921,-15.686275,-3.601129,0.915541,0.033448,-0.097658,1.033585
922,-16.052491,-2.441444,1.403830,0.019654,-0.119509,1.016373
923,-14.099336,-2.746624,1.342794,0.013428,-0.103639,0.985733
924,-13.183795,-4.150454,0.671397,-0.008667,-0.077394,0.958999
925,-17.822538,-6.897078,-0.610361,-0.014405,-0.068360,0.940444
926,-23.376822,-10.193027,-1.770047,-0.009400,-0.064820,0.932876
927,-28.320745,-12.512398,-2.990768,0.007691,-0.067262,0.941421
928,-34.180209,-14.221408,-4.028382,0.033082,-0.095338,0.985611
929,-40.283818,-13.672084,-3.418021,0.044190,-0.118166,0.977676
930,-42.236973,-11.841001,-0.244144,0.004028,-0.164187,1.008438
931,-42.969406,-7.751583,3.601129,0.130373,-0.188479,1.143084
932,-33.691920,-0.427253,6.591897,0.033570,-0.183963,1.065934
933,-27.344167,0.976577,7.141222,0.060548,-0.160525,1.006607
934,-29.175250,2.624552,8.850233,0.009155,-0.115114,1.017594
935,-34.546426,1.403830,7.568475,0.026246,-0.119875,0.970474
936,-39.612421,2.014191,6.836042,0.004150,-0.104860,0.981460
937,-42.908370,0.610361,4.699779,0.008179,-0.122194,0.981582
938,-51.209277,2.136263,3.051804,-0.006226,-0.109010,1.001968
939,-59.143969,5.310140,-0.610361,-0.072633,-0.154910,1.123796
940,-64.759289,-0.610361,-9.399557,-0.018433,-0.229252,1.040177
941,-51.453422,-2.868696,-14.770733,0.069825,-0.336431,1.012833
942,-26.733806,-4.821851,-13.061723,0.031006,-0.280766,1.051408
943,-22.339208,-5.798428,-14.282444,0.135378,-0.205814,1.055314
944,-32.410163,0.366217,-7.568475,0.118410,-0.069337,0.991958
945,-50.843061,10.193027,-10.681315,0.067140,0.123903,0.971084
946,-97.291524,21.545739,-18.493935,0.107057,0.229007,0.857313
947,-130.373083,25.268940,-25.696193,0.036133,0.228275,0.746715
948,-155.947204,0.610361,-21.545739,-0.016358,0.387091,0.673960
949,-227.542535,-31.921874,-49.805447,-0.028931,0.549325,1.033585
950,-440.314336,-33.752956,-39.124132,0.052247,0.340093,1.680201
951,-619.211109,-75.135424,36.804761,-0.647715,0.195193,1.169451
952,-742.442969,-155.642023,12.085145,-0.173831,-0.430426,1.070451
953,-743.907836,-158.999008,49.683375,0.241703,-0.442634,0.936538
954,-808.545052,-157.473106,71.839475,0.316289,-1.134539,1.185565
955,-971.999695,-139.162280,197.878996,-0.164187,-1.436545,1.999969
956,-300.236515,-150.576028,21.118486,-0.041016,-1.249897,1.999969
957,229.617762,-85.023270,-37.720302,0.421881,1.231098,1.999969
958,216.556039,-16.174563,-86.610208,0.118776,1.243549,1.999969
959,58.289464,5.127031,-52.368963,-0.362188,0.996353,1.999969
960,30.823224,-4.028382,-56.275273,-0.497932,0.239872,1.595605
961,187.258717,37.415122,-41.565576,-0.573495,-0.006226,0.823011
962,240.787366,37.964446,-35.645075,-0.570077,0.190433,0.111330
963,172.304875,29.175250,-10.498207,-0.462654,0.009644,0.040406
964,126.771954,23.620966,16.845960,-0.448371,-0.061524,0.331304
965,154.543374,17.212177,27.466239,-0.307744,-0.058595,0.585092
966,183.718624,16.235599,31.921874,-0.139284,0.106447,0.674571
967,173.647669,15.991455,32.898451,-0.003418,0.171511,0.928847
968,184.573129,20.935378,28.015564,0.080934,0.136843,1.148821
969,217.898833,27.832456,18.921187,0.117311,0.134035,1.183612
970,237.003128,31.128405,11.413748,0.142702,0.124636,1.160540
971,247.806516,34.790570,4.577707,0.165774,0.043458,1.139544
972,263.187610,40.588998,-1.098650,0.177859,-0.008911,1.175799
973,273.807889,44.678416,-6.042573,0.172854,-0.106691,1.177874
974,281.986725,45.044633,-8.545052,0.240116,-0.162966,1.245747
975,281.132219,41.077287,-16.357671,0.374151,-0.295293,1.399802
976,290.897993,48.767834,-27.344167,0.325444,-0.441169,1.430076
977,302.861067,50.965133,-36.804761,0.282963,-0.533211,1.412863
978,298.527504,49.195087,-41.504540,0.261112,-0.585824,1.435935
979,289.311055,46.082246,-44.983597,0.219974,-0.704967,1.491844
980,286.930648,46.692607,-46.936751,0.128786,-0.778210,1.547875
981,283.634699,41.443503,-46.509499,0.034791,-0.800549,1.556054
982,278.812848,40.955215,-43.945983,-0.035401,-0.788098,1.549218
983,269.718471,44.922560,-41.138323,-0.064088,-0.755993,1.540917
984,259.342336,55.603876,-38.086519,-0.047852,-0.692393,1.541894
985,245.975433,66.773480,-34.607462,-0.000244,-0.639414,1.632105
986,232.608530,73.365377,-30.151827,0.084230,-0.620249,1.823026
987,229.861906,76.417182,-26.306554,0.176028,-0.618906,1.999969
988,232.547494,75.318532,-24.658579,0.255009,-0.646006,1.999969
989,240.970474,75.196460,-25.024796,0.274418,-0.702403,1.999969
990,246.585794,75.196460,-25.207904,0.236942,-0.751476,1.845853
991,241.458763,70.923934,-23.376822,0.181521,-0.803357,1.631373
992,230.472267,59.998474,-21.911955,0.143435,-0.875257,1.442405
993,211.612116,49.683375,-22.705425,0.203616,-1.015030,1.387961
994,187.869078,50.354772,-29.785611,0.333623,-1.280903,1.363424
995,164.553292,63.233387,-44.983597,0.500130,-1.655787,1.415183
996,136.049439,92.774853,-66.773480,0.667124,-2.000031,1.454490
997,121.156634,140.383001,-85.206378,0.511727,-2.000031,1.188861
998,130.189975,175.234607,-82.459754,0.156497,-2.000031,0.211063
999,117.372396,147.829404,-52.429999,-0.061280,-2.000031,-0.921401
1000,39.917601,53.833829,-6.530861,-0.266117,-2.000031,-1.527733
1001,-121.889067,-115.785458,31.738766,0.094728,-2.000031,-2.000031
1002,-297.795071,-240.482185,67.444877,1.307637,-1.573999,-0.585214
1003,-224.734875,-178.591592,43.457694,0.955337,-0.326177,1.757717
1004,-116.395819,-138.429847,12.634470,-0.188479,1.114275,1.999969
1005,-144.411383,-141.115435,10.742351,-0.675914,1.018814,1.999969
1006,-249.088273,-102.601663,41.016251,-0.605112,-0.011353,-0.099977
1007,-301.457237,-104.859998,56.397345,-0.161990,-0.562509,-0.157717
1008,-338.933394,-93.995575,77.271687,1.124529,-0.218265,1.999969
1009,-324.834058,-71.534295,51.209277,1.799100,-0.247684,1.999969
1010,-157.595178,2.746624,-1.586938,0.700572,-0.628183,1.999969
1011,-105.592432,-20.996414,8.056764,-1.293599,-0.228153,1.999969
1012,-112.001221,-66.346227,37.537194,-1.177630,-0.393927,1.669093
1013,-57.129778,-124.879835,22.278172,1.346944,0.108644,1.999969
1014,-16.784924,-33.447776,-7.873655,1.660426,-0.161257,1.615381
1015,-18.249790,36.438544,-5.249104,-0.634897,0.073121,0.967788
1016,-72.999161,-11.413748,10.620279,-0.405768,-0.056641,0.924208
1017,-35.645075,-17.761501,-1.159686,0.656382,0.003906,1.632837
1018,-20.630198,10.131991,-4.882887,-0.089723,-0.072999,1.022110
1019,-23.254749,-3.234913,-1.403830,-0.109743,-0.017456,1.011246
1020,-20.263981,-4.150454,-1.953155,0.195804,-0.057252,1.116228
1021,-19.165332,4.638743,0.976577,-0.030762,-0.052247,1.064958
1022,-13.855192,3.356985,2.685588,0.059693,-0.065431,1.108293
1023,-3.479057,7.324331,2.014191,0.027710,-0.011841,0.992569
1024,-5.249104,7.080186,2.990768,-0.020630,0.019043,0.953140
1025,-15.197986,5.310140,3.234913,0.038087,-0.021363,1.022477
1026,-13.305867,7.751583,3.051804,0.050050,-0.049195,1.062150
1027,-10.559243,11.108568,3.601129,0.042969,-0.030396,1.038834
1028,-12.207218,13.366903,4.760815,-0.001099,-0.043214,0.996597
1029,-11.779965,12.451362,4.943923,-0.025635,-0.021973,0.970962
1030,-14.160372,10.559243,5.249104,-0.021241,-0.031495,0.975479
1031,-15.625238,8.545052,4.943923,-0.020996,-0.050416,0.990616
1032,-13.733120,6.286717,4.394598,-0.026123,-0.040650,1.004288
1033,-12.512398,4.394598,3.662165,-0.021851,-0.042603,0.991226
1034,-12.207218,2.258335,3.051804,-0.019776,-0.052613,0.971572
1035,-11.535821,-0.061036,2.136263,-0.020996,-0.044556,0.987686
1036,-12.024109,-1.647974,1.464866,-0.121584,0.036011,1.252216
1037,-9.216449,-3.906310,1.037613,0.105470,-0.124880,0.791760
1038,-14.404517,-3.234913,0.122072,-0.021607,-0.076783,0.949599
1039,-11.779965,-2.929732,0.976577,-0.020508,-0.057130,1.015152
1040,-11.657893,-3.967346,0.854505,-0.027466,-0.038453,0.977798
1041,-15.259022,-5.981537,0.854505,-0.012451,-0.051514,0.990494
1042,-15.442130,-6.713970,1.037613,-0.014405,-0.075196,0.998672
1043,-14.099336,-7.385367,1.220722,-0.027466,-0.075319,0.992081
1044,-13.427939,-7.934691,-1.159686,-0.069093,-0.150393,0.966079
1045,-9.216449,-9.704738,1.342794,-0.003784,-0.048463,0.990005
1046,-14.831769,-10.376135,0.488289,0.001953,-0.070314,1.035904
1047,-12.939651,-10.009918,0.122072,0.007080,-0.096437,0.997086
1048,-11.535821,-8.728161,0.488289,-0.006226,-0.083131,1.015396
1049,-12.207218,-6.897078,1.342794,0.033204,-0.075807,1.010880
1050,-14.404517,-5.493248,2.014191,-0.001221,-0.074830,0.984756
1051,-18.249790,-5.981537,2.685588,0.022095,-0.076051,0.991714
1052,-20.325017,-5.798428,3.234913,0.012696,-0.099611,1.042741
1053,-18.982223,-4.821851,3.601129,0.031861,-0.117189,1.035050
1054,-14.038300,-3.112840,3.723201,0.019532,-0.108888,1.028336
1055,-13.183795,-2.563516,4.089418,0.027222,-0.108644,1.023453
1056,-11.718929,-2.075227,4.028382,0.006836,-0.102419,1.024796
1057,-10.376135,-1.831083,3.479057,0.033082,-0.091310,1.010513
1058,-11.352712,-0.976577,3.540093,0.036622,-0.086183,1.000870
1059,-14.160372,0.366217,4.394598,0.018067,-0.090455,0.995743
1060,-14.648661,0.671397,4.699779,0.019776,-0.085206,0.963882
1061,-20.141909,0.854505,5.798428,0.005982,-0.067750,0.964981
1062,-25.085832,-0.366217,5.920500,-0.004517,-0.067140,0.945693
1063,-30.029755,-2.014191,5.249104,-0.003906,-0.064210,0.930800
1064,-40.039673,-4.089418,5.432212,-0.044312,-0.090333,0.979385
1065,-42.481117,-6.042573,5.798428,0.041993,-0.125734,1.023697
1066,-42.786297,-3.601129,6.958114,0.002319,-0.181888,0.987808
1067,-36.438544,-3.723201,7.690547,0.026490,-0.161135,1.048234
1068,-34.546426,-1.525902,9.399557,-0.009400,-0.169192,0.990372
1069,-34.668498,-3.173877,9.826810,0.010864,-0.126101,1.002945
1070,-32.654307,-1.098650,8.361944,0.006470,-0.126589,1.024796
1071,-31.189441,-2.990768,5.371176,-0.076539,-0.137331,1.118791
1072,-33.691920,0.366217,2.441444,0.044312,-0.187015,0.872694
1073,-43.152514,-2.014191,2.075227,-0.038209,-0.106447,1.005020
1074,-59.143969,-4.028382,-5.371176,-0.040040,-0.166262,1.046159
1075,-62.195773,-4.577707,-11.779965,0.020020,-0.215457,1.011734
1076,-49.683375,-1.770047,-12.512398,0.035157,-0.287358,1.084245
1077,-32.959487,-1.342794,-8.850233,0.007935,-0.233402,1.161639
1078,-23.620966,4.089418,-7.080186,0.043702,-0.211307,0.875502
1079,-57.434958,-3.479057,-14.038300,-0.037598,-0.068849,1.028214
1080,-64.209964,-5.981537,-21.728847,0.111086,0.092775,0.795178
1081,-86.060884,7.324331,-19.592584,-0.006958,0.130007,0.885023
1082,-138.673991,15.564202,-26.672770,0.018799,0.209842,0.828992
1083,-182.009613,6.225681,-16.296635,0.163455,0.433722,1.164446
1084,-281.315328,-16.906996,-42.236973,0.126833,0.790295,0.991836
1085,-526.924544,-5.859464,-9.338521,-0.036500,0.447883,1.376364
1086,-718.760967,-2.197299,48.950942,-0.368536,0.098878,1.109636
1087,-786.266880,-54.810407,53.467613,-0.069459,-0.654917,1.173358
1088,-802.685588,-95.460441,62.073701,-0.349981,-0.686290,0.534188
1089,-922.438392,-156.008240,105.714504,0.200443,-2.000031,1.999969
1090,-764.049744,-150.392920,187.441825,-1.060441,-0.814221,1.999969
1091,-57.923247,-194.888228,6.225681,0.086183,-0.333013,1.999969
1092,131.898985,-130.495155,0.854505,0.440436,1.594018,1.999969
1093,43.396658,-46.936751,-10.803388,0.490730,1.328389,1.999969
1094,-20.019837,-1.770047,-23.315785,-0.134035,0.636240,1.999969
1095,153.505760,40.650034,-40.894179,-0.191043,0.123903,1.720851
1096,251.163500,45.471885,-51.575494,-0.359625,0.333867,0.415167
1097,199.038682,21.850919,-44.007019,-0.371344,0.000977,-0.043824
1098,141.908904,14.221408,-6.408789,-0.323369,0.061524,-0.072633
1099,135.561151,-1.220722,2.563516,-0.239750,-0.036255,0.212528
1100,161.867704,-8.545052,7.385367,-0.169924,0.129397,0.446174
1101,155.153735,-20.202945,10.620279,-0.103639,0.235721,0.806043
1102,160.646983,-23.315785,10.742351,-0.063722,0.242802,1.184955
1103,195.803769,-18.249790,4.821851,-0.023804,0.226444,1.323140
1104,228.458076,-10.620279,-1.709010,-0.032471,0.200931,1.245991
1105,245.181964,-6.164645,-6.286717,-0.049561,0.119753,1.122454
1106,260.013733,-3.479057,-9.338521,-0.062501,0.039063,1.079973
1107,275.455863,-0.915541,-12.329290,-0.060548,-0.028443,1.052384
1108,284.794385,3.662165,-14.526589,-0.047730,-0.086549,1.059464
1109,290.714885,10.254063,-16.235599,-0.005005,-0.113649,1.138079
1110,296.269169,14.221408,-18.493935,0.037598,-0.146853,1.263081
1111,305.607691,14.404517,-23.804074,0.080934,-0.188357,1.361471
1112,310.124361,21.484703,-34.607462,0.079347,-0.416144,1.171893
1113,304.203861,50.904097,-46.326390,0.172244,-0.728771,0.672129
1114,290.653849,79.957275,-43.884947,0.186893,-0.563607,0.468635
1115,240.909438,59.937438,-48.828870,0.343999,-0.429694,0.750256
1116,221.072709,40.527962,-57.251850,0.391608,-0.331426,1.303365
1117,216.983291,45.410849,-69.642176,0.297246,-0.198978,1.999969
1118,205.508507,66.956588,-75.257496,0.141604,-0.342412,1.999969
1119,231.448844,77.088579,-75.196460,-0.004639,-0.548836,1.999969
1120,287.907225,77.698940,-74.891279,-0.140017,-0.746960,1.999969
1121,313.237202,68.177310,-63.355459,-0.204593,-0.806409,1.999969
1122,310.490578,59.998474,-54.261082,-0.150637,-1.093767,1.993317
1123,307.133593,80.506600,-44.495308,-0.129763,-1.116716,1.836210
1124,276.371405,90.150301,-33.752956,0.038941,-1.080827,1.999969
1125,270.450904,86.976425,-28.747997,0.310430,-1.133440,1.999969
1126,282.475013,88.685435,-33.508812,0.504768,-1.275166,1.999969
1127,271.366445,94.972152,-36.133364,0.557748,-1.461692,1.703639
1128,243.106737,85.938811,-31.677729,0.416388,-1.810941,1.419577
1129,220.157168,66.651408,-22.461280,0.396857,-2.000031,1.144915
1130,182.070649,56.153201,-16.540780,0.585580,-2.000031,0.914931
1131,130.617227,61.524376,-23.743038,0.780896,-2.000031,0.564340
1132,112.001221,86.671244,-46.692607,0.703868,-2.000031,-0.241703
1133,110.597391,98.023957,-50.354772,0.397467,-2.000031,-1.118059
1134,7.507439,34.851606,-24.841688,-0.008423,-2.000031,-0.921157
1135,-126.344701,-75.684749,18.554971,-0.356939,-2.000031,-2.000031
1136,-249.576562,-220.767529,68.299382,0.568978,-0.636362,1.381735
1137,-135.011826,-135.744259,30.701152,0.376104,0.074952,1.999969
1138,-68.665599,-41.565576,28.931106,-0.916518,1.399069,1.999969
1139,-116.823072,-93.995575,31.372549,-0.802014,0.257206,-0.436164
1140,-276.127260,-121.339742,62.378882,0.059083,-0.255863,-0.597665
1141,-380.071717,-89.234760,94.422828,0.549325,-0.470466,1.168719
1142,-369.756619,-75.928893,90.028229,1.585351,-0.207523,1.999969
1143,-226.688029,-15.075914,30.762188,1.763943,-0.381231,1.999969
1144,-95.887694,47.669184,-15.747311,0.408209,-0.186526,1.662745
1145,-163.881895,11.352712,13.611048,-1.379538,-0.103395,1.999969
1146,-163.393606,-56.946670,45.838102,-1.135760,-0.870375,1.591455
1147,4.699779,-94.972152,21.301595,1.045182,0.046509,1.999969
1148,-21.850919,-41.870756,2.075227,1.499046,0.137942,1.702419
1149,-40.527962,19.470512,8.056764,-0.560555,-0.007202,0.857923
1150,-45.166705,-23.437858,11.841001,-0.539315,-0.026734,1.014420
1151,-33.997101,-42.725261,1.647974,0.589731,0.062257,1.310811
1152,-28.259709,-12.390326,-3.845274,0.076783,0.015137,0.994522
1153,-44.312200,-15.747311,1.586938,-0.229984,-0.057374,1.144427
1154,-23.743038,-23.498894,-1.464866,0.203372,-0.068727,1.250996
1155,-11.291676,-8.361944,-1.098650,0.109865,-0.030884,1.070817
1156,-16.723888,-3.418021,2.746624,-0.048707,-0.025147,1.029068
1157,-11.291676,-2.685588,2.014191,0.104616,0.002930,1.028214
1158,-16.418708,3.295949,3.051804,0.040284,0.006958,0.987076
1159,-21.057450,3.845274,4.089418,0.004883,-0.028443,1.029068
1160,-17.334249,5.310140,3.601129,0.069459,-0.042603,1.077897
1161,-15.991455,8.178836,4.211490,0.009155,-0.058839,1.052506
1162,-12.512398,7.873655,4.699779,0.012818,-0.040528,1.012955
1163,-11.596857,7.751583,4.699779,-0.007935,-0.022461,1.000992
1164,-13.672084,5.981537,5.004959,-0.015503,-0.049561,1.014908
1165,-10.498207,5.310140,4.699779,0.009033,-0.051881,1.019181
1166,-9.033341,4.943923,4.760815,-0.008301,-0.052003,1.005142
1167,-7.385367,3.479057,4.333562,-0.017212,-0.048951,1.000137
1168,-6.347753,0.915541,3.784237,-0.025635,-0.031739,0.982803
1169,-6.775006,-2.075227,2.868696,-0.035157,-0.042237,0.984146
1170,-5.493248,-5.127031,1.586938,-0.013916,-0.041749,0.989639
1171,-6.103609,-6.713970,0.854505,-0.014038,-0.059449,1.018204
1172,-3.662165,-7.751583,0.549325,-0.003052,-0.062867,1.031754
1173,0.610361,-11.352712,0.244144,0.028077,0.026490,1.044938
1174,-0.732433,-5.371176,0.915541,0.017212,-0.047730,0.915419
1175,-3.173877,-5.432212,1.586938,0.033326,-0.019654,1.052384
1176,-2.685588,-4.455634,1.098650,-0.005982,-0.017212,0.961685
1177,-9.399557,-6.713970,1.525902,0.016602,-0.041016,0.952041
1178,-11.047532,-7.629511,1.586938,-0.006348,-0.045289,1.006485
1179,-8.728161,-8.972305,0.671397,-0.110842,0.031250,1.204730
1180,-7.751583,-12.146181,0.976577,0.134401,-0.096803,0.794079
1181,-10.498207,-11.779965,-0.305180,-0.012696,-0.064210,0.973892
1182,-7.934691,-12.024109,-0.549325,0.034180,-0.065064,1.044450
1183,-6.591897,-10.986496,-0.732433,0.042481,-0.067628,1.041886
1184,-5.004959,-9.216449,-0.610361,0.048829,-0.080690,1.022232
1185,-2.075227,-7.141222,-0.244144,0.026856,-0.063600,1.011368
1186,-4.028382,-6.469825,0.244144,0.028199,-0.063844,1.007584
1187,-2.441444,-5.737392,0.549325,0.037598,-0.058228,1.000015
1188,-4.760815,-4.211490,0.854505,-0.021607,0.066163,1.253681
1189,-3.540093,-2.868696,1.709010,0.053346,-0.062623,1.047623
1190,-6.225681,-3.845274,1.892119,0.016724,-0.054810,0.910292
1191,-10.437171,-4.821851,2.685588,0.020874,-0.006836,0.913832
1192,-18.005646,-7.385367,2.502480,0.005249,-0.003418,0.916274
1193,-30.762188,-9.948882,2.685588,0.032471,-0.039918,0.981216
1194,-31.372549,-8.911269,2.563516,0.038209,-0.062013,0.993545
1195,-33.386740,-7.202258,3.234913,0.033082,-0.074342,1.045792
1196,-33.020523,-6.469825,3.906310,0.044556,-0.106325,1.037003
1197,-25.452049,-4.943923,3.906310,0.030274,-0.065309,0.990616
1198,-28.442817,-4.516670,4.760815,0.035157,-0.060182,0.960220
1199,-39.673457,-3.784237,6.347753,0.042847,-0.094606,1.008194
1200,-34.851606,-2.136263,8.056764,0.089723,-0.053834,0.977554
1201,-37.964446,3.173877,10.498207,-0.007202,-0.039429,0.937026
1202,-53.345541,0.793469,11.596857,0.081910,-0.084108,0.995010
1203,-51.331350,3.723201,12.268254,0.009400,-0.094728,0.979995
1204,-55.115587,5.859464,11.047532,0.099855,-0.131228,1.115862
1205,-52.796216,10.681315,11.963073,-0.008423,-0.174685,0.986343
1206,-44.983597,8.789197,9.704738,0.021241,-0.044190,0.985855
1207,-55.725948,10.864424,7.934691,-0.037476,-0.098756,0.955703
1208,-78.919661,9.887846,7.141222,-0.050782,-0.086549,0.970596
1209,-96.742199,6.897078,-7.202258,-0.001709,-0.188235,1.005631
1210,-82.825971,4.516670,-9.887846,-0.008423,-0.332403,1.067399
1211,-64.393072,-2.014191,-11.657893,-0.015625,-0.168338,1.426780
1212,-49.317159,-6.652934,-15.869383,-0.103395,-0.007691,1.204730
1213,-49.561303,2.624552,-16.906996,0.097292,-0.008667,0.886732
1214,-97.230488,11.657893,-11.841001,0.006836,0.314336,0.802747
1215,-152.773327,18.188754,-23.987182,0.053468,0.083986,0.703258
1216,-181.643397,0.061036,-6.775006,-0.183841,0.348882,0.880018
1217,-274.113069,-35.889220,-27.771420,-0.096803,0.811292,1.443626
1218,-540.352483,-15.930419,2.868696,0.122072,0.091188,1.161028
1219,-736.095216,-24.353399,59.449149,-0.181277,-0.017212,1.324483
1220,-753.978790,-69.520104,40.588998,-0.172366,-0.417609,1.412131
1221,-791.577020,-104.615854,42.236973,-0.171878,-0.357794,0.664439
1222,-989.272908,-104.188602,134.523537,-0.017823,-2.000031,1.999969
1223,-554.268711,-71.412222,131.288624,-1.291035,-1.096208,1.999969
1224,203.311208,-48.096437,-11.169604,-0.418219,0.659068,1.999969
1225,254.276341,10.193027,-19.958801,-0.414069,1.380026,1.999969
1226,120.241093,3.418021,23.498894,-0.402106,1.013077,1.528466
1227,7.446403,-21.484703,28.992142,-0.379156,0.312993,0.720592
1228,111.696040,-6.286717,35.523003,-0.137575,0.142702,0.402838
1229,157.595178,-8.789197,21.789883,-0.092042,0.328130,0.000000
1230,94.300755,-20.447089,21.179522,0.061891,0.287968,0.221195
1231,77.882048,-18.738079,16.174563,0.130251,0.246342,0.587900
1232,123.048753,-11.841001,0.000000,0.166140,0.321172,0.840223
1233,139.528496,-9.277485,-12.146181,0.163943,0.424567,0.997330
1234,146.669718,-10.315099,-21.728847,0.124147,0.369512,1.238178
1235,180.483711,-7.141222,-31.311513,0.067384,0.308598,1.330343
1236,214.358740,-0.488289,-38.086519,0.015747,0.258549,1.266133
1237,230.350195,7.629511,-40.772107,-0.027588,0.166506,1.193256
1238,247.623407,16.540780,-40.772107,-0.066285,0.056031,1.185687
1239,264.530404,23.682002,-37.842374,-0.091310,-0.023316,1.221698
1240,278.202487,26.916915,-33.203632,-0.038819,-0.093629,1.227192
1241,292.668040,28.076600,-29.419394,0.023804,-0.141360,1.272236
1242,304.509041,23.987182,-27.710384,0.122683,-0.173465,1.257954
1243,315.861753,19.775692,-30.884260,0.226810,-0.219486,1.196551
1244,319.035630,21.179522,-38.757916,0.272465,-0.339971,0.891005
1245,306.218051,32.104982,-48.828870,0.304204,-0.520150,0.468635
1246,273.868925,50.354772,-51.758602,0.252689,-0.508186,0.495735
1247,234.805829,56.031128,-52.063783,0.147707,-0.445930,0.834241
1248,218.326085,52.857252,-50.598917,0.059571,-0.306035,1.511864
1249,211.917296,53.223468,-46.204318,0.008057,-0.206546,1.999969
1250,217.532616,61.707485,-38.941024,-0.024048,-0.329717,1.999969
1251,253.116655,72.632944,-33.325704,-0.060792,-0.538094,1.999969
1252,297.062638,79.102770,-26.916915,-0.070436,-0.652110,1.999969
1253,296.940566,71.351186,-14.282444,-0.084108,-0.673472,1.999969
1254,297.184710,51.819638,-2.319371,-0.012207,-0.795666,1.999969
1255,331.181811,45.349813,-3.906310,0.172732,-0.957656,1.999969
1256,342.412451,62.439918,-9.643702,0.307500,-0.911391,1.879911
1257,305.729763,66.651408,-15.014878,0.266850,-0.962539,1.844999
1258,294.560159,60.914015,-20.691234,0.221073,-1.074846,1.959991
1259,291.813535,59.327077,-24.536507,0.062135,-1.245747,1.871244
1260,267.399100,61.341268,-23.437858,-0.046876,-1.595727,1.616724
1261,239.200427,73.792630,-21.911955,0.099611,-2.000031,1.394308
1262,191.592279,98.146029,-29.968719,0.496468,-2.000031,1.205097
1263,144.289311,148.073548,-52.491035,0.820935,-2.000031,0.795056
1264,135.866331,202.273594,-80.079347,0.714000,-2.000031,-0.136843
1265,123.842222,192.507820,-75.623713,0.384039,-2.000031,-1.201190
1266,20.996414,77.515831,-44.739452,0.006470,-2.000031,-1.298726
1267,-70.923934,-60.547799,0.305180,-0.116213,-1.845731,-0.398810
1268,-107.667659,-141.847868,28.381781,-0.160281,-1.370626,0.634653
1269,-148.500801,-199.160754,5.371176,-0.018067,-0.743786,0.245975
1270,-103.212024,-155.825132,66.895552,-0.469123,1.238300,1.486961
1271,-146.791791,-125.917449,37.293050,-0.925795,0.480964,1.769436
1272,-150.942245,-86.060884,87.342641,-1.083879,0.691295,0.559945
1273,-249.393454,-132.692454,99.000534,-0.282719,-0.145388,-0.279667
1274,-293.705653,-119.203479,115.419242,0.894911,-0.368902,0.463630
1275,-328.557259,-86.488136,120.546273,1.513817,-0.025757,1.999969
1276,-319.401846,-74.525063,84.107729,1.999969,-0.134035,1.999969
1277,-176.394293,-38.513771,23.682002,1.856352,-0.241947,1.999969
1278,-91.554131,-4.272526,-23.559930,0.643687,0.004883,1.865995
1279,-126.649882,15.259022,-19.714656,-0.683116,-0.106569,1.687282
1280,-123.292897,12.939651,12.268254,-1.586938,-0.307866,1.441306
1281,-121.217670,-61.951629,45.044633,-0.902480,-0.324956,1.154437
1282,-86.366064,-102.845808,40.100710,0.970474,0.191653,1.999969
1283,-91.248951,-64.087892,3.356985,1.576806,-0.210819,1.999969
1284,-22.705425,6.225681,2.502480,-0.339971,-0.051637,0.983658
1285,-59.571221,-31.433585,8.300908,-0.666514,-0.003906,1.061173
1286,-60.608835,-60.547799,4.150454,0.512581,-0.059693,1.185443
1287,-31.921874,-23.437858,-5.554284,0.371832,-0.004761,1.356954
1288,-56.214237,-12.451362,4.699779,-0.191043,-0.069215,1.163104
1289,-25.146868,-24.475471,-0.183108,0.091432,-0.049683,1.100603
1290,-18.310826,-16.968032,-1.281758,0.108644,0.028565,1.121843
1291,-36.743725,-11.352712,2.136263,0.053712,-0.116457,1.108904
1292,-13.122759,-7.751583,1.159686,0.101198,-0.054444,1.137469
1293,-8.667124,-3.723201,1.525902,0.089845,-0.017456,1.054704
1294,-14.343481,-1.403830,3.418021,0.085206,-0.041382,1.053727
1295,-7.629511,1.831083,2.502480,0.060548,-0.045533,1.018448
1296,-8.239872,2.990768,2.868696,0.071412,-0.030518,1.014420
1297,-9.887846,3.967346,3.234913,0.034180,-0.025635,1.005875
1298,-7.446403,3.173877,2.380407,0.047852,-0.018311,0.995010
1299,-11.230640,2.746624,2.990768,0.033936,-0.024903,0.983291
1300,-8.361944,1.464866,2.136263,0.010864,-0.108888,0.955093
1301,-9.643702,-0.854505,2.502480,0.028077,-0.005127,1.038102
1302,-10.437171,-1.098650,2.685588,0.052125,0.013184,1.050065
1303,-8.422980,-1.159686,2.868696,0.050782,0.020264,1.047379
1304,-7.141222,-1.709010,2.563516,0.051392,0.022339,1.052018
1305,-5.432212,-1.281758,1.831083,0.064210,-0.126955,0.994766
1306,-2.563516,-0.732433,1.159686,0.030274,-0.024292,1.011002
1307,-2.563516,-1.770047,1.342794,0.045289,-0.052247,0.919326
1308,-7.141222,-3.234913,1.098650,0.017456,-0.017334,0.985611
1309,-9.643702,-4.394598,1.037613,0.016846,-0.006104,0.998795
1310,-11.291676,-5.920500,0.976577,0.037842,-0.083253,0.960830
1311,-12.329290,-6.530861,0.671397,0.023438,-0.033204,0.985367
1312,-14.099336,-7.629511,0.854505,0.046632,-0.041993,0.988785
1313,-13.427939,-7.324331,0.732433,0.065064,-0.070314,0.956802
1314,-12.573434,-7.873655,0.671397,0.029541,-0.042481,0.968154
1315,-18.554971,-9.826810,0.488289,0.053346,-0.054200,0.975235
1316,-19.836728,-9.582666,0.549325,0.065064,-0.074830,1.019913
1317,-16.784924,-9.094377,0.305180,0.065919,-0.075685,1.006607
1318,-15.686275,-7.751583,0.549325,0.077272,-0.072633,1.002701
1319,-16.845960,-6.775006,1.037613,0.061158,-0.077638,1.006363
1320,-16.479744,-6.591897,1.709010,0.067262,-0.077028,1.001236
1321,-19.714656,-5.432212,2.502480,0.051637,-0.068849,0.982681
1322,-22.888533,-5.188067,2.807660,0.079469,-0.079225,1.008438
1323,-22.888533,-3.906310,3.112840,0.047120,-0.068482,0.986831
1324,-23.193713,-4.394598,2.868696,0.076295,-0.053956,0.975967
1325,-26.489662,-2.868696,2.990768,0.051881,-0.052003,0.931289
1326,-34.912642,-4.272526,2.990768,0.081422,-0.066407,1.067521
1327,-35.400931,-0.244144,1.586938,0.057252,-0.118654,0.970108
1328,-32.715343,0.732433,1.831083,0.069215,-0.089967,1.009537
1329,-38.757916,1.098650,2.685588,0.062013,-0.093874,0.960952
1330,-40.344854,0.915541,2.441444,0.062501,-0.135988,1.025528
1331,-41.016251,3.173877,4.699779,0.074708,-0.136721,1.039567
1332,-38.818952,6.103609,7.507439,0.088258,-0.120607,1.041520
1333,-29.968719,9.765774,10.193027,0.116579,-0.113649,1.061418
1334,-47.241932,9.887846,10.193027,0.029053,-0.071046,0.980606
1335,-52.429999,10.803388,7.934691,0.031006,-0.106935,0.983780
1336,-56.763561,10.803388,5.554284,0.069581,-0.126711,0.978897
1337,-61.890593,11.352712,5.676356,0.043946,-0.170169,0.991348
1338,-57.312886,13.916228,4.577707,0.031495,-0.144656,0.998428
1339,-50.232700,12.817578,0.976577,0.007813,-0.187381,1.002945
1340,-56.397345,13.550011,-2.868696,-0.058350,-0.201785,1.011246
1341,-59.082933,7.446403,-14.404517,0.004883,-0.284062,1.032242
1342,-39.734493,1.159686,-24.170291,0.112795,-0.325322,1.162860
1343,0.183108,-1.770047,-17.456321,0.220462,-0.319341,1.087297
1344,-2.380407,6.225681,0.305180,0.125002,0.163210,0.929213
1345,-68.238346,23.376822,-5.004959,0.152956,0.252567,0.942763
1346,-127.870604,41.931792,-5.065995,0.067384,0.182498,0.906996
1347,-179.934386,36.804761,-2.258335,-0.178958,0.304814,0.463874
1348,-181.094072,-13.488975,9.948882,-0.148318,0.680430,0.883070
1349,-289.372091,-28.870069,-3.967346,-0.408209,0.384283,1.902495
1350,-487.861448,-36.133364,43.030442,-0.598886,0.387701,1.204242
1351,-704.356451,-122.682536,50.171664,-0.034913,0.036255,1.390890
1352,-801.647974,-212.466621,51.209277,-0.077394,0.030274,1.361349
1353,-873.792630,-190.676738,-1.342794,0.552987,-0.766491,1.156756
1354,-1082.291905,-108.278019,173.586633,0.252445,-1.056901,1.999969
1355,-278.141451,5.065995,58.472572,-0.563363,-0.506111,1.999969
1356,357.305257,80.018311,-77.821012,-0.032715,0.818372,1.999969
1357,386.480507,74.036774,-112.550546,-0.411383,0.994034,1.520287
1358,169.069963,-15.808347,-66.956588,-0.913100,0.659434,0.478157
1359,5.737392,-27.893492,4.028382,-0.366339,0.159304,-0.314092
1360,32.043946,-24.536507,10.498207,-0.356329,-0.172244,0.064088
1361,136.232548,3.356985,10.620279,-0.213504,0.080690,0.092775
1362,117.311360,20.325017,8.850233,-0.037842,0.310674,0.121340
1363,59.327077,27.161059,12.878614,0.030030,0.297002,0.420050
1364,70.679789,25.574121,9.033341,0.062745,0.336553,0.833265
1365,119.325551,19.958801,0.427253,0.105226,0.374273,1.039689
1366,142.946517,9.277485,-6.286717,0.158572,0.453132,1.256855
1367,156.618601,8.056764,-13.672084,0.173098,0.402960,1.523461
1368,192.690929,18.371862,-23.132677,0.163699,0.298466,1.591821
1369,235.599298,32.349126,-32.288090,0.127077,0.180667,1.432029
1370,256.778820,39.612421,-35.645075,0.083497,0.051759,1.266621
1371,267.521172,38.452735,-34.973678,0.068116,-0.110109,1.089128
1372,281.071183,34.241245,-32.776379,0.050294,-0.212406,0.932143
1373,285.160601,29.114214,-29.907683,0.073732,-0.228885,0.879530
1374,276.737621,27.649348,-27.161059,0.094118,-0.217166,0.967300
1375,272.159915,29.480430,-26.794842,0.165652,-0.218143,1.127459
1376,270.634012,34.485389,-30.334936,0.223392,-0.285405,1.148211
1377,263.797971,43.884947,-35.461967,0.295537,-0.395026,1.163958
1378,254.703594,52.674144,-39.002060,0.307622,-0.401373,1.254902
1379,248.294804,53.284504,-45.166705,0.338262,-0.398810,1.364157
1380,247.074083,55.725948,-52.613108,0.316777,-0.357305,1.470359
1381,235.843442,61.768521,-56.580453,0.272953,-0.353399,1.700954
1382,223.270008,67.933165,-56.885634,0.234257,-0.401862,1.992096
1383,225.955596,64.759289,-53.772793,0.161135,-0.466804,1.999969
1384,240.421149,58.655680,-50.476844,0.113283,-0.529305,1.999969
1385,263.736934,52.979324,-46.204318,0.078370,-0.591806,1.999969
1386,286.442359,48.096437,-43.030442,0.123537,-0.657115,1.999969
1387,301.518273,51.331350,-41.870756,0.161013,-0.744518,1.999969
1388,296.818494,59.266041,-40.344854,0.131960,-0.829480,1.889067
1389,281.254292,63.172351,-36.194400,0.040040,-0.960342,1.787503
1390,268.253605,61.951629,-30.334936,0.016114,-1.097795,1.716579
1391,254.520485,64.148928,-25.513085,0.026246,-1.253559,1.588281
1392,234.927901,71.473259,-23.132677,0.092775,-1.460472,1.404440
1393,205.447471,84.657053,-25.268940,0.353399,-1.746487,1.278828
1394,161.257343,106.935225,-37.354086,0.671641,-2.000031,1.315328
1395,121.583886,150.148775,-57.984283,0.764416,-2.000031,1.204730
1396,123.170825,196.353094,-74.280919,0.567880,-2.000031,0.551156
1397,135.378042,200.503548,-67.750057,0.312139,-2.000031,-0.614267
1398,71.839475,115.602350,-39.429313,0.051881,-2.000031,-1.355123
1399,-21.484703,-10.925460,4.455634,-0.026734,-1.905913,-0.969497
1400,-132.570382,-138.979171,25.146868,-0.082155,-2.000031,-2.000031
1401,-248.722057,-252.689403,67.139696,0.528206,-0.961440,0.027832
1402,-214.969100,-222.659648,57.679103,0.219364,-0.003296,1.794583
1403,-132.021057,-132.326238,53.772793,-0.542733,1.043229,1.999969
1404,-173.769741,-91.004807,67.139696,-0.736461,0.411017,1.093156
1405,-265.629053,-123.231861,89.723049,0.265995,-0.164187,-0.334356
1406,-317.265583,-119.630732,88.746471,1.073136,-0.309087,0.840101
1407,-341.008621,-75.379568,84.046693,1.872343,-0.092409,1.999969
1408,-274.723430,-43.396658,33.142596,1.999969,-0.254765,1.999969
1409,-121.766995,29.358358,-22.095064,0.560433,-0.449592,1.999969
1410,-114.137484,7.507439,0.549325,-1.775784,-0.220829,1.999969
1411,-134.462501,-63.233387,42.786297,-1.159564,-0.460578,1.774441
1412,-25.024796,-108.766308,18.066682,1.354391,0.121950,1.999969
1413,-14.465553,-33.508812,-7.080186,1.290181,-0.116945,1.352682
1414,-49.378195,17.517357,3.540093,-0.665049,-0.058350,0.917250
1415,-72.510872,-29.968719,13.733120,-0.329717,-0.084108,1.151629
1416,-20.691234,-33.997101,-2.441444,0.588266,0.039551,1.399191
1417,-20.935378,-8.789197,-4.516670,0.026612,0.005615,1.057511
1418,-39.856565,-14.160372,0.244144,-0.061769,-0.110353,1.132464
1419,-6.347753,-15.747311,-4.211490,0.092164,-0.024903,1.088640
1420,-5.188067,-9.887846,-4.150454,0.125124,0.022339,1.010880
1421,-30.151827,-2.075227,1.586938,0.011841,-0.097414,1.122210
1422,1.403830,-0.976577,-0.244144,0.078859,-0.022217,1.046281
1423,-5.127031,4.516670,0.915541,0.081178,0.021973,0.937270
1424,-18.432898,6.103609,4.699779,0.010376,-0.052857,1.011246
1425,-5.981537,5.188067,4.577707,0.053956,-0.013672,1.000626
1426,-10.742351,5.859464,5.493248,0.021607,-0.026734,0.990127
1427,-13.977264,4.516670,5.798428,0.029175,-0.036744,1.028946
1428,-8.300908,3.356985,3.540093,0.033204,-0.030762,1.002579
1429,-9.460594,2.197299,3.234913,0.000366,-0.022950,0.986831
1430,-13.733120,0.427253,3.418021,-0.050904,-0.027955,1.041520
1431,-7.202258,-3.723201,3.723201,0.075685,-0.008911,0.872694
1432,-10.925460,-3.540093,3.112840,-0.016236,0.003174,0.944594
1433,-15.869383,-7.080186,2.746624,-0.005615,-0.083131,1.004410
1434,-9.765774,-7.690547,1.586938,0.020386,-0.053712,1.038590
1435,-6.897078,-7.080186,0.793469,0.028199,-0.049073,0.999039
1436,-8.178836,-6.836042,1.342794,0.034180,-0.028565,1.057023
1437,-4.577707,-6.347753,1.098650,0.039673,-0.046021,1.009049
1438,-5.554284,-5.615320,1.342794,0.036011,-0.029786,1.012711
1439,-5.798428,-5.004959,1.403830,0.022461,-0.023804,0.990616
1440,-6.103609,-4.882887,1.159686,0.012207,-0.029541,0.980728
1441,-9.033341,-5.493248,1.342794,0.025635,-0.048951,0.928847
1442,-12.634470,-6.225681,1.403830,0.030884,-0.056886,0.971695
1443,-14.404517,-6.836042,1.464866,0.026368,-0.048096,0.996475
1444,-14.892805,-7.751583,1.220722,0.035157,-0.051514,0.984146
1445,-16.662852,-7.995727,1.342794,0.033326,-0.047852,1.005020
1446,-16.357671,-8.361944,1.342794,0.021973,-0.048219,0.985611
1447,-17.273213,-9.338521,0.854505,0.025391,-0.048585,1.009659
1448,-19.409476,-9.582666,0.366217,0.046021,-0.053956,0.986343
1449,-20.141909,-9.826810,0.061036,0.047974,-0.067750,1.021134
1450,-19.958801,-8.422980,0.000000,0.059449,-0.074708,1.022721
1451,-18.249790,-7.019150,0.183108,0.059327,-0.072145,0.997696
1452,-20.019837,-5.615320,0.976577,0.074586,-0.079103,1.023331
1453,-23.254749,-3.601129,2.014191,0.069093,-0.093385,1.012222
1454,-19.958801,-1.770047,2.136263,0.059449,-0.080812,1.032364
1455,-22.156100,-0.183108,2.807660,0.058595,-0.086305,1.009537
1456,-22.339208,0.488289,3.356985,0.035157,-0.086793,0.988663
1457,-22.034028,0.183108,2.685588,0.038331,-0.076051,0.981704
1458,-23.682002,-0.427253,2.502480,0.033448,-0.070802,1.033219
1459,-28.137636,-0.549325,2.441444,0.072755,-0.103029,1.063249
1460,-24.719615,2.380407,1.586938,0.036500,-0.125734,0.981216
1461,-24.292363,1.953155,2.075227,0.062379,-0.099611,1.023819
1462,-24.414435,2.441444,2.014191,0.013672,-0.095216,1.010025
1463,-26.428626,2.319371,2.563516,0.035523,-0.096315,0.946548
1464,-30.823224,3.173877,4.089418,0.081300,-0.058228,0.976089
1465,-43.518730,6.897078,7.934691,0.048463,-0.118288,1.000137
1466,-46.753643,7.507439,10.254063,0.056031,-0.183841,1.025162
1467,-36.987869,10.803388,11.596857,0.058228,-0.136843,1.030167
1468,-38.208591,11.230640,13.000687,0.041138,-0.117067,0.996719
1469,-42.664225,11.535821,12.268254,0.026001,-0.144411,1.019425
1470,-42.786297,12.817578,11.535821,-0.004273,-0.135134,0.997574
1471,-40.466926,11.230640,8.300908,-0.011475,-0.136110,1.020401
1472,-42.359045,12.939651,7.141222,-0.068971,-0.138430,1.088518
1473,-46.143282,9.216449,3.601129,-0.062379,-0.163210,1.047257
1474,-55.420768,5.737392,-7.141222,-0.018555,-0.231327,1.049699
1475,-48.096437,1.525902,-8.117800,0.046632,-0.293339,1.048722
1476,-30.212863,-0.488289,-8.484016,0.065064,-0.225711,0.957412
1477,-5.981537,-6.530861,-11.841001,0.102419,-0.161135,1.078141
1478,-17.029068,-1.098650,-12.573434,0.105470,-0.032715,1.000992
1479,-52.491035,8.667124,-11.230640,0.029297,0.101442,0.964981
1480,-108.278019,22.522316,-15.625238,0.121462,0.113893,0.954360
1481,-128.847181,30.640116,-22.522316,0.029297,0.314946,0.828870
1482,-156.557565,11.352712,-37.354086,-0.066896,0.215213,0.507210
1483,-183.352407,-27.527276,-42.542153,-0.065309,0.822400,1.160174
1484,-359.197375,-33.386740,-40.588998,-0.087282,0.368780,1.520531
1485,-551.522087,-48.035401,43.213550,-0.772595,0.437263,0.948623
1486,-763.500420,-156.252384,39.795529,-0.115969,-0.163943,1.023941
1487,-836.926833,-246.707866,37.781338,-0.142947,-0.006226,0.935439
1488,-938.124666,-221.438926,61.402304,1.200580,-2.000031,1.999969
1489,-632.455940,-92.164492,196.780346,-0.832532,-0.125612,1.999969
1490,190.554665,-30.334936,-68.787671,0.086305,0.281621,1.999969
1491,373.968109,49.500267,-88.685435,-0.189334,1.285298,1.999969
1492,188.479438,4.882887,-73.426413,-0.915419,1.505638,1.330953
1493,-30.212863,-10.193027,-3.784237,-0.402350,0.424079,-0.177859
1494,-48.706798,-30.823224,-1.647974,-0.344732,-0.217166,0.269291
1495,82.887007,-15.747311,4.455634,-0.330938,0.146365,0.510750
1496,100.709545,-11.718929,5.371176,-0.163943,0.435187,0.562631
1497,44.861524,-6.591897,12.085145,-0.136355,0.430915,0.880995
1498,66.590372,1.525902,10.070954,-0.119753,0.347295,1.144671
1499,136.110475,10.620279,2.014191,-0.060304,0.400885,1.077043
1500,151.491569,13.855192,-1.220722,-0.011353,0.467414,1.022843
1501,150.637064,17.212177,-4.089418,0.011353,0.362066,1.141131
1502,185.854887,26.733806,-10.009918,0.016236,0.268803,1.151263
1503,216.250858,36.438544,-14.404517,0.007935,0.240848,1.099748
1504,223.697261,40.588998,-14.831769,-0.004639,0.150027,1.098039
1505,240.299077,43.640803,-14.526589,0.005737,0.055299,1.121965
1506,258.976120,44.190127,-13.733120,0.038209,0.026246,1.150652
1507,270.328832,44.312200,-13.733120,0.081544,-0.027710,1.135271
1508,279.972534,44.434272,-14.404517,0.125612,-0.075563,1.127581
1509,285.099565,46.814679,-18.249790,0.196780,-0.205325,0.896498
1510,276.615549,55.970092,-26.062409,0.292729,-0.407721,0.565927
1511,258.182651,71.168078,-29.846647,0.329107,-0.439704,0.610971
1512,226.321813,70.618753,-33.264668,0.312139,-0.357916,0.869642
1513,214.602884,63.904784,-41.443503,0.341436,-0.334600,1.217548
1514,213.443198,68.909743,-47.730220,0.294560,-0.206180,1.826078
1515,201.358053,78.248264,-48.462654,0.189822,-0.272831,1.999969
1516,209.109636,75.562676,-44.983597,0.056519,-0.460334,1.999969
1517,255.130846,76.722362,-50.782025,0.059449,-0.761608,1.996979
1518,269.901579,89.478904,-46.692607,0.032227,-0.674693,1.875395
1519,226.993210,84.351873,-37.598230,-0.033082,-0.703502,1.999969
1520,233.340963,77.821012,-25.024796,-0.104250,-0.813489,1.999969
1521,287.296864,70.557717,-20.141909,-0.161379,-0.903334,1.999969
1522,319.890135,70.374609,-12.756542,-0.065553,-0.927993,1.999969
1523,305.424582,74.219883,-5.798428,0.081422,-0.953506,1.657862
1524,287.418936,79.224842,-4.516670,0.198734,-0.968276,1.596948
1525,276.249332,82.520790,-7.202258,0.236576,-0.949722,1.697169
1526,265.201801,84.901198,-9.704738,0.218875,-1.009903,1.715480
1527,256.595712,84.657053,-9.887846,0.117922,-1.187762,1.515770
1528,242.008087,78.004120,-7.873655,0.045167,-1.467918,1.138079
1529,208.072023,72.510872,-5.554284,0.097780,-1.870512,0.824231
1530,155.397879,77.088579,-7.873655,0.332769,-2.000031,0.703624
1531,107.179370,101.686122,-15.136950,0.541878,-2.000031,0.453010
1532,86.488136,127.626459,-28.381781,0.527840,-2.000031,-0.120729
1533,67.689021,103.944457,-18.738079,0.373785,-2.000031,-0.871473
1534,-8.117800,12.024109,9.033341,-0.022583,-2.000031,-1.818509
1535,-157.534142,-153.261616,49.378195,0.453986,-2.000031,-1.291279
1536,-306.401160,-247.257191,64.332036,1.279194,-1.320333,0.825208
1537,-154.665446,-153.749905,48.096437,0.531380,0.168582,1.999969
1538,-86.732280,-95.155261,25.452049,-0.465949,1.107195,1.999969
1539,-100.160220,-97.230488,22.766461,-0.531136,0.347417,0.381476
1540,-208.255131,-101.869230,48.584726,-0.180789,-0.028931,-0.547005
1541,-323.308156,-95.704585,71.717403,0.403204,-0.226810,0.779187
1542,-384.039063,-78.614481,78.431373,1.282002,-0.142214,1.999969
1543,-247.318227,-34.058137,39.612421,1.470359,-0.341314,1.999969
1544,-75.562676,24.963760,-11.413748,0.737560,-0.065797,1.416892
1545,-133.241779,48.767834,-16.540780,-0.327886,0.184329,1.407248
1546,-214.602884,33.875029,33.447776,-1.596094,0.046143,1.999969
1547,-174.685283,-54.139010,50.049592,-0.839368,-0.749035,1.724514
1548,-47.791257,-102.967880,33.081559,1.028092,0.092897,1.999969
1549,-48.218509,-57.190814,9.155413,1.527611,0.079103,1.895415
1550,-34.912642,11.657893,6.958114,-0.455451,0.081666,0.830945
1551,-73.609522,-26.672770,14.282444,-0.586069,0.023560,1.026261
1552,-61.097124,-49.378195,5.798428,0.583139,-0.013184,1.492699
1553,-32.898451,-17.334249,-5.432212,0.229862,-0.051514,1.344503
1554,-41.504540,-12.390326,1.342794,-0.293706,-0.116701,1.136858
1555,-13.794156,-22.034028,-2.807660,0.169924,-0.034668,1.138933
1556,-16.296635,-10.986496,-1.464866,0.053468,-0.022583,1.030777
1557,-22.705425,-9.460594,2.380407,-0.028321,-0.060426,1.064591
1558,-9.460594,-9.216449,1.770047,0.096071,-0.023682,1.052506
1559,-13.794156,-4.211490,3.234913,0.040040,0.000244,0.986221
1560,-14.465553,-5.065995,4.211490,0.011719,-0.019043,1.026505
1561,-12.451362,-4.821851,3.356985,0.050538,-0.010376,1.063493
1562,-12.878614,-6.286717,2.685588,-0.016236,0.006226,1.082414
1563,-11.596857,-4.333562,3.356985,0.031128,-0.022583,0.965713
1564,-14.099336,-4.821851,3.234913,-0.000244,-0.026001,1.020157
1565,-14.648661,-6.286717,2.502480,0.008057,-0.045533,1.002945
1566,-13.244831,-5.493248,2.441444,0.025635,-0.052613,1.035904
1567,-10.864424,-4.333562,2.563516,0.024170,-0.055909,1.023087
1568,-8.606088,-4.028382,2.380407,0.007202,-0.043702,1.006973
1569,-9.033341,-4.394598,2.441444,0.030884,-0.044434,0.992081
1570,-10.070954,-4.211490,2.563516,0.011597,-0.035889,1.010636
1571,-10.559243,-4.699779,2.197299,0.013306,-0.048707,0.994156
1572,-9.338521,-4.821851,1.586938,-0.009155,-0.018799,1.049088
1573,-10.986496,-6.713970,2.563516,0.119997,-0.041627,0.854749
1574,-12.817578,-3.479057,2.136263,0.004395,-0.042115,0.987076
1575,-13.122759,-3.601129,2.441444,0.039063,-0.042603,1.019547
1576,-13.183795,-3.051804,2.136263,0.022339,-0.051148,0.999161
1577,-14.465553,-3.356985,2.258335,0.027100,-0.061891,0.993057
1578,-14.404517,-3.479057,2.197299,0.012573,-0.016358,1.032853
1579,-14.221408,-3.784237,2.075227,0.032349,-0.068482,1.005386
1580,-12.390326,-3.479057,1.831083,0.016602,-0.068238,1.003799
1581,-12.390326,-4.455634,1.342794,0.004517,-0.062379,0.993545
1582,-12.878614,-5.859464,0.793469,0.020142,-0.065919,0.989151
1583,-13.611048,-6.652934,0.305180,0.021241,-0.079469,1.000137
1584,-11.535821,-7.202258,-0.122072,0.023316,-0.093874,0.974868
1585,-12.634470,-8.056764,0.000000,0.039429,-0.067018,0.985000
1586,-17.090105,-7.873655,-0.305180,0.025879,-0.082399,0.978653
1587,-16.418708,-8.056764,-0.488289,0.052003,-0.083375,1.020401
1588,-17.029068,-6.775006,-0.366217,0.043702,-0.088258,1.026505
1589,-15.869383,-5.615320,0.122072,0.058106,-0.101320,1.031266
1590,-13.366903,-3.540093,0.793469,0.054200,-0.103029,1.041642
1591,-12.329290,-1.892119,1.709010,0.051270,-0.101320,1.023575
1592,-11.474784,-0.671397,2.197299,0.045655,-0.084352,0.989883
1593,-14.770733,-0.549325,2.319371,0.030762,-0.072023,0.976577
1594,-20.386053,-1.281758,2.197299,0.038087,-0.086427,0.972671
1595,-23.620966,-1.525902,2.319371,0.033082,-0.102663,0.998672
1596,-22.766461,-1.831083,2.014191,0.031861,-0.102052,0.994522
1597,-23.010605,-1.525902,2.197299,0.037720,-0.089357,0.974990
1598,-27.588312,-0.061036,1.892119,0.047242,-0.112184,1.023331
1599,-25.696193,0.610361,1.770047,0.028687,-0.108034,1.049332
1600,-23.743038,2.014191,2.075227,0.030152,-0.133303,1.045914
1601,-25.635157,2.319371,2.990768,0.041627,-0.103273,0.958145
1602,-20.691234,4.638743,5.920500,0.044923,-0.088258,1.026627
1603,-33.508812,4.882887,7.019150,0.021973,-0.127810,0.958877
1604,-33.203632,5.310140,8.056764,0.042481,-0.115969,1.005142
1605,-36.865797,5.493248,8.056764,0.013062,-0.110231,0.992203
1606,-41.016251,5.065995,7.568475,0.027222,-0.135866,0.987686
1607,-42.725261,5.615320,7.934691,0.012451,-0.139773,1.005386
1608,-44.739452,6.530861,6.897078,0.039429,-0.086915,0.955703
1609,-49.011978,8.850233,4.272526,0.039673,-0.164920,0.886122
1610,-53.833829,8.117800,0.732433,-0.016358,-0.171023,1.023941
1611,-61.158160,8.972305,-7.507439,-0.017212,-0.256962,1.066300
1612,-46.997787,2.868696,-7.934691,0.046754,-0.292363,1.029801
1613,-27.954528,0.854505,-17.334249,0.065431,-0.205692,1.081926
1614,-27.161059,3.295949,-18.188754,0.169070,-0.202762,1.072770
1615,-31.433585,12.939651,-3.234913,0.078248,0.028931,0.960342
1616,-56.824598,18.493935,-13.061723,0.053346,0.120241,0.860121
1617,-87.891966,24.658579,-13.977264,0.059571,0.167849,0.780041
1618,-125.856413,26.672770,-20.508125,-0.087648,0.152346,0.698985
1619,-156.984817,-0.488289,-7.751583,-0.026734,0.657115,0.974258
1620,-269.840543,-32.837415,-43.701839,-0.450568,0.313359,1.430320
1621,-454.535744,-27.588312,15.991455,-0.383551,-0.000977,1.278828
1622,-627.450980,-98.451209,94.361791,-0.547127,0.080568,1.455344
1623,-685.740444,-206.912337,65.857939,-0.290898,-0.552010,1.058366
1624,-684.702831,-229.190509,76.050965,0.277592,-0.691173,0.858900
1625,-772.838941,-207.339590,146.608682,0.713024,-2.000031,1.999969
1626,-572.030213,-138.551919,149.477379,-0.301884,-0.288457,1.999969
1627,52.002747,-63.904784,-15.320058,0.449470,0.372686,1.999969
1628,227.847715,46.753643,-63.294423,-0.002564,1.175189,1.999969
1629,135.927367,54.871443,-42.298009,-0.317510,0.943862,1.627710
1630,17.700465,21.240558,-26.794842,-0.417975,0.468025,0.719249
1631,23.743038,2.380407,-23.315785,-0.408209,0.012085,0.540047
1632,104.676890,12.268254,-3.356985,-0.253788,0.218753,0.325689
1633,99.427787,6.897078,-6.225681,-0.121828,0.295048,0.311406
1634,69.947356,11.841001,-1.342794,-0.062867,0.296757,0.551400
1635,79.713130,15.503166,-4.394598,-0.066651,0.260746,0.860609
1636,116.273747,14.892805,-7.995727,-0.056275,0.306401,1.019547
1637,140.077821,8.850233,-9.948882,-0.029541,0.335821,1.111711
1638,156.923781,5.920500,-12.207218,-0.014649,0.291508,1.190570
1639,184.328985,9.826810,-15.808347,-0.003540,0.231205,1.194110
1640,208.133059,17.700465,-19.775692,-0.011841,0.156741,1.107561
1641,222.232395,27.100023,-21.667811,-0.014649,0.063844,1.021256
1642,231.570916,35.523003,-21.606775,-0.020630,-0.021241,0.960098
1643,238.834211,40.588998,-20.752270,0.038331,-0.063355,0.971328
1644,242.435340,43.091478,-21.179522,0.190433,-0.071290,1.111345
1645,244.876783,45.349813,-26.428626,0.380377,-0.105837,1.318502
1646,252.323186,50.293736,-38.147555,0.489265,-0.232914,1.449729
1647,263.981079,55.970092,-51.819638,0.449592,-0.373907,1.467552
1648,274.845502,55.237659,-62.867170,0.386481,-0.507698,1.442039
1649,277.347982,53.467613,-68.238346,0.335454,-0.595834,1.443626
1650,271.793698,51.331350,-69.764248,0.255009,-0.703990,1.441672
1651,272.343023,51.148241,-68.055238,0.180545,-0.760021,1.422141
1652,268.192569,50.232700,-63.538567,0.102419,-0.778576,1.417990
1653,260.257877,49.805447,-56.092164,0.000488,-0.771008,1.395163
1654,253.177691,49.988556,-46.387427,-0.058473,-0.725109,1.339132
1655,242.496376,51.392386,-36.072328,-0.078126,-0.647227,1.324483
1656,226.993210,54.627298,-26.123445,-0.035523,-0.566903,1.399435
1657,213.565270,57.862211,-18.127718,0.023560,-0.518685,1.560571
1658,208.926528,59.266041,-12.634470,0.092653,-0.494881,1.696437
1659,209.109636,58.899825,-8.972305,0.167849,-0.474250,1.803250
1660,210.513466,57.495995,-7.629511,0.222171,-0.480964,1.843046
1661,213.809415,56.214237,-7.568475,0.254643,-0.512947,1.816068
1662,214.358740,54.077974,-7.385367,0.237552,-0.549203,1.781399
1663,211.306935,49.561303,-6.713970,0.193362,-0.614878,1.744411
1664,210.147250,46.143282,-5.371176,0.127443,-0.708385,1.632837
1665,204.776074,43.152514,-3.662165,0.039185,-0.845960,1.473655
1666,189.761196,44.739452,-1.342794,0.045777,-1.078264,1.339864
1667,166.689555,55.359731,-0.610361,0.145388,-1.407980,1.255756
1668,134.584573,67.994202,-3.967346,0.336431,-1.865873,1.326314
1669,107.179370,92.713817,-13.122759,0.527474,-2.000031,1.401266
1670,113.038834,135.866331,-25.757229,0.525032,-2.000031,0.707774
1671,130.128939,145.937285,-23.071641,0.510262,-2.000031,-0.631601
1672,71.717403,72.144656,0.244144,0.497688,-2.000031,-1.599878
1673,-31.738766,-47.486076,34.607462,0.481453,-2.000031,-1.684596
1674,-211.978332,-192.141604,-5.249104,1.640040,-1.822293,-0.887465
1675,-199.588006,-141.847868,-4.089418,0.895155,-0.030640,1.662623
1676,-116.212711,-84.107729,-35.034714,-0.599863,0.871839,1.999969
1677,-88.136110,-84.412909,-27.771420,-1.381003,1.101091,1.442527
1678,-191.409171,-63.599603,0.915541,-1.620996,-0.171389,-0.382330
1679,-307.194629,-79.102770,57.557031,-1.135027,-0.357549,-0.358648
1680,-371.831846,-107.728695,85.450523,0.388067,-0.555673,1.503929
1681,-319.035630,-46.997787,81.666285,1.641138,-0.162966,1.999969
1682,-237.979706,-5.065995,31.494621,1.763821,-0.190066,1.999969
1683,-169.985504,40.466926,-2.685588,0.769177,-0.290166,1.999969
1684,-175.478752,8.300908,5.798428,-1.064347,-0.430915,1.999969
1685,-30.090791,-22.766461,26.184482,-1.373922,-0.586679,1.192889
1686,39.978637,-74.708171,17.334249,0.515755,0.384771,1.824857
1687,-73.487449,-53.284504,17.395285,1.432761,0.095827,1.731472
1688,-31.616693,16.479744,7.568475,-0.245853,-0.096071,1.275776
1689,-16.906996,-12.085145,6.958114,-0.691051,-0.061769,0.801892
1690,-29.297322,-41.321431,7.507439,0.282109,0.117922,1.134661
1691,-25.879301,-24.292363,-0.976577,0.248051,-0.010986,1.116838
1692,-32.898451,-16.662852,0.000000,-0.184451,-0.029053,1.003555
1693,-27.283131,-23.254749,-0.488289,0.048951,0.013062,1.160540
1694,-27.283131,-15.503166,0.122072,0.135866,-0.067994,1.163104
1695,-14.282444,-5.127031,0.976577,0.023804,-0.036744,1.073259
1696,-11.535821,-4.394598,1.342794,0.000244,0.021729,0.986343
1697,-19.165332,-4.089418,2.319371,0.052735,-0.003418,1.024796
1698,-18.554971,-2.075227,2.868696,0.012940,-0.040040,1.033219
1699,-14.526589,-2.807660,2.929732,0.013672,-0.016602,0.983413
1700,-16.845960,-2.929732,3.356985,0.032959,-0.002319,0.977432
1701,-19.165332,-3.601129,3.723201,-0.013550,-0.004883,0.968399
1702,-19.958801,-6.347753,3.112840,-0.014893,0.002564,0.954849
1703,-23.682002,-10.315099,1.342794,-0.105715,0.025513,1.033829
1704,-26.306554,-12.024109,2.685588,0.012451,-0.022217,1.040665
1705,-24.597543,-12.207218,2.075227,0.001709,-0.060548,1.036637
1706,-18.371862,-12.939651,0.976577,0.003784,-0.047120,1.010147
1707,-18.371862,-13.366903,0.549325,0.022461,-0.052735,1.037736
1708,-19.104295,-13.061723,-0.122072,0.032227,-0.088258,1.078508
1709,-10.498207,-10.559243,0.061036,0.025635,-0.044190,1.027115
1710,-13.122759,-6.775006,-2.014191,0.206668,-0.209476,0.579355
1711,-13.916228,-7.202258,0.183108,-0.008911,-0.036866,1.191791
1712,-13.244831,-5.859464,0.976577,0.056764,-0.078492,0.979141
1713,-12.939651,-3.906310,1.586938,0.042847,-0.056031,1.021744
1714,-12.024109,-2.502480,2.136263,0.033448,-0.055665,1.011002
1715,-12.085145,-1.892119,2.197299,0.041871,-0.050050,0.986343
1716,-14.587625,-2.319371,2.258335,0.013184,-0.060182,0.992203
1717,-15.320058,-3.540093,2.014191,0.027710,-0.072511,1.026383
1718,-13.183795,-3.173877,1.525902,0.037720,-0.087282,1.026993
1719,-10.498207,-2.563516,1.342794,0.029664,-0.075685,1.020768
1720,-9.460594,-2.563516,1.098650,0.027955,-0.061769,0.980117
1721,-11.047532,-2.624552,1.159686,0.035157,-0.039307,0.960220
1722,-19.409476,-2.685588,1.037613,0.020020,-0.046143,0.967056
1723,-24.536507,-2.929732,1.159686,0.035035,-0.082521,1.017472
1724,-21.850919,-1.464866,1.342794,0.053834,-0.103639,1.017716
1725,-19.714656,-0.671397,1.586938,0.032105,-0.093874,1.029068
1726,-17.578393,-0.061036,1.647974,0.039673,-0.104372,1.038590
1727,-14.648661,0.976577,1.709010,0.034424,-0.112673,1.050675
1728,-11.291676,1.037613,1.647974,0.034913,-0.108888,1.032364
1729,-8.178836,1.037613,1.342794,0.012451,-0.089967,0.991348
1730,-9.643702,-0.671397,1.098650,0.028687,-0.088502,0.982681
1731,-11.963073,-1.403830,1.037613,0.030762,-0.100832,0.994034
1732,-10.925460,-1.770047,0.915541,0.033082,-0.093874,0.985245
1733,-14.404517,-1.953155,0.976577,0.043458,-0.085939,0.996475
1734,-18.432898,-1.159686,1.037613,0.011597,-0.099123,1.001358
1735,-17.029068,-2.075227,0.671397,0.014771,-0.107301,0.994156
1736,-15.991455,-2.990768,0.183108,0.018067,-0.125856,1.015152
1737,-16.662852,-3.356985,0.427253,0.041505,-0.126955,1.040665
1738,-13.122759,-2.502480,0.488289,0.048585,-0.134646,1.038468
1739,-10.070954,-1.220722,0.793469,0.048707,-0.124392,1.005386
1740,-14.099336,0.244144,2.380407,0.042969,-0.133303,1.015030
1741,-11.413748,1.342794,3.601129,0.027832,-0.137819,1.003555
1742,-9.033341,1.647974,3.906310,0.039307,-0.097780,0.994766
1743,-13.855192,0.854505,3.418021,0.024781,-0.106325,0.997452
1744,-14.343481,-0.183108,2.197299,0.023804,-0.115114,0.985977
1745,-15.259022,-1.281758,1.342794,0.019532,-0.114382,0.994400
1746,-17.761501,-2.258335,0.671397,0.039185,-0.108766,0.985733
1747,-19.592584,-2.014191,-0.122072,0.053223,-0.108766,1.030533
1748,-19.470512,-0.061036,0.000000,0.041138,-0.114260,0.986221
1749,-23.865110,0.427253,0.671397,0.010864,-0.113893,0.987198
1750,-25.940337,0.305180,1.525902,0.080079,-0.114504,1.029801
1751,-29.419394,3.356985,2.685588,0.012818,-0.118166,0.996231
1752,-32.043946,3.967346,4.394598,0.056886,-0.150637,0.967666
1753,-31.311513,6.652934,5.493248,0.045777,-0.132448,1.043351
1754,-35.156786,8.789197,6.591897,0.024659,-0.151369,1.009659
1755,-35.645075,9.643702,6.897078,0.012085,-0.150271,1.002335
1756,-37.109941,11.108568,6.469825,0.031495,-0.129152,0.997330
1757,-43.396658,13.244831,5.249104,-0.034180,-0.133303,1.059953
1758,-46.631571,14.038300,6.713970,-0.053590,-0.164797,1.063859
1759,-50.782025,10.986496,0.671397,-0.041871,-0.147829,0.996963
1760,-53.528649,6.775006,-15.442130,-0.023804,-0.245243,1.039078
1761,-38.757916,4.272526,-17.944610,0.031006,-0.261112,0.938857
1762,-46.631571,-4.211490,-19.897765,-0.021607,0.002930,0.924331
1763,-77.943084,-4.272526,-22.705425,0.061280,0.057130,0.898939
1764,-107.484550,7.873655,-17.273213,0.156497,0.047852,0.968276
1765,-131.898985,15.686275,-8.300908,0.074952,-0.237186,0.819226
1766,-106.324865,7.080186,-9.887846,-0.016236,0.092409,1.215961
1767,-143.373770,-9.704738,-35.461967,-0.074952,0.103029,0.953750
1768,-260.379950,-5.493248,-3.479057,0.032349,0.266117,1.166888
1769,-353.276875,-13.488975,-2.685588,-0.206302,-0.453376,1.068009
1770,-364.019226,-43.274586,6.591897,-0.450324,-0.295659,1.335103
1771,-395.880064,-99.916075,2.014191,-0.300542,-0.425788,0.988174
1772,-439.215686,-133.852140,20.630198,-0.034668,-0.290654,0.971450
1773,-442.755779,-144.716564,41.199359,0.141970,-0.175296,1.999969
1774,-413.153277,-86.427100,103.150988,-0.959121,0.656382,1.999969
1775,-160.524910,-78.187228,8.361944,-0.657359,-0.465339,1.999969
1776,218.509194,5.676356,-9.704738,-0.423346,0.680430,1.999969
1777,215.335317,15.320058,-27.710384,-0.668833,0.400397,1.070817
1778,80.384527,21.240558,29.236286,-0.498054,0.292241,0.145022
1779,41.443503,18.432898,43.884947,-0.376959,-0.174441,0.226078
1780,109.498741,26.001373,46.570535,-0.176394,-0.045167,0.278447
1781,111.512932,22.949569,44.495308,0.135866,0.180179,0.368414
1782,76.722362,21.911955,37.598230,0.349248,0.177737,0.720470
1783,102.845808,29.846647,17.883574,0.435554,0.127932,0.906264
1784,144.411383,35.034714,-5.981537,0.415778,0.152956,0.811536
1785,148.683909,31.738766,-22.827497,0.383429,0.140383,0.749279
1786,151.674678,27.588312,-36.011292,0.361822,0.096681,0.910292
1787,170.656901,26.001373,-49.561303,0.381353,0.048707,1.100725
1788,185.976959,28.625925,-61.829557,0.337407,-0.077516,1.210590
1789,198.794537,34.607462,-69.275959,0.170535,-0.293950,1.173114
1790,216.617075,39.795529,-69.153887,-0.037232,-0.494881,1.044083
1791,222.659648,42.542153,-58.289464,-0.168460,-0.630259,0.961074
1792,216.311894,42.603189,-39.185168,-0.252567,-0.753918,0.993790
1793,211.184863,39.612421,-15.991455,-0.331548,-0.849012,1.051286
1794,215.274281,34.485389,7.263294,-0.341436,-0.887098,1.018082
1795,215.030137,31.494621,28.381781,-0.259525,-0.871595,0.983291
1796,202.090486,34.424353,45.105669,-0.148074,-0.872938,0.969986
1797,188.784619,40.405890,56.885634,-0.036378,-0.881483,1.031632
1798,177.920195,44.922560,65.003433,0.071168,-0.889662,1.151751
1799,168.581674,44.007019,70.984970,0.166751,-0.891859,1.271015
1800,168.886854,36.194400,73.304341,0.279911,-0.841444,1.344381
1801,173.891814,26.794842,70.069429,0.415045,-0.781750,1.370382
1802,169.130999,22.644388,65.003433,0.425666,-0.797375,1.329976
1803,163.332570,17.761501,58.106355,0.428962,-0.852552,1.156268
1804,157.473106,10.376135,49.988556,0.371344,-0.888319,0.908095
1805,136.720836,-3.356985,42.603189,0.268559,-0.934463,0.803479
1806,107.972839,-18.677043,36.316472,0.133913,-1.009537,0.750988
1807,93.385214,-28.137636,28.076600,0.028687,-1.018814,0.787732
1808,73.243305,-25.391012,19.836728,-0.102174,-0.998428,0.826062
1809,49.500267,-13.794156,13.061723,-0.212528,-1.050065,0.650767
1810,34.485389,0.671397,9.155413,-0.296025,-1.093523,0.251957
1811,0.854505,12.085145,11.718929,-0.332403,-1.052506,-0.077394
1812,-53.223468,19.470512,19.531548,-0.306279,-1.067765,-0.202518
1813,-102.845808,18.493935,29.480430,-0.225101,-1.365866,-0.649424
1814,-225.589380,-206.363012,81.055924,0.224491,1.995392,1.999969
1815,-386.968795,-84.107729,-6.775006,1.999969,-2.000031,1.999969
1816,197.573816,37.903410,5.493248,-0.091188,-0.494514,0.771374
1817,361.943999,53.528649,-64.881361,-0.577646,0.221561,1.386374
1818,5.310140,-0.549325,4.699779,-0.442756,0.732677,-0.795178
1819,-141.115435,-25.696193,15.564202,0.173342,0.366217,0.772595
1820,-102.479591,-18.738079,-1.159686,0.037720,-0.064454,1.294575
1821,-34.973678,-6.286717,-3.540093,-0.026978,-0.153933,1.395773
1822,-16.418708,-4.699779,-2.929732,0.062745,-0.105592,1.133562
1823,-2.441444,2.746624,-0.305180,0.087282,0.004883,1.057511
1824,-13.427939,6.286717,2.319371,0.063600,0.029419,0.969863
1825,-17.883574,6.408789,2.258335,-0.066896,0.024048,0.971695
1826,-12.329290,-0.427253,-0.366217,-0.070924,0.038941,0.935439
1827,-18.127718,-6.408789,-1.831083,0.018921,0.006714,1.006851
1828,-18.677043,-5.554284,-1.709010,0.054444,-0.048096,1.083024
1829,-7.873655,-1.342794,-1.098650,0.036378,-0.048463,1.079606
1830,-1.220722,0.793469,-0.671397,0.019043,-0.004639,1.004288
1831,-2.441444,1.586938,-0.671397,0.017823,0.029419,0.944961
1832,-9.460594,1.037613,-0.488289,0.002197,0.023682,0.946426
1833,-13.672084,0.061036,0.000000,0.004517,0.000488,0.971084
1834,-14.404517,-0.427253,0.427253,0.018189,-0.006470,0.997696
1835,-14.831769,-0.244144,0.854505,0.002197,-0.025269,1.006851
1836,-13.916228,-1.037613,0.915541,-0.003906,-0.038087,1.031266
1837,-8.667124,-1.770047,0.427253,0.001221,-0.031006,1.033951
1838,-4.699779,-2.624552,-0.366217,-0.001953,-0.021241,1.006973
1839,-5.432212,-3.906310,-0.488289,0.008179,-0.019776,1.002457
1840,-4.150454,-4.333562,-0.915541,0.012207,-0.015259,0.981704
1841,-4.882887,-4.577707,-0.793469,0.022461,-0.010864,0.981338
1842,-6.958114,-4.333562,-0.488289,0.024170,-0.004273,0.986831
1843,-8.911269,-3.784237,-0.183108,0.032471,-0.008667,1.006607
1844,-9.277485,-2.624552,0.000000,0.029053,-0.028687,1.011246
1845,-7.324331,-1.525902,0.000000,0.030640,-0.031006,1.034562
1846,-5.737392,-0.671397,0.183108,0.029053,-0.036378,1.022843
1847,-3.784237,-0.183108,0.000000,0.017700,-0.024903,1.012467
1848,-3.295949,-0.305180,-0.244144,0.017945,-0.022461,0.995743
1849,-3.723201,-0.427253,-0.366217,0.011109,-0.033204,1.022477
1850,-1.647974,-0.488289,-0.427253,0.030152,-0.035645,1.031022
1851,0.793469,0.183108,-0.549325,0.022950,-0.033448,1.015518
1852,0.549325,0.488289,-0.305180,0.021485,-0.035767,1.008194
1853,1.586938,0.732433,-0.122072,0.013062,-0.026246,0.992813
1854,0.976577,0.305180,0.000000,0.012696,-0.018921,0.984268
1855,-0.915541,-0.427253,0.000000,0.018433,-0.026246,0.987442
1856,-1.464866,-0.488289,0.000000,0.017700,-0.026978,0.997452
1857,-0.488289,-0.366217,-0.122072,0.019409,-0.028687,1.003922
1858,-0.793469,-0.549325,0.000000,0.020752,-0.023926,0.994522
1859,-0.427253,-0.610361,0.000000,0.017334,-0.025513,1.005875
1860,-0.244144,-0.610361,-0.305180,0.018921,-0.029908,1.007340
1861,0.061036,-0.244144,-0.305180,0.025513,-0.034913,1.021622
1862,1.525902,0.488289,-0.244144,0.024903,-0.034302,1.013077
1863,2.014191,1.037613,0.000000,0.026368,-0.031495,1.019303
1864,2.868696,1.647974,0.122072,0.017578,-0.030640,1.016007
1865,3.784237,1.709010,0.061036,0.019532,-0.022461,0.997940
1866,3.112840,1.159686,0.000000,0.015503,-0.023560,0.993423
1867,2.746624,0.732433,-0.183108,0.010132,-0.015503,0.978286
1868,1.586938,0.000000,-0.122072,0.018067,-0.009766,0.979995
1869,-0.976577,-0.366217,-0.122072,0.013428,-0.023560,1.007095
1870,0.366217,-0.244144,-0.244144,0.028931,-0.034302,1.017716
1871,2.197299,0.366217,-0.366217,0.019776,-0.019287,0.994522
1872,0.488289,0.305180,-0.122072,0.015015,-0.024537,1.004898
1873,1.403830,0.732433,-0.122072,0.024781,-0.028199,1.011856
1874,1.770047,0.976577,-0.183108,0.018555,-0.029786,1.006851
1875,2.502480,1.159686,-0.122072,0.017456,-0.024048,1.015763
1876,2.807660,1.037613,-0.122072,0.013672,-0.022583,0.999527
1877,2.807660,0.854505,-0.122072,0.012696,-0.020752,0.988052
1878,2.502480,0.366217,-0.122072,0.014160,-0.011597,0.995499
1879,1.159686,0.061036,-0.183108,0.014771,-0.029297,1.014908
1880,2.685588,0.366217,0.000000,0.018067,-0.025879,1.012345
1881,4.028382,0.732433,0.000000,0.007446,-0.018189,1.003799
1882,3.356985,0.305180,0.000000,0.013428,-0.015625,0.991714
1883,3.051804,0.000000,-0.183108,0.009644,-0.021241,1.002457
1884,3.295949,-0.427253,-0.244144,0.015381,-0.020264,1.002213
1885,3.845274,-0.366217,-0.305180,0.023194,-0.015015,0.999039
1886,3.662165,0.122072,-0.305180,0.014038,-0.016724,1.000626
1887,3.234913,0.244144,-0.305180,0.029664,-0.019532,1.006363
1888,3.662165,0.915541,-0.366217,0.028809,-0.020142,1.005509
1889,3.906310,1.831083,0.000000,0.031861,-0.024292,1.020157
1890,6.103609,2.502480,0.122072,0.009400,-0.014282,0.989029
1891,6.225681,2.197299,0.183108,0.005249,-0.005371,0.956191
1892,2.197299,1.342794,0.366217,0.014527,0.003052,0.967666
1893,0.915541,0.488289,0.305180,-0.001099,-0.001587,0.991714
