Packet number,Gyroscope X (deg/s),Gyroscope Y (deg/s),Gyroscope Z (deg/s),Accelerometer X (g),Accelerometer Y (g),Accelerometer Z (g)
0,0.427253,0.0,-0.183108,0.003906,-0.001343,0.997086
2,-0.122072,-0.30518,0.0,-0.003662,-0.0070799999999999995,0.9950100000000001
4,-0.6103609999999999,-0.366217,-0.122072,0.004883,-0.01001,0.995865
6,-0.122072,-0.30518,0.0,0.008179,-0.011353,0.997574
8,-0.244144,-0.061036,0.0,0.004273,-0.0037840000000000005,0.9973299999999999
10,0.183108,0.122072,0.0,0.003906,-0.008545,1.000504
12,0.0,0.0,-0.122072,0.00061,-0.001221,0.995865
14,0.30518,-0.549325,-0.183108,0.018799,-0.003052,1.002701
16,0.671397,-0.6103609999999999,-0.183108,0.027222000000000003,0.0037840000000000005,1.002457
18,0.427253,-0.30518,-0.183108,0.015991,-0.002441,1.000748
20,0.0,0.122072,-0.183108,0.013306,-0.005493,0.9941559999999999
22,0.122072,0.0,-0.122072,0.014893,-0.003418,0.996841
24,0.366217,0.122072,-0.244144,0.005982,-0.006592,1.0011139999999998
26,0.427253,0.30518,0.0,-0.001099,-0.000366,0.9973299999999999
28,0.122072,0.30518,0.0,0.0,-0.010254000000000001,1.006729
30,0.183108,0.366217,0.0,-0.001465,-0.007568000000000001,0.9946440000000001
32,0.427253,0.30518,0.0,-0.000122,-0.008057,0.996353
34,0.0,0.061036,0.0,0.0043950000000000005,-0.005737,0.991592
36,-0.976577,-0.061036,-0.122072,0.003662,-0.01355,1.010636
38,-0.061036,0.244144,0.061036,0.006714,-0.00647,1.013809
40,0.30518,0.48828900000000003,0.061036,0.006104,-0.006958,1.005997
42,0.671397,0.549325,0.0,0.003906,-0.006592,0.9991610000000001
44,0.732433,0.366217,0.0,0.002441,-0.000977,0.991836
46,0.366217,0.183108,0.0,-0.002564,-0.005982,1.006363
48,-0.30518,-0.061036,0.0,0.0023190000000000003,-0.005737,1.00502
50,0.366217,0.366217,0.0,0.005737,-0.0094,1.003067
52,0.549325,0.671397,0.122072,-0.001465,0.002075,1.006119
54,0.183108,0.427253,0.061036,0.0028079999999999997,-0.011597,1.005631
56,0.48828900000000003,0.122072,0.0,-0.002075,-0.004639,1.002335
58,1.09865,0.061036,0.0,0.001343,-0.008911,0.996719
60,1.281758,-0.427253,0.061036,-0.003906,-0.006104,0.987808
62,0.9155409999999999,-0.854505,0.0,-0.0008550000000000001,-0.001099,1.004532
64,0.9155409999999999,-0.976577,-0.122072,0.002441,-0.008911,1.013321
66,3.784237,0.0,0.061036,0.0051270000000000005,-0.015381,1.014908
68,5.7984279999999995,0.9155409999999999,0.183108,0.0035399999999999997,0.000488,0.997818
70,5.249104,0.427253,0.122072,-0.0051270000000000005,-0.001709,1.002701
72,4.577707,0.183108,0.061036,0.005982,0.006226,0.9868309999999999
74,3.90631,0.366217,0.122072,0.004273,0.014038,0.9941559999999999
76,3.6621650000000003,0.793469,0.122072,-0.0021969999999999997,-0.000732,1.006485
78,3.784237,0.976577,0.0,0.000122,0.013062,0.9865870000000001
80,3.356985,0.671397,0.183108,0.000366,0.008301000000000001,0.997452
82,3.234913,0.244144,0.122072,-0.004273,0.011597,0.9907379999999999
84,2.50248,0.061036,0.061036,-0.004883,0.002075,1.014176
86,3.418021,0.061036,-0.183108,-0.0074459999999999995,0.012206999999999999,0.9946440000000001
88,2.624552,-0.549325,-0.30518,0.000977,0.020508000000000002,0.9865870000000001
90,1.525902,-0.366217,-0.244144,-0.0008550000000000001,0.019898,0.985611
92,0.732433,-0.549325,-0.122072,0.002564,0.010742,0.9904940000000001
94,1.342794,0.183108,-0.183108,0.0043950000000000005,0.0021969999999999997,1.007218
96,2.197299,0.671397,-0.244144,-0.002075,0.016236,0.9952540000000001
98,1.8921189999999999,0.549325,-0.183108,-0.000122,0.01648,0.9907379999999999
100,0.854505,0.549325,0.183108,-0.004883,0.012206999999999999,0.996109
102,1.159686,0.183108,0.671397,-0.010620000000000001,0.0177,0.9820709999999999
104,0.9155409999999999,-0.671397,0.671397,-0.008911,0.014282,0.998184
106,0.976577,-1.525902,0.976577,-0.0031739999999999997,0.015625,0.994034
108,1.953155,-1.464866,0.9155409999999999,0.003662,0.013916,1.005997
110,1.40383,-0.6103609999999999,0.854505,-0.009276999999999999,0.035523,0.969009
112,2.014191,-1.8921189999999999,0.48828900000000003,-0.011597,0.021851,0.9896389999999999
114,1.586938,-2.014191,0.244144,0.000244,0.014649,1.010025
116,0.6103609999999999,-1.586938,0.183108,0.008057,0.004028,1.0129549999999998
118,2.4414439999999997,-0.6103609999999999,0.30518,0.008667,0.026856,1.001968
120,1.7700470000000001,-0.366217,0.183108,-0.006104,0.03418,0.964614
122,-0.732433,-1.8921189999999999,-0.427253,0.005493,0.015869,1.014786
124,0.061036,-0.366217,-0.427253,0.011475,0.027587999999999998,0.9987950000000001
126,-0.9155409999999999,0.6103609999999999,-0.183108,0.003418,0.034302,0.991714
128,-2.868696,0.427253,0.0,-0.0015869999999999999,0.020386,0.994766
130,-2.746624,-0.061036,-0.244144,0.01001,0.01648,1.0031889999999999
132,-1.586938,0.0,-0.244144,0.014893,0.006104,1.01735
134,0.732433,1.09865,-0.244144,0.014893,0.009644,1.010758
136,1.159686,1.70901,0.0,-0.004883,0.029297000000000004,0.9779200000000001
138,-1.037613,0.671397,0.0,-0.0021969999999999997,0.025635,0.978775
140,-0.732433,0.30518,0.061036,0.0,0.015869,0.9969629999999999
142,-0.30518,0.0,0.0,0.009276999999999999,0.014282,1.001846
144,-0.061036,0.122072,0.0,-0.008789,0.025879000000000003,0.980606
146,-0.854505,-0.6103609999999999,-0.244144,-0.001709,0.025635,0.9835360000000001
148,-5.249104,-2.563516,-0.30518,-0.007691,0.028808999999999998,0.95375
150,-4.943923000000001,-3.845274,-0.6103609999999999,0.015747,0.023926,1.007584
152,-4.760815,-2.4414439999999997,-0.244144,0.007691,0.015991,0.9986719999999999
154,-6.71397,-2.014191,0.0,0.003296,0.034058,0.972427
156,-9.338521,-2.2583349999999998,0.061036,-0.002564,0.017578,0.965957
158,-11.596857,-2.746624,0.427253,0.021241,-0.009033,1.013321
160,-9.948882000000001,-0.976577,1.40383,0.015381,-0.008911,1.0057530000000001
162,-9.338521,0.183108,2.075227,0.019287000000000002,-0.016968,1.024186
164,-7.263294,0.732433,2.014191,0.0037840000000000005,-0.022216999999999997,0.969741
166,-10.315099,-0.671397,2.075227,-0.006226,-0.004639,0.9835360000000001
168,-12.268253999999999,-2.136263,1.70901,-0.017945,0.017823,0.972305
170,-17.151141,-5.61532,1.464866,0.0028079999999999997,-0.004273,0.969741
172,-20.813306,-7.507439,1.525902,0.016236,-0.006592,0.98793
174,-22.034028,-8.239872,2.014191,0.04065,-0.011109,1.018082
176,-33.325703999999995,-5.676356,-0.854505,0.035035000000000004,0.080812,0.857191
178,-54.688334,-7.141222,-1.2207219999999999,0.095949,-0.032349,1.032242
180,-54.383154000000005,-3.295949,-2.868696,0.026612,-0.024291999999999998,0.996109
182,-65.247578,-1.8921189999999999,-3.051804,-0.04004,-0.036988,1.026749
184,-72.877089,-5.432212,-7.934691,0.026246,-0.163333,1.0396889999999999
186,-71.656367,-4.638743,-6.530861,0.024413999999999998,-0.039307,0.965957
188,-119.020371,-1.8921189999999999,-2.075227,0.07422000000000001,0.06994700000000001,0.961318
190,-195.0103,-1.70901,7.934691,0.056397,-0.188846,1.0080719999999999
192,-271.427482,-7.507439,-11.596857,0.223148,0.106813,1.460716
194,-419.80620999999996,-9.582666,-15.442129999999999,-0.182864,0.140749,1.139788
196,-565.743496,-28.442816999999998,2.136263,0.000732,-0.350225,1.151263
198,-401.922637,7.446403,19.043259,-1.181781,-0.7048449999999999,1.9999689999999999
200,65.247578,37.90341,-32.227053999999995,-0.244022,0.558602,1.6662849999999998
202,34.241245,-29.48043,14.953841,0.076417,0.213504,0.802136
204,3.967346,-49.256122999999995,-6.897078,0.27686,0.358648,0.5195390000000001
206,30.701152,-4.272526,-39.734493,0.027955,0.444953,0.857557
208,68.604562,8.300908,-41.931792,-0.284306,0.373541,1.162493
210,120.91248999999999,-0.9155409999999999,-21.667811,-0.357427,0.29126399999999997,1.2477
212,166.567483,2.868696,-4.21149,-0.257816,0.190555,1.003555
214,190.432593,13.061722999999999,4.089418,-0.14612,0.114504,0.8570690000000001
216,200.808728,20.691233999999998,4.943923000000001,-0.042237000000000004,0.06640700000000001,0.8360719999999999
218,206.118868,31.311513,2.685588,-0.012085,0.050294,1.127581
220,221.92721400000002,45.166705,2.075227,0.058838999999999995,0.046021,1.515526
222,246.46372200000002,54.44419,-2.80766,0.26331,-0.08203300000000001,1.633448
224,261.905852,52.368963,-18.677042999999998,0.429816,-0.250248,1.487816
226,256.04638700000004,40.039673,-34.546426000000004,0.33423400000000003,-0.365118,1.482811
228,245.85336099999998,31.799802000000003,-44.800488,0.155642,-0.38416100000000003,1.532738
230,232.85267400000004,35.88922,-47.608148,-0.069459,-0.403082,1.7514919999999998
232,229.007401,56.153201,-41.382467,-0.184695,-0.466316,1.79971
234,219.302663,70.49668100000001,-25.879301,-0.10974300000000001,-0.534676,1.57644
236,196.841382,73.731594,-10.803388,-0.018311,-0.660899,1.506615
238,173.464561,72.449836,3.540093,0.072145,-0.8326540000000001,1.5793700000000002
240,159.67040500000002,59.266041,6.836042,0.334478,-1.319356,1.297017
242,122.86564399999999,58.472572,-16.052491,0.9201799999999999,-1.877836,0.505989
244,49.988556,58.04531899999999,-47.669184,0.650278,-2.0000310000000003,0.033082
246,-18.066682,-24.597542999999998,-14.648660999999999,0.006958,-1.5801020000000001,0.370123
248,-152.651255,-147.280079,21.972992,0.573495,-0.9748680000000001,-0.033326
250,-99.671931,-39.00206,-21.362631,-0.681773,0.627939,1.451804
252,-195.193408,-85.389487,23.010604999999998,-0.6578470000000001,0.20630199999999999,0.448981
254,-229.373617,-70.679789,49.622339000000004,0.175784,-0.142092,1.918853
256,-130.55619099999998,-31.860838,20.813306,1.0477450000000001,-0.02417,1.9999689999999999
258,-101.136797,4.638743,-9.277485,-0.35291100000000003,-0.015869,1.470237
260,-86.793317,8.239872,23.682002,-0.6058439999999999,-0.0028079999999999997,1.3913790000000001
262,-28.992141999999998,-17.822538,14.526589000000001,0.48133100000000006,0.11914200000000001,1.474266
264,-33.752956,-3.90631,12.756542,-0.292485,-0.06579700000000001,1.052262
266,-21.972992,-22.705425,11.413748,0.205936,0.101564,1.162005
268,-22.46128,-15.381094000000001,9.155413000000001,-0.194705,0.073732,0.901503
270,-30.701152,-25.207904,8.178836,0.051881,0.085084,1.0208899999999999
272,-29.419394,-20.752270000000003,6.591897,0.018433,0.055421000000000005,1.057267
274,-25.513085,-14.953841,2.563516,0.041749,0.051514,1.077287
276,-27.100022999999997,-12.024109,0.671397,-0.032837,0.062989,0.919326
278,-34.424353,-10.376135000000001,1.09865,-0.02356,-0.010254000000000001,1.030167
280,-27.771420000000003,-6.2867169999999994,0.0,-0.004639,-0.008545,1.119524
282,-21.362631,-3.6621650000000003,0.48828900000000003,-0.013306,-0.0074459999999999995,1.023575
284,-14.892805,-2.4414439999999997,0.732433,-0.01355,-0.066651,1.029923
286,-10.009917999999999,-2.929732,0.732433,-0.012206999999999999,-0.026246,1.023819
288,-9.948882000000001,-3.051804,0.732433,-0.009766,-0.000488,0.998917
290,-13.183795000000002,-2.380407,0.793469,-0.003906,-0.0037840000000000005,0.9858549999999999
292,-11.841001,-2.50248,1.70901,0.021851,-0.024781,0.944961
294,-9.643702000000001,-0.9155409999999999,0.48828900000000003,0.000732,-0.040406,1.034928
296,-6.2867169999999994,0.122072,1.037613,-0.003906,-0.033326,1.016983
298,-5.61532,-0.366217,1.037613,-0.016846,-0.023072,0.993301
300,-7.01915,-2.929732,0.671397,-0.020752,-0.024413999999999998,0.9781639999999999
302,-8.42298,-6.042573,0.244144,-0.017945,-0.039550999999999996,0.9994049999999999
304,-7.507439,-6.836042,0.366217,-0.014038,-0.031617,0.9790190000000001
306,-10.254063,-8.1178,-0.671397,-0.064454,-0.094362,1.020157
308,-15.991454999999998,-7.751583,0.793469,0.006958,-0.020508000000000002,0.984878
310,-23.498894,-5.737392,2.50248,-0.001099,-0.06836,1.013809
312,-19.836728,-5.61532,2.2583349999999998,-0.012573,-0.053101,1.012833
314,-17.94461,-5.3101400000000005,1.647974,0.000977,-0.08276499999999999,1.003433
316,-14.160372,-3.6011290000000002,3.234913,-0.001221,-0.05651900000000001,0.9826809999999999
318,-21.484703,-3.540093,3.784237,0.015747,0.013062,0.924941
320,-35.584039000000004,-4.760815,2.197299,-0.060303999999999996,-0.015259,0.970108
322,-51.026169,-6.347753,2.4414439999999997,-0.044923000000000005,-0.050294,0.984146
324,-52.613108,-3.967346,1.09865,0.043458,-0.121584,1.013565
326,-54.932479,-3.845274,-5.432212,-0.008301000000000001,-0.11645699999999999,0.75697
328,-57.434957999999995,-9.399557000000001,-14.892805,0.022095,-0.261479,1.0095370000000001
330,-50.171664,-4.455634,-8.667124000000001,0.059083000000000004,-0.203372,1.026505
332,-65.857939,0.122072,-13.305867000000001,-0.025635,0.14905,0.873426
334,-158.571756,4.638743,-7.934691,-0.090822,0.210452,0.728405
336,-214.297704,-29.968719,-26.428626,-0.145754,0.722789,1.0717940000000001
338,-583.62707,-53.589684999999996,13.977264000000002,-0.303227,0.308354,1.838773
340,-738.231479,-121.095598,16.662851999999997,-0.18115499999999998,-0.187137,0.9194479999999999
342,-626.901656,-45.044633000000005,173.098344,-1.802884,-1.014054,1.9999689999999999
344,266.971847,9.155413000000001,8.911269,-0.38172,0.89723,1.36733
346,-26.977951,-52.368963,117.18928799999999,-0.124025,0.184695,0.42298
348,57.923246999999996,-51.392386,61.890593,0.352667,0.6307470000000001,0.135012
350,68.36041800000001,-12.207218,8.911269,0.34876,0.564584,1.035416
352,104.921035,-5.249104,-24.780652,0.02295,0.431403,1.1856870000000002
354,165.59090600000002,-19.958801,-34.851606,-0.15967,0.326299,1.104875
356,203.677424,-5.0049589999999995,-34.485389,-0.303838,0.116335,1.045792
358,227.054246,18.371862,-21.972992,-0.378058,-0.033569999999999996,0.9896389999999999
360,244.937819,18.188754,-1.7700470000000001,-0.303105,-0.119387,1.163592
362,267.21599100000003,17.700464999999998,5.61532,-0.049683,-0.153079,1.2646680000000001
364,280.76600299999996,34.668498,-4.638743,0.117067,-0.21313800000000002,1.202045
366,261.905852,62.195772999999996,-17.883574,0.15613,-0.433967,0.850721
368,222.110323,69.398032,-22.339208,0.15905999999999998,-0.403937,1.058366
370,197.940032,62.623026,-20.508125,0.171389,-0.25977,1.9999689999999999
372,236.942092,50.049592,-25.391012,0.256352,-0.40222800000000003,1.9999689999999999
374,252.506294,46.631571,-34.79057,0.140139,-0.568734,1.9999689999999999
376,273.25856400000004,46.143282,-41.138323,0.088136,-0.7149770000000001,1.784573
378,250.06485099999998,54.749371,-46.692607,0.134279,-0.728038,1.627222
380,228.580148,67.750057,-57.190814,0.203983,-0.8216680000000001,1.5355459999999999
382,197.634852,80.567636,-63.355458999999996,0.18274200000000002,-1.051408,1.183124
384,153.87197700000002,79.65209399999999,-61.097124,0.23022800000000002,-1.534325,1.056291
386,101.075761,99.916075,-39.368276,0.290898,-2.0000310000000003,0.6058439999999999
388,41.382467,54.016938,-11.841001,0.262577,-2.0000310000000003,-0.587778
390,-55.054551000000004,-58.960861,38.879988,0.115602,-1.42385,0.678599
392,-205.75265100000001,-152.16296599999998,58.228428,0.312749,-0.9045549999999999,0.7325550000000001
394,-96.864271,-49.011978000000006,38.69688,-0.354986,1.0747229999999999,1.8653849999999998
396,-228.27496800000003,-94.78904399999999,47.058824,0.655406,-0.155642,0.18457300000000001
398,-237.979706,-26.855878999999998,34.424353,0.73341,0.066285,1.9999689999999999
400,-126.77195400000001,32.410163,-9.704738,0.375494,0.029053,1.6692150000000001
402,-132.14313,30.579079999999998,14.831769,-1.258076,-0.23181500000000002,1.9999689999999999
404,-48.584726,-38.025483,35.584039000000004,0.093751,0.278935,1.199725
406,-44.61738,-31.799802000000003,15.625238000000001,-0.11950899999999999,0.041871,1.2131530000000001
408,-26.245518,-58.899825,15.564201999999998,0.070924,0.046508999999999995,1.153094
410,-31.311513,-36.926833,9.52163,-0.003418,0.024781,1.171527
412,-24.597542999999998,-26.184482,9.277485,0.088502,0.079713,1.101213
414,-24.109254999999997,-14.465553,7.01915,-0.029664,0.087404,1.0196690000000002
416,-25.818265,-8.484016,2.929732,0.004883,0.034546,1.01442
418,-28.198672,-7.6905470000000005,2.929732,-0.009276999999999999,-0.003296,1.047135
420,-26.123445,-4.333562000000001,2.685588,-0.014893,-0.023926,1.078141
422,-19.531548,-0.976577,2.685588,-0.044923000000000005,0.001709,1.023575
424,-15.259022,-1.7700470000000001,2.2583349999999998,-0.049073,0.000122,0.993301
426,-15.014878,-4.089418,1.586938,-0.028687,-0.001343,0.9969629999999999
428,-11.963073,-4.5166699999999995,1.8921189999999999,-0.009644,-0.05774,0.9078510000000001
430,-15.747310999999998,-4.333562000000001,2.075227,-0.031617,0.001953,1.0048979999999998
432,-19.714656,-4.882887,2.685588,-0.042969,-0.016236,0.98146
434,-20.141909,-7.6905470000000005,2.319371,-0.035279000000000005,-0.03003,0.9939120000000001
436,-19.836728,-10.803388,1.70901,-0.018311,0.000366,0.985489
438,-18.860151000000002,-8.361944,0.671397,-0.02417,-0.031495,1.014298
440,-20.080873,-4.943923000000001,0.793469,-0.014038,-0.053834,1.030411
442,-17.273213000000002,-2.136263,1.342794,-0.007568000000000001,-0.070314,1.030777
444,-13.427939000000002,-1.525902,1.70901,-0.00647,-0.064088,1.034684
446,-9.277485,-0.366217,2.50248,-0.006104,-0.06347799999999999,0.992691
448,-13.977264000000002,-1.953155,3.051804,-0.028808999999999998,-0.029053,0.9747459999999999
450,-20.202945,-2.014191,2.319371,-0.012329000000000001,-0.046265,0.957656
452,-26.123445,0.48828900000000003,4.028382,-0.001099,-0.064332,1.000259
454,-30.823224,-1.09865,4.943923000000001,-0.032958999999999995,-0.051514,0.942031
456,-36.560615999999996,-6.103609,3.1128400000000003,-0.029175,-0.08923500000000001,1.021988
458,-35.09575,-6.347753,2.868696,0.037598,-0.100221,1.0196690000000002
460,-35.461967,-4.455634,3.723201,0.0058590000000000005,-0.10351700000000001,0.984634
462,-42.175937,-4.272526,5.676356,-0.016724,-0.11840999999999999,1.0048979999999998
464,-40.039673,-4.638743,4.028382,-0.013306,-0.125612,1.076066
466,-19.470512,-1.464866,2.990768,-0.06421,-0.048341,1.027726
468,-59.63225799999999,-14.770732999999998,-14.892805,-0.068727,-0.148318,1.0204010000000001
470,-38.513771000000006,-10.009917999999999,-5.859464,0.012206999999999999,-0.140871,1.0207680000000001
472,-51.514458000000005,-8.606088,-10.986496,-0.012695999999999999,-0.160403,0.9896389999999999
474,-76.478218,-10.070953999999999,-21.484703,-0.032593000000000004,0.032593000000000004,0.930068
476,-132.387274,-6.469825,-2.563516,-0.095338,0.22693200000000002,0.81471
478,-272.89234799999997,-31.616692999999998,-45.960174,0.26306599999999997,0.8767219999999999,1.295186
480,-673.960479,23.132676999999997,-3.6011290000000002,-0.13135,0.180179,1.183734
482,-857.984283,-13.794156,22.46128,0.059327,-1.0918139999999998,1.282002
484,-185.793851,-71.473259,-30.640116,-1.137835,-2.0000310000000003,1.9999689999999999
486,101.930266,-46.265353999999995,9.277485,-0.571908,1.193133,1.9999689999999999
488,44.861523999999996,-73.79263,77.759976,0.074464,0.225345,0.705699
490,39.490349,-59.14396899999999,39.795528999999995,0.25451999999999997,0.567391,0.469368
492,84.657053,-26.245518,-4.21149,0.177981,0.624033,0.8768440000000001
494,123.292897,-35.217822999999996,-28.259709,-0.006592,0.5372399999999999,1.240009
496,186.648356,-40.344854,-39.368276,-0.165042,0.4159,1.4427709999999998
498,252.93354700000003,-22.1561,-39.00206,-0.255253,0.17260999999999999,1.314717
500,287.541009,-1.2207219999999999,-32.166018,-0.20691199999999998,-0.056886,0.783825
502,286.015106,-10.925460000000001,-26.428626,-0.044556,-0.075563,0.672862
504,279.423209,-1.09865,-37.659265999999995,0.020263999999999997,-0.135378,0.9719389999999999
506,259.830625,46.509499,-47.791257,-0.14343499999999998,-0.363531,1.246113
508,259.830625,49.805446999999994,-41.504540000000006,-0.135134,-0.368292,1.358541
510,240.848402,68.421454,-30.151827,-0.254154,-0.514046,1.873075
512,238.83421099999998,101.747158,-8.056764,-0.330205,-0.6160979999999999,1.9999689999999999
514,262.699321,85.450523,15.503166,-0.088502,-0.696666,1.9999689999999999
516,304.325933,84.412909,14.404517000000002,0.111452,-0.809094,1.9869689999999998
518,284.55024,85.69466700000001,9.704738,0.21911999999999998,-0.788098,1.829618
520,266.788739,86.12191999999999,-4.028382,0.37903400000000004,-0.820081,1.7856720000000001
522,240.97047400000002,83.192187,-16.052491,0.200809,-1.242206,1.379049
524,176.638437,99.24467800000001,-28.442816999999998,0.24756199999999998,-2.0000310000000003,1.01149
526,88.624399,178.713664,-60.730906999999995,0.663706,-2.0000310000000003,0.812879
528,47.364004,139.650568,-43.030442,0.150637,-2.0000310000000003,-0.725353
530,-140.627146,-147.951476,33.752956,0.229496,-2.0000310000000003,-1.358175
532,-169.37514299999998,-171.816587,39.124132,-0.121218,-0.397345,1.9999689999999999
534,-163.088426,-74.341955,73.731594,-0.6030369999999999,0.635508,0.932753
536,-264.46936800000003,-92.408637,83.98565699999999,1.014176,-0.05005,0.9871979999999999
538,-225.528344,-43.091478,41.016251000000004,1.569238,-0.182498,1.9999689999999999
540,-142.64133700000002,18.860151000000002,-8.300908,-0.554086,-0.028199000000000002,1.53225
542,-110.902571,-80.384527,54.44419,-0.984024,-0.5987640000000001,0.885878
544,-94.30075500000001,-112.24536499999999,29.114214,1.9131150000000001,0.060426,1.9999689999999999
546,-62.134737,-40.40589,9.82681,-0.560678,-0.10815599999999999,1.173114
548,-49.073014,-26.794842,-0.976577,0.131716,0.027222000000000003,1.069108
550,-37.842374,-36.438544,4.699779,0.147707,-0.001831,1.1154959999999998
552,-37.109941,-25.452049,2.136263,-0.067384,-0.023681999999999998,1.081926
554,-31.494621000000002,-19.226368,1.647974,0.050660000000000004,-0.037476,1.132586
556,-18.799115,-13.122759,1.159686,0.082399,-0.056031,1.027726
558,-15.930419,-8.42298,1.464866,0.037598,-0.01709,1.047013
560,-17.212177,-5.9205,1.647974,0.029907999999999997,-0.054565999999999996,1.016617
562,-16.84596,-4.943923000000001,0.732433,0.052979,-0.076173,0.996475
564,-16.174563,-3.784237,0.671397,0.060548000000000005,-0.034058,0.983658
566,-15.869383,-3.418021,0.48828900000000003,0.050904000000000005,-0.069703,0.9587549999999999
568,-17.94461,-5.3101400000000005,0.183108,0.015991,-0.07055800000000001,1.022477
570,-20.325017000000003,-7.263294,-0.549325,0.042237000000000004,-0.069825,0.9779200000000001
572,-17.639429,-8.056764,-1.159686,0.045045,-0.08447400000000001,1.0278479999999999
574,-13.488975,-4.150454,-1.586938,0.07019199999999999,-0.11316099999999998,1.0512860000000002
576,-8.667124000000001,-1.464866,0.0,0.059571000000000006,-0.0907,0.997818
578,-8.178836,-1.8310830000000002,-0.6103609999999999,0.066285,-0.078737,0.9942780000000001
580,-10.681315,-1.2207219999999999,-0.9155409999999999,0.043946,-0.07837000000000001,0.983902
582,-13.000687,-1.40383,-1.037613,0.052735000000000004,-0.093874,1.0040440000000002
584,-15.564201999999998,-1.09865,-1.09865,0.046508999999999995,-0.072145,0.974258
586,-19.470512,-0.732433,-1.09865,0.055177,-0.075807,0.9969629999999999
588,-26.062409,-0.427253,-1.342794,0.050294,-0.089479,0.988296
590,-32.532235,1.7700470000000001,-0.48828900000000003,0.088746,-0.114015,0.9873200000000001
592,-34.302281,5.737392,6.591897,0.074952,-0.147829,0.98854
594,-38.269627,9.338521,9.948882000000001,0.048585,-0.160403,1.0442049999999998
596,-25.818265,5.493248,4.150454,0.025147,-0.099977,0.98793
598,-38.452735,3.295949,-8.056764,-0.049439,-0.14038299999999998,0.982193
600,-22.46128,-7.324331,-17.395285,-0.022705,-0.366217,1.131609
602,7.9957270000000005,-7.751583,-11.047532,0.172,-0.12231600000000001,1.082292
604,-56.397344999999994,17.029068,-0.793469,0.100221,-0.007935,0.989273
606,-92.530709,25.024796,-16.662851999999997,-0.050416,0.37585999999999997,0.894667
608,-201.602197,-5.859464,7.385367,-0.419684,-0.216678,0.6892199999999999
610,-332.280461,-56.580453000000006,-1.464866,-0.07800399999999999,0.192386,1.692775
612,-650.8278019999999,-199.22179,47.241932,0.156619,-0.194217,0.934951
614,-762.1576259999999,-152.834363,59.876402,0.41077299999999994,-0.367559,1.025895
616,-509.34615099999996,5.981537,95.033188,-0.45178900000000005,-0.813611,1.9999689999999999
618,148.439765,49.195087,-87.769894,0.078614,0.989151,1.9999689999999999
620,21.972992,-38.147555,-1.464866,-0.22180500000000003,0.28833400000000003,1.8661169999999998
622,200.320439,25.818265,-2.990768,-0.227665,0.232792,0.382208
624,136.842908,27.161059,13.611048,-0.091432,-0.027832,0.220829
626,143.190661,6.897078,13.305867000000001,0.166384,0.167849,0.479988
628,166.9337,-5.127031,-9.155413000000001,0.349615,0.296269,1.1074389999999998
630,201.41908899999999,22.339208,-40.10071,0.283696,0.21338200000000002,1.265644
632,240.115969,37.29305,-51.697565999999995,0.076173,-0.014527000000000002,1.255634
634,266.971847,45.227740999999995,-43.21355,0.003296,-0.186282,1.125628
636,274.601358,52.73518000000001,-31.006332,0.19409500000000002,-0.21008600000000002,1.053117
638,269.840543,51.270314,-42.236973,0.517464,-0.262943,1.247211
640,266.361486,51.63653,-66.83451600000001,0.547982,-0.297978,1.509911
642,270.14572400000003,54.13901,-87.769894,0.463996,-0.503059,1.7912869999999999
644,268.619821,68.055238,-96.55909100000001,0.271733,-0.663828,1.670436
646,249.027237,74.769207,-92.469673,0.206058,-0.698863,1.3077590000000001
648,212.03936800000002,69.947356,-84.107729,0.195682,-0.611093,1.7627220000000001
650,216.372931,67.383841,-79.346914,0.209842,-0.63563,1.9999689999999999
652,229.06843700000002,86.671244,-73.487449,0.10779000000000001,-0.76466,1.6556650000000002
654,195.37651599999998,99.427787,-52.063783,0.015381,-0.973037,1.315328
656,164.919509,91.615167,-26.123445,0.12487999999999999,-1.215717,1.326436
658,133.791104,95.887694,-21.179522,0.495857,-1.7519799999999999,1.160174
660,102.296483,129.762722,-36.377508,0.46179899999999996,-2.0000310000000003,0.34729499999999996
662,20.935378,82.03250200000001,1.525902,0.091432,-2.0000310000000003,-0.545296
664,-137.819486,-112.672618,57.434957999999995,0.21765500000000002,-1.9194630000000001,-1.32253
666,-105.287251,-139.46746000000002,40.039673,0.41248199999999996,0.125612,1.8407259999999999
668,-201.785306,-94.17868299999999,53.894865,-0.25806100000000004,0.617319,1.1488209999999999
670,-231.021592,-91.676204,59.693293999999995,0.655406,-0.22876300000000002,0.587167
672,-222.354467,-36.377508,20.691233999999998,1.473899,-0.10852200000000001,1.9999689999999999
674,-123.72015,31.128404999999997,-6.042573,-1.045426,-0.107301,1.84329
676,-52.368963,-85.816739,42.420081,-0.542,-0.252079,0.674327
678,-59.937438,-50.415808,8.728161,1.057633,-0.121584,1.7413599999999998
680,-48.157472999999996,-56.275273,10.193027,-0.149172,-0.002075,1.055192
682,-49.195087,-30.457008000000002,2.929732,0.06640700000000001,0.055542999999999995,1.26833
684,-18.371862,-27.466239,-4.8218510000000006,0.130129,0.047608,1.048234
686,-22.583351999999998,-16.235599,1.7700470000000001,0.038209,-0.050416,1.1030440000000001
688,-19.958801,-6.408789,2.136263,0.035523,-0.03418,1.079118
690,-10.254063,-4.760815,2.014191,0.060426,-0.073732,0.98793
692,-8.667124000000001,-3.234913,1.8310830000000002,0.030518,-0.017578,0.982559
694,-11.963073,-4.760815,0.671397,0.023438,-0.013306,0.957046
696,-11.657893,-4.333562000000001,2.075227,0.046387,-0.029297000000000004,1.037613
698,-8.545052,-2.380407,1.342794,0.032349,-0.054688,1.002579
700,-5.859464,-2.2583349999999998,1.037613,0.059937,-0.09765800000000001,0.9633940000000001
702,-5.065995,-2.014191,0.30518,0.038452999999999994,-0.058227999999999995,1.0199129999999998
704,-4.394598,-3.1128400000000003,1.09865,0.019409,0.059937,1.017105
706,-7.446403,-5.0049589999999995,0.244144,0.040284,-0.031617,0.98146
708,-6.71397,-5.61532,-0.854505,0.038331,-0.0636,0.984024
710,-6.71397,-6.042573,-0.549325,0.049805,-0.029786,1.023941
712,-3.295949,-3.479057,0.0,0.059083000000000004,-0.004273,1.03859
714,-1.281758,-0.549325,0.549325,0.049317,-0.04358,1.009049
716,-2.80766,-0.549325,1.037613,0.048829000000000004,-0.026978,0.987442
718,-5.0049589999999995,0.061036,0.732433,0.050294,-0.044312,0.9660790000000001
720,-8.361944,-0.671397,0.30518,0.034668,-0.022461000000000002,0.9514309999999999
722,-17.334249,-5.065995,-0.48828900000000003,0.040894,-0.007691,0.950942
724,-24.170291,-6.225681,-0.854505,0.071534,-0.013672,0.985367
726,-28.747996999999998,-5.188067,0.244144,0.060303999999999996,-0.063966,0.9903719999999999
728,-25.085832,-0.061036,3.356985,0.08996699999999999,-0.102174,0.9817040000000001
730,-27.283131,2.380407,4.699779,0.023681999999999998,-0.042359,0.976699
732,-34.79057,-0.854505,0.732433,-0.000244,-0.06836,0.929702
734,-60.730906999999995,4.150454,1.40383,-0.05774,-0.018799,1.035416
736,-66.04104699999999,5.0049589999999995,-2.2583349999999998,0.011840999999999999,-0.099245,1.054826
738,-62.928206,2.685588,0.30518,-0.110231,-0.16589600000000002,1.079728
740,-26.245518,-7.01915,-7.568475,0.171756,-0.286015,1.08571
742,-6.775005999999999,-1.647974,7.934691,0.212772,-0.054565999999999996,1.083513
744,-84.962234,32.715343,-4.882887,-0.30041999999999996,0.632212,1.9999689999999999
746,-239.44457200000002,19.897765,-51.33135,0.107057,0.077638,-0.0058590000000000005
748,-315.251392,-89.23476,-22.095064,-0.440925,0.20141900000000001,1.585718
750,-713.5729,-270.450904,56.702525,0.137697,0.009766,1.648707
752,-830.395972,-214.66392000000002,61.34126800000001,0.408942,-0.101564,0.802136
754,-425.177386,-10.498207,86.549172,-0.643809,-0.565316,1.9999689999999999
756,281.010147,82.398718,-105.470359,-0.31043000000000004,1.3716030000000001,1.910796
758,27.466239,-44.495308,9.155413000000001,-0.666636,0.195071,0.7131460000000001
760,176.333257,0.48828900000000003,11.596857,-0.36597199999999996,0.318853,0.26038
762,121.03456200000001,27.100022999999997,16.540779999999998,-0.291142,0.133425,0.7855340000000001
764,172.365911,24.841688,20.630198,-0.162722,0.30554699999999996,1.141985
766,224.979019,31.616692999999998,13.550010999999998,0.170779,0.168826,1.371237
768,255.06981000000002,78.492409,-15.808347,0.25037,-0.120851,1.219379
770,276.493477,75.684749,-22.827497,0.125612,-0.28174299999999997,0.879408
772,272.22095099999996,52.307927,-18.799115,0.25977,-0.264286,1.022232
774,264.286259,63.355458999999996,-31.006332,0.44031400000000004,-0.289921,1.305074
776,262.211032,76.722362,-45.899138,0.377081,-0.450446,1.568139
778,268.009461,71.534295,-47.119859999999996,0.228519,-0.585458,1.660548
780,267.3991,62.317845,-38.818952,0.076539,-0.6633399999999999,1.604517
782,253.54390800000002,69.764248,-32.104982,0.12146199999999999,-0.595712,1.517601
784,229.922942,86.549172,-32.410163,0.235355,-0.519295,1.576928
786,212.77180099999998,94.11764699999999,-30.762188000000002,0.242802,-0.540169,1.652369
788,195.803769,81.666285,-22.522316,0.17810299999999998,-0.617441,1.648829
790,180.239567,50.415808,-12.390326,0.134524,-0.72755,1.910063
792,186.70939199999998,44.678416,-21.118485999999997,0.3523,-1.038102,1.757107
794,152.956436,108.827344,-55.481804000000004,0.755138,-1.949859,1.509422
796,151.30846100000002,221.194781,-83.741512,0.386847,-2.0000310000000003,0.115969
798,39.795528999999995,99.610895,-9.033341,-0.070436,-2.0000310000000003,-1.422995
800,-78.797589,-126.649882,60.364691,0.312749,-1.310689,0.22876300000000002
802,-92.652781,-128.603037,58.960861,0.24329,-0.7542840000000001,1.6085450000000001
804,-111.45189599999999,-109.07148899999999,54.20004599999999,-0.156619,0.7486689999999999,1.24184
806,-136.6598,-70.49668100000001,49.317159000000004,-0.289433,0.903334,-0.338018
808,-334.41672400000004,-91.187915,67.505913,0.6540630000000001,-0.437507,1.133318
810,-265.506981,-28.137635999999997,18.005646,1.381247,-0.332403,1.9999689999999999
812,-159.426261,-33.325703999999995,22.217136,-1.588159,-0.843397,1.9999689999999999
814,-28.870069,-87.159533,26.794842,1.7086439999999998,0.427008,1.9999689999999999
816,-46.082246000000005,5.493248,12.756542,-0.9279930000000001,-0.068727,1.0897379999999999
818,-17.151141,-33.264668,-0.30518,0.490608,0.147341,1.237934
820,-20.263981,-24.719615,0.9155409999999999,-0.07837000000000001,-0.055299,1.1734799999999999
822,-16.968032,-16.296635000000002,0.427253,0.06067,-0.008667,1.093645
824,2.014191,-14.221407999999998,0.671397,0.083253,0.10009900000000001,0.954116
826,-17.334249,-10.742351,3.234913,0.001343,0.018677000000000003,0.970474
828,-22.1561,-9.765774,3.6621650000000003,0.040162,0.013672,0.972671
830,-23.559929999999998,-11.352712,1.7700470000000001,0.012451,-0.009888,1.05861
832,-16.540779999999998,-11.169604,1.40383,0.025269,-0.011475,1.032975
834,-11.902037,-9.033341,1.09865,0.050904000000000005,0.007201999999999999,1.043351
836,-8.1178,-6.408789,0.183108,0.02417,0.07128999999999999,1.03505
838,-18.127717999999998,-7.080186,1.037613,0.014405000000000001,0.001831,0.9049209999999999
840,-29.907683000000002,-7.812619000000001,0.976577,0.043824,-0.014159999999999999,1.014054
842,-23.926146,-3.479057,1.159686,0.053101,-0.048463,1.0365149999999999
844,-21.301595000000002,-0.9155409999999999,2.014191,0.026978,-0.060426,1.026505
846,-17.090104999999998,-1.464866,1.2207219999999999,0.017578,-0.039429,0.9903719999999999
848,-19.043259,-3.845274,0.30518,0.028443,-0.034302,0.985611
850,-18.432898,-4.638743,-0.366217,0.052613,-0.063966,1.034195
852,-13.183795000000002,-3.173877,-0.122072,0.064942,-0.091676,1.042252
854,-8.667124000000001,-0.549325,0.671397,0.048707,-0.07727200000000001,1.00502
856,-9.460594,-1.525902,0.427253,0.028321,-0.040527999999999995,0.962417
858,-17.334249,-3.90631,-0.427253,0.033936,-0.051881,0.9705959999999999
860,-19.958801,-5.493248,-0.9155409999999999,0.029419,-0.060182000000000006,0.9716950000000001
862,-26.611734000000002,-4.21149,-1.70901,0.047486,-0.0636,0.9867090000000001
864,-27.405203000000004,-1.8310830000000002,-1.586938,0.043946,-0.09192,1.038834
866,-26.367590000000003,0.0,-0.427253,0.065309,-0.11511400000000001,1.010025
868,-34.668498,5.493248,6.469825,0.056764,-0.11926500000000001,1.018936
870,-30.945296000000003,7.324331,8.239872,0.075196,-0.071412,0.948257
872,-41.931792,6.2867169999999994,5.7984279999999995,0.020874,-0.09765800000000001,0.984634
874,-38.879988,5.3101400000000005,-0.30518,0.007812999999999999,-0.18323,0.976211
876,-46.753643,1.281758,-13.366903,-0.002564,-0.21521300000000002,1.04567
878,-13.427939000000002,-5.859464,-7.6905470000000005,0.036866,-0.365118,0.9508200000000001
880,-5.981537,0.732433,0.671397,0.126467,-0.077638,0.9969629999999999
882,-56.397344999999994,13.244831,-12.207218,0.147707,0.056031,0.972549
884,-147.402152,22.583351999999998,-27.893492,-0.058961,0.41846300000000003,0.746105
886,-262.394141,-19.775692000000003,-27.100022999999997,-0.065309,0.8569469999999999,0.9087049999999999
888,-601.2664990000001,-84.901198,13.061722999999999,-0.902358,-0.070314,1.561303
890,-761.364157,-190.615702,66.77348,0.153567,-0.203983,0.8808729999999999
892,-969.74136,-170.90104499999998,188.479438,-0.6524760000000001,-0.8997940000000001,1.9999689999999999
894,328.618296,-11.291675999999999,-39.856565,-0.19067699999999999,0.439094,1.9999689999999999
896,10.193027,-12.817578,26.123445,-0.736584,0.639048,1.033463
898,132.753491,-10.498207,34.668498,-0.36780300000000005,0.199954,0.408087
900,72.632944,-10.009917999999999,42.664225,-0.10473800000000001,0.252689,0.513313
902,130.80033600000002,8.850233,26.733806,0.0015869999999999999,0.361334,1.0622719999999999
904,180.05645800000002,-5.859464,12.085144999999999,0.064332,0.30054200000000003,1.363546
906,227.54253500000002,8.178836,-10.864424,0.135134,0.194461,1.250019
908,259.586481,30.395971999999997,-31.250477000000004,0.073121,-0.06958099999999999,1.087175
910,272.159915,31.067369,-42.420081,0.08215499999999999,-0.28101,0.902235
912,269.047074,25.635157,-50.598917,0.10620299999999999,-0.299077,0.9747459999999999
914,259.952697,32.043946000000005,-61.219196,0.14966,-0.349248,1.4693829999999999
916,266.056306,54.505226,-71.534295,0.148318,-0.5629970000000001,1.770291
918,275.638972,70.008392,-69.703212,0.032715,-0.776623,1.6916759999999997
920,265.568017,75.013352,-50.415808,-0.131838,-0.8917370000000001,1.5006329999999999
922,242.43534,79.10276999999999,-20.874342000000002,-0.099367,-0.7827270000000001,1.4062709999999998
924,217.34950800000001,83.863584,-1.40383,0.133913,-0.634409,1.423239
926,195.86480500000002,75.31853199999999,1.586938,0.377325,-0.500862,1.626001
928,195.132372,63.599603,-12.207218,0.460578,-0.47071,1.807034
930,200.503548,56.519417000000004,-29.297321999999998,0.305425,-0.599985,1.747585
932,194.460975,56.092164000000004,-37.90341,0.159915,-0.881483,1.4612040000000002
934,157.96139499999998,78.126192,-35.09575,0.139284,-1.490623,1.122942
936,109.43770500000001,95.704585,-22.522316,0.45838100000000004,-2.0000310000000003,0.914443
938,84.534981,123.10978899999999,-13.305867000000001,0.320439,-2.0000310000000003,-0.094972
940,-23.376822,14.343481,46.204318,0.040406,-1.9429009999999998,-1.7995880000000002
942,-228.580148,-201.846342,40.10071,1.349142,-1.022232,0.43421099999999996
944,-137.636378,-117.00618,8.850233,-0.398688,1.280537,1.9999689999999999
946,-250.186923,-96.681163,29.17525,-0.5141680000000001,-0.5234449999999999,0.1355
948,-257.267109,-86.793317,62.928206,0.7121689999999999,-0.089357,1.9999689999999999
950,-99.732967,-20.386053,13.977264000000002,0.688609,-0.063722,1.867582
952,-150.576028,-18.432898,28.442816999999998,-0.567391,-0.404181,1.9999689999999999
954,-40.039673,-52.002747,12.512398,0.8330209999999999,0.087404,1.746731
956,-52.185855,-7.385367,8.056764,-0.359747,0.041016000000000004,1.043839
958,-32.532235,-24.536507,-2.075227,0.174075,0.057374,1.105486
960,-24.719615,-20.691233999999998,-4.943923000000001,0.022338999999999998,-0.072877,1.156634
962,-23.559929999999998,-10.376135000000001,-0.48828900000000003,0.036011,-0.011353,1.066789
964,-13.183795000000002,-6.469825,1.8921189999999999,0.050416,0.023804,1.026017
966,-16.662851999999997,-4.943923000000001,2.990768,0.034546,-0.01355,1.044694
968,-13.000687,-4.333562000000001,2.014191,0.026123,-0.004883,1.018204
970,-9.399557000000001,-6.530861,3.356985,0.037964,0.030762,0.932753
972,-9.704738,-7.080186,1.586938,0.016846,-0.01294,1.019425
974,-9.338521,-8.361944,2.50248,0.015137000000000001,0.025513,0.9837799999999999
976,-8.911269,-10.376135000000001,1.342794,0.043824,-0.015015,1.0509190000000002
978,-5.0049589999999995,-5.432212,1.647974,0.037598,-0.037354000000000005,0.9823149999999999
980,-5.432212,-3.967346,2.197299,0.021241,0.010498,1.012222
982,-4.5166699999999995,-5.3101400000000005,1.8310830000000002,0.006958,-0.005615,0.989029
984,-7.568475,-8.789197,1.2207219999999999,-0.015381,0.022461000000000002,0.960708
986,-11.169604,-13.061722999999999,0.122072,0.023194,0.008423,0.949233
988,-17.822538,-13.977264000000002,-0.183108,0.042969,-0.030518,1.0040440000000002
990,-16.601816,-11.352712,0.122072,0.05712999999999999,-0.038087,1.0116120000000002
992,-14.404517000000002,-7.9957270000000005,0.30518,0.054688,-0.03418,0.9820709999999999
994,-17.334249,-6.958114,0.671397,0.062013,-0.033692,0.9939120000000001
996,-22.888533,-6.408789,0.793469,0.066285,-0.021729,0.992081
998,-25.207904,-6.103609,1.159686,0.05359,-0.039185000000000005,0.977188
1000,-27.893492,-5.493248,1.586938,0.06225700000000001,-0.069337,1.054948
1002,-26.001373,0.244144,1.7700470000000001,0.071168,-0.054810000000000005,1.059831
1004,-28.564889,-0.427253,0.366217,0.035279000000000005,-0.052125,0.9979399999999999
1006,-31.372549,0.976577,1.342794,0.11950899999999999,-0.018311,0.968399
1008,-43.335622,7.080186,6.591897,0.06274500000000001,-0.150515,1.028946
1010,-45.960174,9.216449,7.263294,0.009522,-0.106813,1.016251
1012,-42.542153000000006,6.164645,1.342794,0.017212,-0.111818,0.987442
1014,-51.33135,2.624552,-11.352712,0.018799,-0.21741100000000002,1.0477450000000001
1016,-12.390326,-5.432212,-9.52163,0.044556,-0.356939,1.041276
1018,-28.809033000000003,10.131991000000001,2.319371,0.137942,-0.14538800000000002,1.115007
1020,-53.71175699999999,15.930419,-6.164645,0.071778,0.156374,0.925307
1022,-158.32761100000002,26.184482,-2.319371,-0.109377,0.406622,0.690318
1024,-264.71351200000004,-18.432898,11.413748,0.15552,1.151263,0.831067
1026,-640.0854509999999,-99.000534,66.163119,-0.637827,0.162722,1.9999689999999999
1028,-804.272526,-166.079194,79.957275,0.178592,-0.160647,0.943008
1030,-498.17654699999997,-85.08430600000001,132.14313,-0.8875870000000001,-1.617212,1.9999689999999999
1032,250.186923,44.251164,-39.734493,0.030151999999999998,1.3355920000000001,1.536767
1034,-63.477531000000006,-31.311513,43.762875,-0.23559899999999998,0.22571100000000002,0.456916
1036,86.4271,-18.616007,11.291675999999999,-0.023438,0.46558299999999997,0.154665
1038,41.321431,-18.982223,-5.0049589999999995,0.13916199999999998,0.381353,0.895766
1040,90.516518,-13.366903,-26.733806,0.005737,0.48706800000000006,1.1583430000000001
1042,158.14450300000001,-22.034028,-35.645075,-0.087648,0.42713100000000004,1.343404
1044,207.09544499999998,-5.554284,-38.941024,-0.17761500000000002,0.24353400000000003,1.305684
1046,248.23376800000003,24.170291,-31.433584999999997,-0.26269899999999996,0.029786,1.122576
1048,274.174105,30.640116,-14.160372,-0.134768,-0.063233,0.9348290000000001
1050,284.36713199999997,23.254749,-8.789197,0.164797,-0.042969,1.17763
1052,297.97818,33.203632,-29.541465999999996,0.344488,-0.198734,0.9873200000000001
1054,259.159228,74.09781,-52.429999,0.245365,-0.442878,0.55201
1056,206.24094,64.45410799999999,-53.284504000000005,0.08752599999999999,-0.241337,1.6397959999999998
1058,223.453117,81.422141,-52.368963,0.117556,-0.356329,1.9999689999999999
1060,269.047074,105.470359,-49.195087,-0.002441,-0.615,1.9999689999999999
1062,281.071183,82.642863,-31.494621000000002,0.019409,-0.902235,1.9999689999999999
1064,273.25856400000004,98.75639,-28.442816999999998,0.176394,-0.957046,1.9999689999999999
1066,276.310369,105.77553999999999,-33.081559000000006,0.39942,-0.8997940000000001,1.781521
1068,248.661021,105.592432,-37.59823,0.289921,-1.081559,1.646509
1070,212.405585,108.40009199999999,-25.26894,-0.068238,-1.715114,1.325826
1072,147.58526,126.83299,-0.976577,0.516732,-2.0000310000000003,1.2015559999999998
1074,124.20843799999999,168.21545700000001,-32.104982,0.705699,-2.0000310000000003,-0.8759899999999999
1076,-138.979171,-96.31494599999999,43.579767,0.486336,-2.0000310000000003,-2.0000310000000003
1078,-189.639124,-210.025177,24.902724,0.792981,-0.23376799999999998,1.9999689999999999
1080,-115.297169,-96.25391,17.883574,-0.923842,0.579965,0.9203020000000001
1082,-290.89799300000004,-117.18928799999999,66.895552,0.135134,-0.358526,0.588754
1084,-232.85267400000004,-58.167391,50.171664,1.69485,-0.328252,1.9999689999999999
1086,-137.209125,29.48043,-9.887846000000001,-0.274052,0.071534,1.39675
1088,-71.16807800000001,-71.717403,42.664225,-1.1154959999999998,-0.646738,0.8695200000000001
1090,-52.246891,-65.918975,22.034028,1.710231,0.180179,1.9999689999999999
1092,-49.317159000000004,-28.198672,16.174563,-0.536751,-0.036866,0.882582
1094,-32.898451,-7.9957270000000005,0.427253,0.088624,-0.000244,1.071305
1096,-27.344167,-21.911955,1.525902,0.154299,0.06713999999999999,1.0897379999999999
1098,-20.141909,-7.507439,1.159686,-0.097536,0.008545,1.0424959999999999
1100,-22.46128,-3.173877,0.671397,0.043458,0.011109,1.074601
1102,-19.531548,1.586938,1.7700470000000001,0.09289700000000001,0.002686,1.074968
1104,-17.029068,8.972305,3.356985,-0.010742,-0.000732,0.989395
1106,-18.799115,8.1178,4.089418,-0.032349,-0.016602000000000002,1.0053860000000001
1108,-14.648660999999999,5.3101400000000005,1.8310830000000002,-0.063355,-0.003418,1.0944989999999999
1110,-13.366903,0.30518,2.014191,-0.033569999999999996,-0.021973,0.9873200000000001
1112,-11.108568,-1.281758,1.342794,-0.028199000000000002,-0.026368,1.002823
1114,-12.32929,-3.234913,1.037613,-0.014038,-0.015015,0.985977
1116,-11.841001,-5.065995,0.0,-0.062013,0.055665,1.050309
1118,-15.686275,-5.371176,2.014191,-0.031495,-0.047363999999999996,1.038468
1120,-12.817578,-7.751583,1.037613,-0.025147,-0.057496000000000005,0.9873200000000001
1122,-12.63447,-10.254063,0.48828900000000003,-0.014159999999999999,-0.053101,0.981827
1124,-16.296635000000002,-11.474784,-1.647974,0.141726,-0.159426,0.6670020000000001
1126,-20.935378,-14.465553,0.366217,0.020508000000000002,-0.052735000000000004,1.006119
1128,-18.371862,-10.925460000000001,0.671397,0.022583000000000002,-0.071534,1.00441
1130,-20.325017000000003,-9.765774,1.40383,0.009888,-0.083742,1.001358
1132,-22.705425,-9.216449,1.342794,-0.019287000000000002,-0.062379,1.0042879999999998
1134,-24.719615,-10.254063,0.0,0.022216999999999997,-0.076173,0.991958
1136,-24.719615,-8.789197,-0.854505,0.029053,-0.055787,0.973526
1138,-30.823224,-6.225681,-0.427253,0.001221,-0.104372,1.000504
1140,-34.851606,-2.563516,3.418021,0.01355,-0.097414,1.000992
1142,-38.025483,4.21149,6.897078,0.024291999999999998,-0.158816,1.0112459999999999
1144,-31.616692999999998,6.408789,9.52163,0.029786,-0.126467,0.9034559999999999
1146,-32.837415,5.981537,6.897078,-0.018799,-0.14416700000000002,1.033463
1148,-46.631571,-2.563516,-6.408789,-0.051637,-0.088869,1.026749
1150,-56.763560999999996,-2.80766,-10.437171000000001,0.093751,-0.330938,1.035416
1152,-29.053178000000003,-5.493248,-10.070953999999999,0.031617,-0.245731,1.08925
1154,-41.260395,-1.70901,-14.709697,0.017456,0.013184,1.012222
1156,-87.52575,6.408789,-19.531548,0.033692,0.118898,0.848524
1158,-175.600824,-8.178836,-30.701152,0.22497899999999998,0.03418,0.623178
1160,-492.988479,-26.550697999999997,-26.062409,-0.010376,0.242802,1.6273440000000001
1162,-692.698558,-88.990616,29.602502,0.023926,-0.481209,1.531151
1164,-802.319371,-114.86991699999999,58.167391,-0.392096,-1.362814,1.0095370000000001
1166,-415.350576,-106.50797299999999,77.57686700000001,-1.113787,-2.0000310000000003,1.9999689999999999
1168,1.525902,-79.530022,18.24979,0.239017,1.222309,1.9999689999999999
1170,4.943923000000001,7.263294,31.616692999999998,0.255497,0.331426,1.9999689999999999
1172,149.843595,37.59823,-7.751583,0.063233,0.441291,0.864149
1174,178.286412,-9.887846000000001,-9.82681,-0.089357,0.076783,0.5716640000000001
1176,178.957809,-47.791257,-10.681315,-0.06384400000000001,0.07128999999999999,0.606821
1178,206.118868,-49.317159000000004,-24.719615,-0.061402,0.078248,0.800793
1180,219.54680699999997,-24.658579,-40.10071,-0.164797,0.033204000000000004,1.029313
1182,247.928588,-0.122072,-41.992828,-0.350591,-0.065553,1.294575
1184,286.99168399999996,15.686275,-26.428626,-0.43201300000000004,-0.264652,1.412253
1186,319.82909900000004,22.705425,-1.70901,-0.287968,-0.374884,1.168231
1188,324.101625,21.240558,4.150454,0.160769,-0.36633899999999997,1.1574879999999999
1190,308.293278,49.134051,-23.804074,0.347906,-0.547982,0.9007709999999999
1192,253.177691,71.473259,-43.884947,0.21924200000000002,-0.581308,0.855726
1194,219.485771,55.90905600000001,-51.758602,0.098756,-0.446784,1.561303
1196,204.16571299999998,66.346227,-49.561303,-0.015625,-0.538582,1.9999689999999999
1198,267.33806400000003,69.58114,-45.349813,0.034424,-0.74342,1.9999689999999999
1200,263.797971,75.623713,-46.997787,0.339483,-0.834852,1.9999689999999999
1202,250.125887,90.02822900000001,-68.055238,0.709117,-0.8801399999999999,1.4301979999999999
1204,208.31616699999998,82.52079,-86.793317,0.686046,-1.0628819999999999,1.594018
1206,182.314794,63.233387,-89.478904,0.304814,-1.581201,1.513573
1208,164.370184,70.252537,-60.914015,0.201785,-2.0000310000000003,1.2528270000000001
1210,130.983444,100.099184,-22.644388,0.203372,-2.0000310000000003,-0.18457300000000001
1212,5.249104,35.950256,48.950942,-0.149538,-2.0000310000000003,-0.8285040000000001
1214,-248.05066000000002,-175.783932,86.060884,1.324727,-1.523827,-0.156619
1216,-108.705272,-106.935225,20.752270000000003,-0.18616,1.088396,1.9999689999999999
1218,-284.55024,-100.03814799999999,38.635843,0.012206999999999999,-0.269047,0.610727
1220,-224.06347799999998,-75.31853199999999,42.542153000000006,1.0796059999999998,-0.31250500000000003,1.9999689999999999
1222,-93.812467,-5.188067,-2.685588,0.31458,0.0063479999999999995,1.738552
1224,-119.63073200000001,-43.335622,35.339895,-1.037491,-0.38819000000000004,1.382223
1226,-56.763560999999996,-52.979324,6.836042,1.292866,-0.092164,1.792142
1228,-51.819638,-26.489662,7.385367,-0.46546099999999996,-0.10009900000000001,0.8774549999999999
1230,-35.156786,-28.870069,-1.525902,0.175174,0.036011,1.170672
1232,-4.333562000000001,-25.452049,-3.051804,0.12195,0.065064,1.110002
1234,-11.657893,-13.122759,0.0,0.014527000000000002,-0.009644,1.038468
1236,-9.948882000000001,-9.155413000000001,2.685588,0.095583,0.047363999999999996,0.991836
1238,-13.550010999999998,-0.366217,4.333562000000001,0.052125,0.033692,1.032242
1240,-14.221407999999998,0.0,4.577707,0.0035399999999999997,0.010742,1.012589
1242,-13.366903,-3.540093,2.868696,0.008423,0.038087,0.949844
1244,-17.273213000000002,-7.080186,0.854505,0.032593000000000004,-0.038209,0.943984
1246,-20.935378,-6.408789,0.976577,0.039185000000000005,-0.019532,1.031754
1248,-16.296635000000002,-3.051804,1.342794,0.058838999999999995,-0.001221,1.005631
1250,-16.906996,-1.40383,1.525902,0.058838999999999995,-0.045045,1.013077
1252,-15.991454999999998,0.183108,1.525902,0.015015,-0.030151999999999998,0.9991610000000001
1254,-17.517357,-2.197299,0.549325,0.020630000000000003,-0.011840999999999999,0.979507
1256,-19.65362,-2.380407,0.0,0.042115,-0.042359,1.011978
1258,-18.921187,-0.793469,-0.122072,0.042847,-0.055787,1.013809
1260,-18.371862,0.183108,0.244144,0.055787,-0.080446,1.021622
1262,-14.160372,1.647974,1.037613,0.046265,-0.07470800000000001,1.014176
1264,-11.108568,2.990768,1.525902,0.037476,-0.06713999999999999,1.008194
1266,-11.718929,4.089418,1.70901,0.031983,-0.06713999999999999,1.005875
1268,-11.779964999999999,4.760815,1.7700470000000001,0.028931000000000002,-0.070924,0.989029
1270,-11.291675999999999,3.479057,1.40383,0.024048,-0.071168,0.996353
1272,-12.024109,2.624552,0.122072,0.026246,-0.07776,1.004532
1274,-10.864424,3.418021,-1.159686,0.025025,-0.072877,1.019425
1276,-10.986496,4.760815,-1.525902,-0.021363,0.083253,0.8864879999999999
1278,-9.82681,10.009917999999999,5.065995,-0.017823,0.014282,0.830945
1280,-33.142596000000005,9.460594,8.178836,-0.004517,-0.11071900000000001,1.026993
1282,-29.236286,9.887846000000001,6.042573,-0.016846,-0.098756,0.9675440000000001
1284,-28.0766,5.188067,-2.50248,-0.029541,-0.118288,0.914565
1286,-44.861523999999996,-3.479057,-10.620279,-0.08423,-0.137697,0.992569
1288,-46.570535,-6.836042,-11.291675999999999,0.085328,-0.252811,1.053117
1290,-36.682689,-4.760815,-4.150454,-0.002441,-0.117556,1.019791
1292,-58.411536,-0.854505,-12.512398,0.032958999999999995,0.042847,0.9209120000000001
1294,-137.636378,6.530861,-18.860151000000002,0.026978,0.36463,0.712535
1296,-229.129473,-21.606775,-12.573433999999999,0.14441099999999998,0.8548709999999999,0.787121
1298,-567.0862900000001,-49.439231,1.342794,-0.484504,-0.192142,1.286885
1300,-671.8852519999999,-125.490196,27.161059,0.127443,-0.45398599999999995,1.139666
1302,-830.518044,-174.807355,81.300069,0.576303,-2.0000310000000003,1.9999689999999999
1304,-98.08499300000001,-163.088426,-5.188067,0.184451,-0.544198,1.9999689999999999
1306,41.382467,-17.395285,-42.664225,0.261479,0.8247200000000001,1.9999689999999999
1308,134.401465,41.687647999999996,-29.663539,-0.265019,0.168215,1.556298
1310,143.312734,27.100022999999997,-14.343481,-0.217166,0.187503,0.284428
1312,159.792477,13.183795000000002,-6.530861,-0.041993,0.105715,0.358282
1314,151.186389,3.051804,-6.958114,0.005493,0.151247,0.775158
1316,190.005341,-5.859464,-15.381094000000001,0.021241,0.210575,1.028092
1318,221.988251,4.21149,-23.682002,-0.023926,0.068727,1.0251620000000001
1320,242.49637599999997,23.254749,-25.696193,-0.104372,-0.072511,1.044327
1322,258.67093900000003,36.133364,-16.113526999999998,-0.12780999999999998,-0.172244,1.127092
1324,274.357214,34.363316999999995,-3.784237,-0.018677000000000003,-0.25037,1.3824670000000001
1326,289.921416,38.513771000000006,-4.5166699999999995,0.19336199999999998,-0.40686700000000003,1.522606
1328,299.626154,68.17730999999999,-19.287404000000002,0.157107,-0.550912,1.296651
1330,277.958343,73.670558,-22.949569,0.116701,-0.623545,1.1111010000000001
1332,232.730602,73.670558,-26.367590000000003,0.191409,-0.47156499999999996,1.347189
1334,211.734188,52.368963,-39.429313,0.43042600000000003,-0.419196,1.9999689999999999
1336,235.355154,56.458381,-74.036774,0.507576,-0.578012,1.9999689999999999
1338,243.717098,79.77416600000001,-96.986343,0.24243499999999998,-0.787243,1.9999689999999999
1340,244.20538599999998,89.478904,-101.625086,0.270268,-0.89369,1.7169450000000002
1342,212.405585,124.269474,-105.226215,0.256229,-1.1544370000000002,1.393576
1344,165.896086,128.419928,-84.962234,-0.025147,-1.783352,1.492332
1346,142.64133700000002,117.860685,-35.767146999999994,0.157717,-2.0000310000000003,1.371969
1348,142.763409,126.83299,-2.563516,0.185306,-2.0000310000000003,-1.150042
1350,-56.092164000000004,-18.493935,60.791943,-0.047363999999999996,-1.704982,-0.8764780000000001
1352,-278.69077599999997,-228.885328,97.35256,0.664439,-1.155901,0.5669029999999999
1354,-121.950103,-138.551919,66.22415500000001,-0.195926,1.2082700000000002,1.9999689999999999
1356,-257.755398,-115.60235,79.957275,0.759167,-0.359136,0.427253
1358,-257.450217,-69.58114,52.67414399999999,1.628443,0.0448,1.9999689999999999
1360,-127.016098,6.836042,-19.287404000000002,0.272953,-0.346075,1.760891
1362,-144.411383,-37.59823,42.359045,-1.728054,-0.712779,1.4850079999999999
1364,-57.557031,-98.390173,30.518044,1.996979,0.25977,1.9999689999999999
1366,-59.937438,-9.216449,5.371176,-0.8813610000000001,-0.123293,1.1808040000000002
1368,-25.329976000000002,-37.720302000000004,-4.272526,0.452399,0.09509400000000001,1.23769
1370,-4.943923000000001,-18.677042999999998,-3.051804,-0.04419,-0.08618300000000001,1.188739
1372,-9.582666,-12.878614,-1.281758,0.001221,-0.027832,1.084367
1374,3.173877,-15.075914000000001,-0.976577,0.10547000000000001,-0.010254000000000001,0.953994
1376,-4.577707,-4.5166699999999995,3.1128400000000003,0.031617,0.0,1.01796
1378,-10.742351,0.061036,3.356985,0.016358,0.019287000000000002,0.976822
1380,-12.32929,-1.70901,1.8310830000000002,0.029297000000000004,0.063355,0.983902
1382,-12.63447,-4.394598,0.671397,0.032958999999999995,-0.035767,1.029191
1384,-14.160372,-2.50248,1.2207219999999999,0.010742,0.008667,0.992691
1386,-21.789883,-0.427253,1.7700470000000001,0.048829000000000004,0.004517,0.953628
1388,-25.085832,-0.061036,2.563516,0.023926,-0.038819,1.0202790000000002
1390,-21.606775,-1.464866,1.342794,0.007935,-0.030762,1.0127110000000001
1392,-18.493935,-4.272526,0.061036,0.016236,-0.027832,0.997208
1394,-21.423667000000002,-4.699779,0.122072,0.043458,-0.06482,0.9598540000000001
1396,-23.86511,-3.967346,0.366217,0.031127999999999996,-0.063111,1.01735
1398,-22.644388,-0.793469,0.366217,0.048829000000000004,-0.065919,1.034684
1400,-21.118485999999997,4.21149,1.464866,0.057374,-0.091188,1.0251620000000001
1402,-21.484703,5.737392,2.685588,0.04419,-0.090822,1.000748
1404,-18.738079,5.61532,3.6011290000000002,0.020874,-0.077028,0.993179
1406,-19.836728,4.333562000000001,3.723201,0.021973,-0.087404,1.005631
1408,-19.775692000000003,4.028382,2.80766,0.015503,-0.08276499999999999,0.997086
1410,-20.202945,4.150454,1.40383,0.017456,-0.11071900000000001,1.0080719999999999
1412,-16.357671,3.356985,-0.122072,0.005371,-0.098756,0.9980620000000001
1414,-25.085832,4.150454,0.671397,-0.028931000000000002,-0.090822,0.973281
1416,-30.151827,5.188067,2.685588,0.029053,-0.096071,0.985977
1418,-31.860838,8.1178,5.9205,-0.010254000000000001,-0.12024100000000001,1.018448
1420,-31.677729,6.775005999999999,7.385367,0.005371,-0.131716,1.028092
1422,-30.151827,5.432212,-2.197299,-0.099001,-0.087404,0.965347
1424,-55.298694999999995,-4.333562000000001,-16.540779999999998,0.040894,-0.265873,1.046769
1426,-37.232013,1.281758,-2.624552,0.041016000000000004,-0.190555,1.078019
1428,-39.063096,4.699779,-9.460594,-0.018189,0.020874,0.914443
1430,-103.883421,4.333562000000001,-12.63447,-0.029541,0.147707,0.7951779999999999
1432,-203.555352,-10.376135000000001,-8.972305,0.167239,0.49378199999999994,1.028458
1434,-547.6768139999999,-9.094377,17.212177,-0.294072,0.5394369999999999,1.9999689999999999
1436,-756.298161,-37.476158,76.661326,0.12195,-0.24377800000000002,1.0907149999999999
1438,-1017.776761,-143.61791399999998,162.233921,-0.820081,-1.820096,1.9999689999999999
1440,128.847181,-119.386587,-7.934691,-0.052490999999999996,0.847181,1.9999689999999999
1442,43.884947,-24.414435,-12.817578,0.028564999999999997,0.882704,1.9999689999999999
1444,139.58953200000002,23.254749,-35.339895,-0.014159999999999999,0.323369,0.317754
1446,63.355458999999996,5.0049589999999995,-41.016251000000004,-0.055909,0.195438,0.050782
1448,91.248951,-17.578393,-47.058824,-0.06775,0.30640100000000003,0.323369
1450,111.757076,-35.278859000000004,-46.32639,-0.13281500000000002,0.309087,0.978775
1452,158.32761100000002,-40.588998,-43.396658,-0.20935399999999998,0.266606,1.426413
1454,223.20897200000002,-16.662851999999997,-40.955215,-0.282353,0.105104,1.478904
1456,264.22522299999997,16.296635000000002,-29.907683000000002,-0.38294,-0.14685299999999998,1.212421
1458,280.643931,35.461967,-9.338521,-0.314458,-0.253422,1.044816
1460,286.381323,48.52369,4.394598,-0.061890999999999995,-0.28870100000000004,1.145159
1462,287.66308100000003,59.20500500000001,-1.159686,0.23608800000000002,-0.29443800000000003,1.412375
1464,290.16556,67.017624,-24.597542999999998,0.498421,-0.363165,1.568505
1466,288.822766,68.726635,-50.720989,0.37171,-0.542733,1.6710459999999998
1468,285.64889,61.46334,-55.542840000000005,0.059449,-0.606943,1.7352560000000001
1470,273.44167200000004,64.393072,-53.589684999999996,0.083375,-0.6004729999999999,1.667994
1472,242.801556,75.013352,-59.20500500000001,0.172,-0.554696,1.9999689999999999
1474,239.017319,87.769894,-68.36041800000001,0.12255999999999999,-0.740002,1.9999689999999999
1476,253.54390800000002,96.92530699999999,-56.702525,-0.045411,-1.138079,1.9999689999999999
1478,238.10177799999997,92.530709,-31.006332,-0.009033,-1.50454,1.6476080000000002
1480,181.887541,110.71946299999999,-6.71397,0.438849,-2.0000310000000003,1.3934540000000002
1482,153.87197700000002,172.487984,-28.137635999999997,0.806287,-2.0000310000000003,0.343511
1484,58.594643999999995,123.964294,-18.677042999999998,0.35925799999999997,-2.0000310000000003,-1.805936
1486,-110.414282,-102.540627,41.992828,0.071046,-1.537377,-0.003052
1488,-129.64065,-180.483711,29.053178000000003,0.043213999999999995,0.029419,1.7693139999999998
1490,-133.60799599999999,-99.671931,50.843061,-0.5987640000000001,0.5388270000000001,0.8559700000000001
1492,-264.89662000000004,-128.23682,74.525063,0.6591899999999999,0.09765800000000001,-0.626596
1494,-333.92843500000004,-68.421454,46.021209999999996,1.786282,-0.12549000000000002,1.9999689999999999
1496,-135.500114,29.053178000000003,-31.494621000000002,0.169802,-0.067384,1.8369419999999999
1498,-182.43686599999998,-9.82681,39.30724,-1.9220259999999998,-0.8222780000000001,1.9999689999999999
1500,-56.702525,-99.305715,47.058824,1.294575,0.641123,1.9999689999999999
1502,-30.029754999999998,-2.563516,8.606088,-0.731212,-0.065553,1.237568
1504,-29.907683000000002,-50.720989,0.061036,0.618173,0.186648,1.445457
1506,-31.433584999999997,-21.362631,-2.319371,-0.16907,0.005737,1.033341
1508,-26.977951,-10.559242999999999,-0.732433,0.104494,-0.081788,1.24184
1510,-17.273213000000002,-4.272526,-0.48828900000000003,0.077882,0.008789,1.006485
1512,-13.672084,0.427253,1.464866,-0.005615,-0.011719,1.048844
1514,-11.779964999999999,2.990768,2.2583349999999998,-0.009522,0.004517,1.002945
1516,-12.451362,-0.732433,1.2207219999999999,-0.033082,0.025757,0.944717
1518,-11.291675999999999,-4.577707,2.014191,0.030883999999999998,0.08276499999999999,0.9246969999999999
1520,-13.916228,-3.540093,1.525902,-0.007568000000000001,-0.026368,1.020035
1522,-13.061722999999999,-6.71397,1.40383,-0.040162,-0.017578,0.9592430000000001
1524,-10.437171000000001,-13.611048,2.075227,0.046265,0.067872,0.9602200000000001
1526,-10.620279,-10.742351,0.549325,-0.001221,-0.014771000000000001,1.018448
1528,-14.221407999999998,-10.498207,1.2207219999999999,0.0177,-0.025757,0.9863430000000001
1530,-15.197985999999998,-9.338521,1.464866,-0.00293,-0.040894,0.9834129999999999
1532,-11.596857,-8.667124000000001,1.342794,0.020874,-0.053834,1.049577
1534,-6.2867169999999994,-7.446403,0.48828900000000003,0.013184,-0.035401,1.015152
1536,-9.887846000000001,-8.850233,0.793469,0.020142,-0.023316,0.9896389999999999
1538,-11.169604,-9.094377,0.549325,0.046876,-0.049439,1.006363
1540,-11.474784,-5.493248,1.342794,0.046876,-0.057252,1.002701
1542,-17.090104999999998,-2.563516,2.746624,0.019653999999999998,-0.05139199999999999,1.013809
1544,-18.554971,-2.80766,2.50248,0.023316,-0.049928,0.9990389999999999
1546,-17.94461,-2.4414439999999997,2.014191,0.031495,-0.049928,1.015885
1548,-19.897765,-1.342794,2.136263,0.030883999999999998,-0.066163,1.002579
1550,-22.766461,-1.70901,2.2583349999999998,0.016236,-0.06067,0.981216
1552,-23.987182,-2.136263,2.50248,0.029175,-0.052735000000000004,0.9709620000000001
1554,-27.710384,-2.136263,3.90631,0.023072,-0.099001,0.9980620000000001
1556,-35.645075,-2.014191,5.371176,-0.001831,-0.06286699999999999,0.949722
1558,-39.856565,0.30518,1.586938,0.014527000000000002,-0.062379,1.010147
1560,-42.420081,2.624552,0.671397,0.019776,-0.099733,0.996353
1562,-42.1149,4.028382,-1.7700470000000001,-0.0035399999999999997,-0.156497,1.0156399999999999
1564,-64.271,-1.09865,-13.305867000000001,-0.005371,-0.16809300000000002,1.086076
1566,-44.678416,5.188067,0.0,0.09033300000000001,-0.266239,1.092546
1568,-28.0766,3.418021,-5.065995,0.04712,0.0063479999999999995,0.984268
1570,-109.19356100000002,8.850233,-14.831769,0.056152999999999995,0.258671,0.720592
1572,-200.01525900000001,-10.437171000000001,-19.531548,-0.061036,0.13086099999999998,0.786145
1574,-476.32562800000005,-23.559929999999998,-35.034714,-0.23450100000000001,0.23352399999999998,1.20119
1576,-660.53254,-131.288624,27.161059,0.036866,-0.5297930000000001,1.060685
1578,-768.01709,-182.55893799999998,59.510185,0.156252,-1.273945,1.446433
1580,-265.323873,-147.341115,31.433584999999997,-0.41528999999999994,-1.040909,1.9999689999999999
1582,158.205539,-16.906996,-28.198672,0.041016000000000004,1.090349,1.9999689999999999
1584,123.476005,12.268253999999999,4.699779,-0.342535,0.24170300000000003,1.025528
1586,150.209812,22.583351999999998,9.52163,-0.13904,0.247074,-0.064332
1588,128.297856,20.752270000000003,7.141222,0.034791,0.166018,0.350713
1590,135.133898,9.948882000000001,-6.958114,0.103029,0.27624899999999997,0.766857
1592,176.943618,2.563516,-24.353399,0.077882,0.275029,1.150896
1594,218.44815699999998,9.704738,-37.659265999999995,-0.021729,0.111452,1.1814149999999999
1596,244.57160299999998,25.757229000000002,-39.734493,-0.094484,-0.017823,1.188495
1598,265.445945,42.1149,-33.38674,0.011719,-0.161501,1.328389
1600,286.137179,62.317845,-39.673457,0.08423,-0.417121,1.465965
1602,293.278401,68.17730999999999,-41.931792,0.20056500000000002,-0.526619,1.395651
1604,282.047761,76.417182,-48.767834,0.271977,-0.701915,1.362203
1606,264.530404,70.862898,-48.340581,0.053223,-0.764904,1.349996
1608,240.78736600000002,61.219196,-34.973678,0.019532,-0.650889,1.568017
1610,224.795911,69.336996,-25.940337,0.126101,-0.564706,1.9999689999999999
1612,244.57160299999998,72.999161,-28.992141999999998,0.22986199999999998,-0.613046,1.9999689999999999
1614,253.3608,81.300069,-33.997101,0.176516,-0.74049,1.702174
1616,227.72564300000002,78.370336,-26.245518,-0.025269,-0.842664,1.430808
1618,195.132372,67.444877,-8.972305,-0.05127,-1.001236,1.5511709999999999
1620,169.619287,83.49736800000001,1.342794,0.245365,-1.518456,1.466941
1622,125.06294299999999,136.110475,-13.366903,0.753185,-2.0000310000000003,1.0788739999999999
1624,90.211337,156.191348,-11.474784,0.465095,-2.0000310000000003,-0.771008
1626,-32.898451,-46.936751,37.59823,0.324102,-1.4489969999999999,-0.638682
1628,-235.41619,-210.208286,32.043946000000005,1.068986,-1.010636,0.373907
1630,-117.860685,-127.443351,5.676356,-0.47193100000000004,0.843885,1.9999689999999999
1632,-216.67811099999997,-77.08857900000001,39.917601,-0.649424,-0.064454,-0.18579400000000001
1634,-281.986725,-94.17868299999999,67.444877,0.890883,-0.11609100000000001,1.9999689999999999
1636,-146.18143,-4.5166699999999995,3.234913,1.296162,-0.08838,1.9999689999999999
1638,-160.463874,45.471885,12.878614,-1.474998,0.08069,1.9999689999999999
1640,-12.32929,-87.037461,31.677729,0.234134,0.244633,1.7534450000000001
1642,-32.776379,7.324331,3.234913,0.009033,-0.027832,1.2336610000000001
1644,-36.682689,-41.626612,5.249104,0.320684,0.10132000000000001,1.285908
1646,-34.912642,-11.535821,-0.9155409999999999,-0.257328,-0.019287000000000002,1.0156399999999999
1648,-20.386053,-12.939651,-4.699779,0.115846,-0.013306,1.136858
1650,-12.32929,-3.90631,0.48828900000000003,0.033814,0.010131999999999999,1.0424959999999999
1652,-14.648660999999999,0.244144,1.7700470000000001,-0.023072,-0.003662,0.999283
1654,-11.047532,1.037613,2.4414439999999997,0.017578,-0.009766,1.023209
1656,-10.437171000000001,-0.732433,2.80766,-0.035279000000000005,0.005005,0.980117
1658,-12.024109,-4.699779,1.647974,-0.09399600000000001,0.192996,1.240375
1660,-18.921187,-8.545052,1.8310830000000002,-0.020752,-0.037842,0.947524
1662,-17.761501000000003,-11.718929,2.380407,-0.01355,-0.0094,0.955825
1664,-23.437858,-16.906996,3.234913,0.050660000000000004,0.10388299999999999,0.9194479999999999
1666,-25.452049,-10.254063,1.7700470000000001,0.013062,-0.033569999999999996,1.060807
1668,-24.414435,-7.385367,2.50248,0.008301000000000001,-0.05835,0.989517
1670,-23.86511,-11.779964999999999,2.2583349999999998,-0.036378,-0.047974,0.9914700000000001
1672,-21.606775,-15.014878,0.427253,0.02295,-0.102907,1.100114
1674,-10.070953999999999,-11.963073,-0.854505,0.024781,-0.060426,1.009659
1676,-11.718929,-12.146181,-0.183108,0.019287000000000002,-0.053712,0.985977
1678,-11.23064,-10.559242999999999,-0.366217,0.025269,-0.088136,1.030411
1680,-8.178836,-8.911269,0.30518,0.024291999999999998,-0.066773,1.008804
1682,-8.545052,-9.765774,-0.793469,0.027587999999999998,-0.079957,1.0160069999999999
1684,-6.408789,-9.765774,-1.464866,0.041382,-0.079957,1.012467
1686,-6.469825,-7.6905470000000005,-0.549325,0.042359,-0.067628,0.9973299999999999
1688,-12.32929,-7.812619000000001,-0.549325,0.028808999999999998,-0.048219,0.9698629999999999
1690,-18.982223,-8.484016,-0.48828900000000003,0.041016000000000004,-0.081788,0.9865870000000001
1692,-20.508125,-5.7984279999999995,0.0,0.070069,-0.105592,1.016861
1694,-21.301595000000002,-1.586938,0.9155409999999999,0.044312,-0.101076,0.9969629999999999
1696,-20.813306,0.671397,2.2583349999999998,0.043824,-0.10254100000000001,0.9990389999999999
1698,-26.245518,2.685588,3.6621650000000003,0.030274000000000002,-0.08423,0.989029
1700,-35.400931,4.089418,4.8218510000000006,0.054688,-0.118288,1.011368
1702,-36.865797,5.981537,4.455634,0.058106,-0.147707,0.960098
1704,-37.048905,7.324331,2.685588,0.034913,-0.137819,1.012589
1706,-36.926833,8.300908,0.244144,0.061890999999999995,-0.148196,1.004532
1708,-35.156786,13.122759,-0.244144,0.005737,-0.171389,1.023087
1710,-36.011292,9.643702000000001,-6.591897,-0.018433,-0.16589600000000002,1.009659
1712,-23.926146,6.958114,-5.676356,0.056886,-0.225467,1.018082
1714,-24.597542999999998,9.338521,-2.4414439999999997,0.031983,-0.057862000000000004,0.999283
1716,-89.96719300000001,10.681315,-5.065995,0.030518,0.002441,0.839612
1718,-127.687495,-0.061036,-6.042573,-0.09253099999999999,-0.074464,0.8292360000000001
1720,-250.308995,-18.005646,-5.127031,0.06713999999999999,-0.136599,0.932998
1722,-411.07805,-42.420081,39.673457,-0.107424,-0.348394,1.446555
1724,-486.884871,-75.684749,37.90341,-0.067506,-0.362799,1.0370030000000001
1726,-534.859236,-106.01968400000001,59.082933,0.046387,-0.723766,0.808484
1728,-383.611811,-128.603037,82.337682,-0.364508,-0.15295599999999998,1.9999689999999999
1730,63.111315000000005,-34.546426000000004,-34.363316999999995,0.33228,0.754406,1.9999689999999999
1732,74.158846,9.52163,-54.44419,-0.08581699999999999,-0.059449,1.8132599999999999
1734,148.744945,18.982223,-58.533607999999994,-0.258915,-0.108278,0.42847299999999994
1736,158.14450300000001,7.141222,-45.716029999999996,-0.36548400000000003,-0.311162,0.191775
1738,138.490883,4.8218510000000006,-28.625925,-0.39453699999999997,-0.34216799999999997,0.386481
1740,149.66048700000002,19.65362,-12.024109,-0.378424,-0.310185,0.784192
1742,180.727855,34.79057,3.234913,-0.21118499999999998,-0.28870100000000004,1.116106
1744,217.34950800000001,53.406577,5.371176,0.036378,-0.326787,1.175799
1746,248.90516499999998,74.280919,-2.197299,0.14111500000000002,-0.46448500000000004,1.202289
1748,268.986038,82.459754,-5.7984279999999995,0.139895,-0.678233,1.034318
1750,262.272068,74.83024300000001,1.2207219999999999,0.140871,-0.8056760000000001,0.846937
1752,240.78736600000002,42.725260999999996,11.169604,0.123293,-0.849744,1.114519
1754,236.02655099999998,22.46128,7.385367,0.19555999999999998,-0.8606090000000001,1.290669
1756,214.41977599999998,45.960174,0.0,0.08618300000000001,-1.019791,1.125872
1758,179.751278,59.327077,13.427939000000002,0.059327,-1.0918139999999998,1.026749
1760,152.773327,44.068055,26.428626,0.389776,-0.921645,0.8805069999999999
1762,115.480278,23.193713,15.991454999999998,0.654551,-0.657359,0.7260850000000001
1764,87.891966,-12.024109,-11.596857,0.625498,-0.448737,0.867567
1766,60.975052000000005,-37.964446,-33.508812,0.20947600000000002,-0.532967,0.922133
1768,-76.112001,-3.967346,-5.188067,-0.3617,-1.173602,0.202396
1770,-164.187076,-71.717403,49.561303,0.539315,-1.9507130000000001,0.08069
1772,110.71946299999999,20.813306,-0.793469,0.459358,-0.965469,1.9999689999999999
1774,113.282979,55.298694999999995,-32.349126,-0.623056,1.144793,-0.294926
1776,-205.081254,-51.63653,36.743725,0.261845,0.114626,1.013687
1778,-11.596857,1.09865,-2.624552,-0.160647,-0.204105,1.262226
1780,-21.179522,-7.141222,3.6011290000000002,0.14331300000000002,0.019043,1.059464
1782,-33.264668,-8.789197,1.464866,-0.107301,0.042237000000000004,0.947768
1784,-15.503166,-9.82681,-1.8921189999999999,0.042115,-0.01709,1.078264
1786,-9.460594,-1.7700470000000001,-1.70901,0.010254000000000001,-0.024048,0.894423
1788,-15.197985999999998,-2.319371,-1.342794,0.022216999999999997,0.023681999999999998,1.010391
1790,-20.874342000000002,-0.183108,-1.8921189999999999,-0.023438,0.0035399999999999997,0.9907379999999999
1792,-7.2022580000000005,1.281758,1.525902,-0.013428,-0.088869,1.106096
1794,-2.868696,-2.929732,0.30518,-0.015259,0.032105,0.945937
1796,-5.371176,-6.71397,-1.40383,0.017823,-0.008301000000000001,1.015885
1798,-0.48828900000000003,-3.295949,-0.6103609999999999,0.026246,-0.011109,1.017472
1800,0.671397,1.342794,0.244144,0.008301000000000001,-0.004883,1.001968
1802,-0.549325,1.647974,0.183108,-0.000488,-0.014527000000000002,1.014908
1804,2.197299,1.8921189999999999,0.0,-0.001221,-0.00293,0.995865
1806,3.234913,1.342794,-0.30518,0.006714,-0.0051270000000000005,0.9990389999999999
1808,3.6011290000000002,2.014191,-0.183108,0.008057,-0.003662,1.001968
1810,4.577707,2.746624,0.0,-0.001465,-0.007568000000000001,1.016861
1812,5.676356,2.563516,-0.366217,0.0028079999999999997,-0.007691,1.003922
1814,7.507439,2.563516,-0.6103609999999999,-0.003662,0.011353,0.980972
1816,6.591897,2.4414439999999997,-0.549325,-0.003418,0.000977,0.988418
1818,3.356985,0.976577,-0.183108,-0.015137000000000001,0.013428,0.984146
1820,1.953155,-0.366217,-0.30518,-0.0070799999999999995,0.015625,0.977676
1822,3.173877,-0.48828900000000003,-0.48828900000000003,-0.004639,-0.000977,1.017838
1824,6.2867169999999994,0.671397,-0.183108,0.006104,0.005005,1.005875
1826,5.9205,1.342794,-0.183108,-0.009155,0.029297000000000004,0.975723
1828,-0.549325,1.037613,-0.366217,0.028321,-0.001831,1.02443
1830,5.9205,5.493248,0.671397,0.0037840000000000005,0.022338999999999998,1.0036770000000002
1832,6.836042,6.103609,1.464866,-0.021485,0.022216999999999997,0.9858549999999999
1834,1.70901,0.976577,0.244144,-0.054077999999999994,0.043091000000000004,0.949355
1836,-0.48828900000000003,-5.065995,-1.281758,-0.025147,0.037354000000000005,0.965591
1838,-5.859464,-6.164645,-1.281758,0.011719,-0.013793999999999999,1.042374
1840,4.638743,-1.953155,-0.122072,0.005249,0.016236,1.011978
1842,4.699779,-0.427253,1.159686,-0.008667,0.015991,1.002823
1844,4.089418,-1.953155,0.671397,-0.015137000000000001,0.028321,0.941909
1846,-2.075227,-5.7984279999999995,-0.48828900000000003,-0.0015869999999999999,0.030762,0.991714
1848,-0.976577,-6.042573,-1.2207219999999999,-0.0035399999999999997,0.030151999999999998,0.984512
1850,-1.037613,-3.845274,-1.464866,0.034424,0.048096,0.956435
1852,-0.793469,-2.197299,-0.976577,0.046754000000000004,-0.002686,1.060563
1854,-1.464866,5.737392,0.48828900000000003,-0.026368,0.024413999999999998,0.964492
1856,1.7700470000000001,2.4414439999999997,0.0,-0.008179,0.01648,1.000137
1858,0.244144,0.30518,-0.9155409999999999,-0.0051270000000000005,0.055421000000000005,0.937392
1860,-7.263294,-1.8310830000000002,-1.2207219999999999,-0.00647,-0.006226,1.0040440000000002
1862,-4.699779,-1.342794,-0.793469,0.008301000000000001,-0.020263999999999997,1.0567790000000001
1864,5.249104,3.90631,0.244144,0.0094,0.030883999999999998,0.980117
1866,0.244144,-1.7700470000000001,-0.30518,-0.055542999999999995,0.017456,0.972549
1868,4.333562000000001,-5.554284,-0.976577,-0.012206999999999999,0.03418,0.9643700000000001
1870,-6.530861,-6.042573,-0.976577,-0.000366,0.036011,0.983902
1872,-4.272526,-5.859464,-1.159686,0.034668,-0.018189,1.066789
1874,1.525902,1.09865,-0.183108,0.041871,0.026733999999999997,1.000381
1876,-1.586938,2.990768,0.30518,-0.037842,0.006958,0.968643
1878,1.281758,-3.90631,-0.976577,0.006592,-0.002564,1.012467
1880,2.80766,-1.09865,-0.48828900000000003,0.017456,0.016236,1.014786
1882,3.540093,2.014191,0.48828900000000003,0.0070799999999999995,0.029786,0.97145
1884,2.197299,2.2583349999999998,0.48828900000000003,0.016236,0.010254000000000001,1.0078280000000002
1886,0.671397,3.540093,0.976577,0.002564,0.012085,1.000381
1888,-0.671397,1.09865,0.244144,-0.035523,0.012818000000000001,0.9873200000000001
1890,1.525902,-1.159686,-0.6103609999999999,0.0028079999999999997,0.016358,0.984268
1892,4.028382,0.366217,-0.244144,0.025879000000000003,0.019043,1.012467
1894,4.21149,3.356985,0.48828900000000003,0.011475,0.022095,1.001846
1896,3.1128400000000003,3.356985,0.671397,-0.0058590000000000005,0.023926,0.988174
1898,1.586938,2.319371,0.30518,-0.005005,0.021485,0.9896389999999999
1900,3.90631,2.746624,0.061036,0.002686,0.035523,0.980117
1902,3.051804,2.746624,0.244144,0.000732,0.021973,1.006241
1904,1.8310830000000002,2.2583349999999998,0.122072,-0.005982,0.017212,0.9863430000000001
1906,1.2207219999999999,0.671397,0.122072,-0.022095,0.027587999999999998,0.97377
1908,1.281758,-0.549325,-0.366217,-0.012329000000000001,0.0094,0.957046
1910,-0.976577,-1.159686,0.122072,-0.0043950000000000005,0.012573,0.981216
1912,-1.40383,-1.2207219999999999,0.122072,0.0031739999999999997,0.030274000000000002,0.9990389999999999
1914,-0.244144,-0.854505,0.244144,-0.010498,0.030518,0.993668
1916,-1.586938,-1.586938,0.366217,-0.007691,0.028443,0.983658
1918,0.427253,-1.281758,0.48828900000000003,-0.000366,0.031006,0.9969629999999999
1920,-0.061036,-1.2207219999999999,0.244144,0.004273,0.029297000000000004,0.995132
1922,-1.70901,-1.8921189999999999,0.0,0.001831,0.027344,1.000504
1924,-1.8921189999999999,-0.671397,0.0,0.00061,0.028687,0.98085
1926,-0.9155409999999999,0.061036,0.061036,0.000977,0.029297000000000004,0.9935450000000001
1928,-2.075227,-0.48828900000000003,0.366217,-0.010986,0.014527000000000002,0.9973299999999999
1930,-2.4414439999999997,-0.854505,0.0,0.020752,0.038331,1.011978
1932,-1.159686,-0.854505,-0.30518,0.032105,0.001953,1.056168
1934,0.244144,-0.732433,0.0,-0.000488,0.021118,0.9945219999999999
1936,1.281758,-0.732433,0.0,-0.016968,0.034913,0.97731
1938,-2.014191,-0.48828900000000003,0.0,0.000366,0.028687,0.991592
1940,-2.136263,-0.9155409999999999,0.0,0.0,0.01355,1.0089270000000001
1942,-2.014191,-1.037613,0.061036,0.002686,0.028931000000000002,1.00209
1944,-0.976577,-1.037613,-0.183108,0.001465,0.021606999999999998,0.9906159999999999
1946,-0.732433,-0.6103609999999999,-0.427253,0.0015869999999999999,0.026978,0.989517
1948,-0.9155409999999999,-0.366217,-0.549325,-0.002441,0.022216999999999997,0.985245
1950,-0.427253,-0.061036,-0.48828900000000003,0.0021969999999999997,0.023681999999999998,0.997452
1952,-3.051804,-0.366217,0.0,-0.0037840000000000005,0.020996,0.995865
1954,-6.836042,-1.281758,0.244144,-0.001343,0.021363,0.9941559999999999
1956,-3.784237,-1.464866,0.122072,0.0028079999999999997,0.013793999999999999,0.993423
1958,-0.549325,-1.40383,0.427253,-0.000366,0.012818000000000001,1.009293
1960,-3.356985,0.244144,0.183108,-0.048951,0.016968,0.993057
1962,0.6103609999999999,-0.427253,0.061036,-0.0008550000000000001,0.015625,0.985977
1964,1.342794,-0.427253,0.0,0.0023190000000000003,0.017945,0.996597
1966,1.70901,-0.30518,0.061036,-0.000366,0.020263999999999997,0.999649
1968,0.854505,-0.549325,0.122072,0.009888,0.027832,0.9909819999999999
1970,-0.30518,-0.183108,0.0,0.010986,0.016724,1.000992
1972,0.244144,0.0,0.122072,0.005982,0.024903,0.993179
1974,0.549325,0.183108,0.122072,0.001343,0.017212,1.0053860000000001
1976,0.30518,0.549325,0.183108,0.005005,0.020874,0.9976959999999999
1978,0.549325,0.671397,0.0,-0.002075,0.026368,0.991348
1980,1.953155,-0.549325,0.427253,-0.009155,0.010986,0.9935450000000001
1982,1.647974,-0.671397,0.854505,0.000366,0.023194,0.994034
1984,0.6103609999999999,-0.30518,0.427253,0.008911,0.025147,0.998184
1986,0.122072,-0.122072,0.122072,0.0035399999999999997,0.028808999999999998,0.9922030000000001
1988,-1.159686,-0.244144,-0.244144,0.002564,0.019287000000000002,0.997452
1990,4.150454,-0.9155409999999999,1.40383,0.020874,0.024659,0.9979399999999999
1992,2.380407,0.122072,0.244144,0.004639,0.026978,0.996841
1994,0.854505,0.30518,-0.366217,-0.0008550000000000001,0.02295,0.9902489999999999
1996,1.342794,0.366217,-0.183108,0.004517,0.020630000000000003,0.9944
1998,-0.30518,0.6103609999999999,-0.427253,-0.0028079999999999997,0.027466,0.977676
2000,0.671397,-0.671397,0.061036,-0.025025,0.0094,1.006729
2002,3.6621650000000003,-0.183108,0.0,0.024659,0.037964,0.993179
2004,0.671397,0.549325,-0.30518,0.002075,0.026733999999999997,1.0011139999999998
2006,1.953155,-0.183108,0.0,-0.014405000000000001,0.03125,0.9873200000000001
2008,2.80766,-0.854505,0.30518,-0.017456,0.019898,0.9939120000000001
2010,5.859464,-1.342794,4.028382,0.005737,0.025757,0.988663
2012,2.2583349999999998,-0.48828900000000003,2.685588,0.026368,0.045655,1.001358
2014,0.48828900000000003,-0.244144,0.061036,0.006836,0.033692,0.9922030000000001
2016,1.525902,-0.366217,-0.183108,-0.006104,0.034668,0.994034
2018,2.746624,-1.037613,0.9155409999999999,-0.014405000000000001,0.021485,0.9976959999999999
2020,1.953155,-0.122072,2.197299,0.014282,0.048707,0.992935
2022,-0.30518,-0.061036,0.061036,0.001465,0.031983,0.9953770000000001
2024,-1.525902,-0.30518,0.122072,-0.001831,0.026123,1.01088
2026,3.173877,-0.9155409999999999,2.075227,0.0015869999999999999,0.026978,0.9867090000000001
2028,2.197299,-0.30518,2.380407,0.0177,0.036622,1.002945
2030,0.0,0.244144,0.244144,0.004273,0.029053,0.993057
2032,0.0,0.183108,0.061036,0.008667,0.041138,1.0008700000000001
2034,-0.793469,-0.30518,0.366217,-0.0021969999999999997,0.035279000000000005,0.9984280000000001
2036,0.793469,-0.976577,1.70901,0.008789,0.034546,0.9935450000000001
2038,0.427253,-0.48828900000000003,0.976577,0.015259,0.040772,0.9959870000000001
2040,-0.183108,-0.183108,0.48828900000000003,-0.000366,0.027222000000000003,0.989273
2042,-0.793469,0.122072,1.037613,0.0043950000000000005,0.033204000000000004,0.994034
2044,-0.976577,-0.244144,0.183108,0.004761,0.039307,0.989395
2046,-1.159686,-0.427253,-0.366217,0.007691,0.032105,1.000992
2048,0.427253,-0.9155409999999999,0.122072,-0.000244,0.03125,1.0031889999999999
2050,2.2583349999999998,-0.549325,2.50248,0.0021969999999999997,0.026489999999999996,0.9871979999999999
2052,1.40383,-0.183108,2.319371,0.014527000000000002,0.029664,0.977188
2054,-0.9155409999999999,0.0,0.9155409999999999,0.01001,0.036744,0.992569
2056,-1.40383,0.427253,0.061036,0.001221,0.031127999999999996,0.997208
2058,-2.50248,0.122072,-0.427253,0.006714,0.032471,0.996109
2060,-2.136263,0.48828900000000003,-0.732433,0.008057,0.031373000000000005,0.9945219999999999
2062,-2.624552,0.427253,-1.281758,0.010986,0.037476,0.995499
2064,-2.990768,0.061036,-2.075227,-0.000488,0.043213999999999995,0.964126
2066,-9.399557000000001,-0.244144,-2.624552,0.015625,0.046632,0.9837799999999999
2068,-13.183795000000002,-0.549325,-3.051804,0.012573,0.020263999999999997,1.012467
2070,-12.268253999999999,0.793469,-3.784237,-0.013672,0.006836,1.008682
2072,-5.3101400000000005,-0.671397,-0.793469,0.001953,0.000732,0.969986
2074,-0.976577,0.0,-0.6103609999999999,0.01294,0.028076999999999998,0.99379
2076,-0.427253,-0.061036,-0.427253,0.009033,0.020142,0.9858549999999999
2078,-0.9155409999999999,0.0,-0.244144,-0.003052,0.017334,1.001724
2080,3.540093,-0.183108,-0.122072,-0.031861,-0.020996,1.002701
2082,-2.197299,-0.6103609999999999,0.427253,-0.009888,-0.000732,1.018082
2084,1.281758,-0.732433,0.549325,-0.006958,0.014405000000000001,1.005264
2086,3.479057,-0.671397,0.48828900000000003,0.005493,0.02295,0.9956209999999999
2088,2.014191,-0.122072,0.0,0.011719,0.034424,0.9876860000000001
2090,1.159686,-1.037613,0.732433,0.011840999999999999,0.019532,0.992081
2092,0.427253,-1.159686,1.7700470000000001,0.009033,0.024659,0.985611
2094,0.30518,-0.976577,1.464866,0.001831,0.026489999999999996,0.9902489999999999
2096,0.793469,-1.09865,1.7700470000000001,-0.010864,0.019532,1.013809
2098,2.197299,-1.159686,2.685588,-0.0037840000000000005,0.010254000000000001,0.9956209999999999
2100,2.624552,-0.671397,3.418021,0.023681999999999998,0.031861,0.989395
2102,0.427253,0.366217,0.183108,0.021606999999999998,0.027832,0.997818
2104,-0.854505,0.976577,-1.09865,0.013306,0.029175,1.0011139999999998
2106,0.6103609999999999,-0.122072,0.0,-0.007935,0.025147,1.0011139999999998
2108,2.50248,0.0,0.122072,0.005737,0.024413999999999998,1.005997
2110,2.746624,0.366217,0.122072,0.009276999999999999,0.024903,0.991836
2112,-0.061036,0.244144,-0.122072,0.0043950000000000005,0.025147,0.9908600000000001
2114,-0.549325,0.30518,-0.244144,-0.005371,0.014649,0.989395
2116,0.30518,-0.366217,0.0,0.014038,0.031495,1.0091709999999998
2118,0.0,0.061036,0.061036,0.003296,0.031738999999999996,0.991592
2120,-0.9155409999999999,0.183108,-0.30518,0.0028079999999999997,0.027466,0.9983059999999999
2122,-2.014191,0.6103609999999999,-0.793469,0.0063479999999999995,0.020996,0.992325
2124,-1.40383,0.976577,-2.014191,0.001953,0.029419,0.993057
2126,-2.319371,1.281758,-2.136263,0.002686,0.015503,0.9897610000000001
2128,1.525902,0.48828900000000003,-1.40383,0.046265,0.045045,0.988663
2130,-2.380407,0.366217,-3.967346,0.007324,0.015015,1.012222
2132,-0.854505,1.037613,-5.188067,0.005005,0.033936,0.991836
2134,-1.586938,0.671397,-6.530861,-0.008789,0.009155,1.010513
2136,0.976577,0.122072,-2.4414439999999997,-0.000244,0.019898,0.9907379999999999
2138,0.671397,0.366217,-1.953155,0.003052,0.022095,0.9900049999999999
2140,3.418021,0.671397,-4.455634,0.003296,0.023926,1.0118559999999999
2142,5.0049589999999995,1.586938,-8.1178,0.006226,0.051148,0.9950100000000001
2144,1.464866,1.525902,-8.42298,-0.001465,0.036378,0.980117
2146,-0.671397,-0.061036,-3.90631,-0.0074459999999999995,0.022827,0.998917
2148,3.356985,1.342794,-8.056764,0.00061,0.035279000000000005,0.9897610000000001
