Packet number,Gyroscope X (deg/s),Gyroscope Y (deg/s),Gyroscope Z (deg/s),Accelerometer X (g),Accelerometer Y (g),Accelerometer Z (g)
0,1.525902,0.549325,-0.183108,0.007568,-0.002319,1.004776
1,1.342794,0.976577,-0.122072,-0.009888,-0.003906,1.006607
2,2.441444,0.854505,-0.122072,0.000610,0.001099,0.995499
3,1.525902,0.793469,0.000000,-0.005371,-0.000122,0.992935
4,2.258335,0.671397,0.000000,-0.009766,0.019043,0.966812
5,-1.709010,-0.305180,0.000000,-0.009644,0.007324,0.980117
6,-1.281758,-0.305180,-0.122072,-0.007691,-0.007568,1.001358
7,-0.793469,-0.061036,0.061036,0.002441,0.003418,0.999893
8,-1.220722,-0.183108,0.305180,-0.001221,-0.005127,1.006485
9,0.061036,0.061036,0.061036,-0.000855,0.004517,0.997086
10,-0.793469,-0.061036,0.122072,-0.006470,-0.003784,1.001846
11,-0.122072,-0.061036,0.000000,-0.004273,0.001099,1.002701
12,-0.183108,-0.183108,0.000000,-0.006714,-0.003662,0.997574
13,0.366217,0.000000,0.000000,-0.003296,-0.004883,0.990982
14,0.183108,-0.244144,0.061036,-0.009277,0.006592,0.992569
15,-0.183108,-0.488289,0.000000,-0.006836,-0.003052,1.001602
16,0.183108,-0.244144,0.000000,-0.001465,-0.002564,1.007340
17,0.000000,-0.122072,0.000000,-0.005859,0.002564,0.998672
18,0.000000,-0.183108,-0.122072,-0.001953,0.000732,1.002090
19,0.305180,0.000000,-0.122072,0.005982,0.006470,0.991836
20,-0.427253,0.000000,0.000000,-0.004517,0.000977,0.998795
21,0.000000,0.061036,-0.183108,0.001343,0.000366,1.004166
22,0.000000,0.427253,-0.122072,-0.002319,-0.003784,1.007706
23,0.427253,0.671397,0.000000,-0.003784,-0.001343,0.993179
24,0.427253,0.732433,0.000000,-0.000244,-0.000610,0.999283
25,0.183108,0.732433,0.000000,-0.005127,-0.006714,0.994522
26,0.854505,0.854505,0.000000,-0.005982,-0.001831,0.996841
27,0.793469,0.671397,0.122072,-0.007568,0.000244,0.991470
28,0.549325,0.427253,0.061036,0.000366,-0.001221,0.995132
29,0.976577,0.671397,-0.122072,-0.007935,0.000366,0.995132
30,0.671397,0.549325,0.000000,-0.005737,0.004150,0.999893
31,0.366217,0.305180,0.183108,-0.004150,-0.003052,0.999893
32,0.915541,0.854505,0.000000,-0.001953,0.005615,0.988907
33,-0.061036,0.244144,0.122072,-0.008179,-0.006592,1.004166
34,1.464866,0.671397,0.183108,0.001465,-0.002686,0.997086
35,0.854505,0.549325,0.183108,-0.007324,0.003540,0.993912
36,0.671397,0.488289,0.122072,-0.003296,-0.001831,0.998672
37,0.976577,0.366217,0.000000,0.001709,0.002075,0.995010
38,1.159686,0.671397,0.183108,-0.010132,-0.000855,0.994278
39,0.854505,0.366217,0.061036,-0.005493,0.005737,0.993668
40,0.671397,0.122072,0.061036,-0.010376,0.005249,0.997940
41,0.122072,-0.183108,0.122072,-0.008789,0.002075,0.995987
42,0.244144,-0.427253,0.122072,-0.008545,0.003296,0.999405
43,0.183108,-0.549325,0.000000,-0.009033,0.000488,1.006485
44,1.159686,-0.366217,0.000000,-0.007813,0.005982,0.981094
45,-0.061036,-0.732433,0.122072,-0.013550,0.010986,0.978408
46,-1.342794,-0.915541,0.122072,-0.002075,0.001709,1.001968
47,-0.549325,-0.549325,0.000000,-0.004639,-0.004883,0.992081
48,-1.037613,-0.427253,0.122072,-0.005737,-0.003662,1.003555
49,-0.244144,-0.183108,0.244144,0.001953,-0.001099,1.003799
50,-0.549325,-0.305180,0.183108,-0.005615,0.001099,1.001602
51,0.000000,0.000000,0.061036,-0.007446,0.008789,0.990982
52,-0.183108,-0.427253,0.061036,-0.004639,-0.002686,1.005142
53,0.183108,-0.366217,0.122072,0.001831,0.004517,1.006485
54,-0.061036,-0.183108,0.000000,-0.025635,-0.002197,0.988296
55,-0.549325,-1.037613,0.122072,0.007080,-0.000610,1.008804
56,0.671397,-0.366217,0.000000,-0.012085,-0.001587,0.994522
57,-0.305180,-1.098650,0.183108,0.014038,0.004517,1.006851
58,0.610361,-0.427253,0.000000,-0.012207,0.007446,1.003189
59,0.061036,-0.915541,0.000000,0.001709,0.001953,0.991958
60,-0.061036,-0.732433,0.000000,-0.009277,-0.001221,0.989517
61,-0.061036,-0.854505,-0.122072,-0.005249,-0.001709,1.004410
62,-0.061036,-0.854505,-0.122072,-0.005249,-0.006592,1.002213
63,0.488289,-0.793469,-0.122072,-0.004517,0.000732,1.003433
64,0.610361,-0.793469,0.000000,-0.003052,0.009033,1.006241
65,0.427253,-0.915541,-0.183108,0.001221,0.001831,1.005020
66,1.037613,-0.671397,-0.183108,0.000366,-0.007691,1.014054
67,2.136263,-0.183108,-0.122072,0.003540,-0.002197,1.007706
68,2.197299,0.061036,0.061036,-0.000977,-0.011109,1.022232
69,4.394598,0.671397,-0.122072,0.001221,-0.009766,1.023941
70,5.798428,0.305180,0.122072,0.002441,0.006836,1.005509
71,4.760815,0.366217,0.061036,0.000244,-0.005249,1.012833
72,6.836042,0.305180,0.000000,-0.009277,0.006226,1.003433
73,6.103609,0.000000,0.061036,-0.008423,0.008911,0.984634
74,5.859464,-0.305180,0.061036,-0.010132,0.010864,0.985489
75,5.493248,-0.854505,0.122072,-0.005615,0.010986,0.990127
76,4.882887,-1.220722,0.122072,-0.011231,0.015747,0.982071
77,4.211490,-1.709010,0.000000,-0.005615,0.012940,0.987808
78,3.723201,-2.014191,-0.122072,-0.012085,0.020386,0.978775
79,2.197299,-2.502480,-0.183108,-0.001709,0.017823,0.998062
80,2.319371,-2.380407,-0.366217,0.002564,0.010742,0.996841
81,2.197299,-2.258335,-0.305180,0.000977,0.016114,1.005753
82,2.685588,-1.770047,-0.488289,0.004150,0.008423,1.009781
83,3.173877,-1.403830,-0.610361,-0.001343,0.015991,0.996231
84,2.746624,-2.014191,-0.671397,0.004517,0.006836,1.023453
85,3.967346,-1.098650,-0.610361,0.008423,0.005615,1.024186
86,5.493248,-0.793469,-0.732433,-0.005859,0.017578,0.985367
87,3.845274,-1.281758,-0.915541,0.010498,0.035401,0.985245
88,3.540093,-1.159686,-0.671397,-0.007446,0.021485,0.972915
89,4.394598,-1.403830,-0.671397,0.002930,0.025513,0.986099
90,2.502480,-1.586938,-0.610361,0.002930,0.028809,0.964370
91,1.525902,-1.403830,-0.610361,0.002930,0.013550,0.988418
92,1.037613,-1.342794,-0.549325,0.010620,0.015869,1.020890
93,2.380407,-0.793469,-0.305180,0.003296,0.005737,1.028824
94,4.638743,-0.427253,-0.427253,-0.002564,0.010742,1.036149
95,6.469825,0.000000,-0.671397,0.001831,0.021607,1.025406
96,8.056764,0.671397,-0.915541,0.006592,0.008057,1.001480
97,9.155413,0.305180,-0.671397,-0.000977,0.025269,0.973159
98,8.056764,0.000000,-0.549325,0.000122,0.036133,0.986099
99,7.934691,0.549325,-0.671397,-0.008301,0.027955,0.933974
100,5.554284,0.000000,-0.183108,-0.006226,0.044923,0.981338
101,3.051804,-0.427253,0.061036,0.005859,0.029664,0.963272
102,3.234913,0.061036,-0.122072,0.006348,0.036255,0.980972
103,1.220722,0.183108,0.122072,0.011963,0.028077,0.987808
104,1.037613,0.671397,0.061036,0.005859,0.021241,1.020768
105,2.929732,1.831083,0.122072,0.008301,0.038087,1.038956
106,4.028382,2.807660,0.244144,-0.002197,0.012818,0.972793
107,5.432212,2.441444,0.671397,-0.004761,0.034058,0.984268
108,4.028382,1.464866,0.732433,-0.019532,0.031373,0.954482
109,2.380407,0.183108,1.098650,0.004028,0.041871,0.985611
110,1.892119,0.671397,1.037613,-0.005859,0.035401,0.986465
111,2.502480,0.793469,1.342794,-0.008301,0.036622,0.981460
112,2.014191,0.305180,1.525902,0.005005,0.031617,0.979385
113,1.220722,0.305180,1.770047,0.004883,0.020996,0.977066
114,2.014191,0.183108,1.892119,-0.029419,0.034058,0.975235
115,1.037613,-1.159686,2.319371,-0.000610,0.022095,1.000259
116,2.014191,-1.220722,2.136263,0.003296,0.029786,0.979751
117,1.464866,-1.892119,2.075227,-0.018067,0.019532,0.996597
118,3.173877,-2.685588,2.014191,-0.004517,0.017945,0.988785
119,4.394598,-2.990768,2.136263,0.025757,0.036255,0.995254
120,5.310140,-1.342794,1.525902,-0.002930,0.054932,0.935073
121,0.305180,-1.281758,1.525902,0.019043,0.069093,0.979141
122,-3.418021,-1.037613,1.770047,0.000488,0.000732,1.029313
123,3.906310,0.061036,1.647974,-0.005005,0.019409,1.020401
124,3.662165,0.427253,2.075227,0.013794,0.033204,1.003922
125,3.234913,0.732433,1.892119,-0.004639,0.032593,1.010758
126,5.615320,0.671397,1.525902,0.012451,0.034424,1.000626
127,4.394598,1.037613,1.342794,0.007324,0.023926,0.995010
128,6.164645,1.159686,0.671397,0.007324,0.052369,0.985000
129,3.418021,0.549325,0.183108,0.001831,0.062257,0.964370
130,0.732433,-0.305180,-0.183108,-0.012818,0.052979,0.972427
131,0.854505,-1.464866,-0.732433,-0.019043,0.056153,0.975113
132,-1.647974,-3.051804,-1.098650,-0.008301,0.053590,0.978042
133,-2.929732,-3.784237,-1.342794,-0.000855,0.036133,1.000259
134,-3.051804,-3.418021,-1.281758,0.013306,0.025879,1.025284
135,-1.159686,-2.075227,-1.037613,0.032837,0.024537,1.026017
136,0.183108,-0.183108,-0.732433,0.032349,0.043580,1.008194
137,-0.793469,1.403830,-0.793469,0.028443,0.033814,1.010758
138,0.061036,2.563516,-0.793469,0.016846,0.027466,1.017594
139,2.014191,4.455634,-0.915541,0.015137,0.047730,0.966201
140,-1.709010,5.004959,-0.793469,-0.003906,0.053223,0.959243
141,-4.272526,4.821851,-0.732433,-0.004517,0.053101,0.970840
142,-5.127031,5.493248,-0.793469,0.004761,0.041138,0.994034
143,-7.202258,5.310140,-0.549325,-0.007691,0.020142,1.008316
144,-3.601129,5.737392,-0.427253,0.005371,0.015869,1.019181
145,-2.807660,6.225681,-0.366217,-0.018921,0.028565,0.991714
146,-2.502480,4.943923,0.000000,-0.024781,0.025513,0.994888
147,-0.671397,4.394598,-0.366217,-0.002319,0.027955,0.992813
148,-0.610361,4.150454,-0.305180,-0.013184,0.035157,0.978531
149,-0.671397,3.356985,-0.244144,-0.033936,0.041138,0.973892
150,-2.502480,1.770047,-0.366217,-0.023316,0.052125,0.956802
151,-5.004959,0.488289,-0.366217,-0.014893,0.035401,0.985000
152,-3.967346,-0.366217,-0.488289,-0.024903,0.031250,0.972305
153,-4.821851,-1.525902,-0.366217,-0.006836,0.030762,0.981216
154,-5.615320,-2.197299,-0.244144,-0.028077,0.022095,0.994522
155,-4.211490,-3.173877,-0.366217,-0.012085,0.021973,0.999405
156,-4.333562,-3.784237,-0.427253,-0.023804,0.027710,0.993790
157,-4.089418,-4.699779,-0.549325,-0.020142,0.025147,0.988052
158,-4.516670,-6.286717,-0.488289,-0.025025,0.028931,0.968399
159,-5.188067,-8.117800,-0.427253,-0.007080,0.025391,0.967544
160,-6.103609,-9.277485,-0.244144,-0.000732,0.023682,0.969863
161,-7.507439,-9.521630,-0.122072,0.009277,0.037720,0.980362
162,-8.667124,-8.728161,-0.244144,0.020020,0.035767,0.980117
163,-11.779965,-7.812619,-0.183108,0.029664,0.019776,1.002823
164,-11.413748,-6.103609,0.183108,0.031739,0.014527,1.003555
165,-10.803388,-5.371176,0.671397,0.001953,0.007691,0.984390
166,-10.193027,-6.408789,0.793469,0.003784,0.004883,0.994278
167,-11.108568,-7.202258,1.159686,0.002441,0.000488,1.002579
168,-8.789197,-7.629511,0.854505,-0.013672,0.007446,0.980972
169,-9.460594,-8.545052,0.854505,-0.000366,0.031373,0.948989
170,-13.977264,-9.887846,0.671397,-0.007813,0.043214,0.930556
171,-18.249790,-10.925460,0.671397,0.010742,0.011841,0.912490
172,-22.644388,-11.902037,0.915541,-0.004639,0.021973,0.914321
173,-31.494621,-12.939651,2.563516,0.051392,-0.015991,1.054337
174,-28.747997,-9.216449,3.234913,0.039551,-0.045777,1.041154
175,-22.583352,-6.347753,3.723201,0.055543,-0.013062,1.014786
176,-26.611734,-4.516670,4.699779,0.034913,-0.035889,1.022232
177,-23.620966,-3.906310,4.577707,-0.006592,-0.026490,0.973892
178,-24.658579,-5.310140,4.150454,0.017945,-0.008301,0.958999
179,-31.128405,-6.591897,4.028382,0.017700,-0.025391,0.978042
180,-30.457008,-6.530861,3.356985,0.010376,-0.034302,0.971572
181,-31.555657,-6.713970,3.112840,0.010620,-0.062257,0.982925
182,-31.372549,-8.117800,4.028382,-0.001709,-0.075685,0.996719
183,-26.428626,-8.178836,3.662165,0.014893,0.000244,0.945571
184,-28.137636,-9.155413,3.479057,0.105348,0.109987,0.871595
185,-45.593957,-3.112840,2.014191,-0.029053,0.039429,0.889174
186,-62.561990,-5.065995,2.197299,0.124392,-0.064454,1.116716
187,-50.354772,3.540093,0.732433,-0.000122,-0.077516,1.039933
188,-47.852293,3.479057,-0.854505,0.031739,-0.053223,1.001358
189,-54.016938,4.028382,-0.305180,-0.001099,-0.098268,0.982925
190,-49.683375,2.502480,-3.906310,-0.066285,-0.071412,1.028824
191,-45.410849,1.098650,-12.085145,0.013550,-0.075196,1.071427
192,-48.340581,7.568475,-24.536507,-0.000488,-0.068116,0.873304
193,-73.914702,12.024109,-42.542153,0.116335,-0.167483,1.005509
194,-56.153201,11.352712,-26.123445,0.218021,-0.335210,1.063127
195,-44.190127,7.995727,-2.014191,0.055665,-0.099611,1.029068
196,-61.646448,11.352712,-5.065995,0.079469,-0.000244,1.019181
197,-80.628672,16.479744,-3.356985,0.045899,0.018067,0.953628
198,-111.696040,20.325017,-5.615320,0.041138,0.044068,0.830579
199,-112.733654,10.681315,11.841001,-0.024170,-0.099611,0.957900
200,-142.458228,4.638743,17.761501,0.030152,0.133425,0.646616
201,-146.852827,3.967346,-9.826810,0.122927,0.860731,1.011856
202,-317.936980,14.282444,-38.941024,0.006470,0.677256,1.738796
203,-514.106966,21.301595,-9.643702,-0.132326,0.511604,1.999969
204,-615.243763,45.044633,-10.498207,0.147951,-0.091432,1.999969
205,-623.788815,150.698100,34.973678,-0.672007,-0.235233,1.999969
206,-604.562448,188.723583,143.373770,-2.000031,-0.137942,1.999969
207,-127.565423,64.759289,32.837415,-1.965972,-0.810315,1.999969
208,316.716259,15.747311,36.621653,-1.316182,0.470344,1.790677
209,169.008927,-24.475471,57.801175,-0.313603,0.642588,0.121096
210,-50.537881,-71.595331,150.637064,0.197635,0.572152,-0.030518
211,-69.459068,-58.716716,106.569009,0.956191,0.201663,0.615488
212,52.918288,8.606088,26.367590,0.729137,0.696788,0.552255
213,38.574807,34.668498,-19.531548,0.649424,0.766857,0.370489
214,-7.202258,43.274586,-35.950256,0.302007,0.540658,0.444099
215,27.954528,24.719615,-51.209277,-0.004273,0.470954,0.576059
216,53.894865,-9.277485,-53.467613,-0.180423,0.481575,0.570077
217,55.603876,-38.086519,-43.091478,-0.269535,0.476570,0.705211
218,65.369650,-51.514458,-35.278859,-0.317144,0.450935,0.999527
219,86.305028,-50.049592,-28.381781,-0.369268,0.451911,1.170306
220,108.339055,-41.870756,-23.193713,-0.408453,0.489631,1.391867
221,131.227588,-28.076600,-16.357671,-0.419562,0.445686,1.548730
222,161.867704,-10.437171,-9.338521,-0.427619,0.361944,1.511620
223,192.751965,5.004959,-3.112840,-0.404791,0.310918,1.283101
224,206.485084,14.282444,4.821851,-0.366094,0.241093,1.144427
225,215.640497,17.090105,13.305867,-0.291508,0.161868,1.027848
226,226.688029,15.014878,18.860151,-0.184085,0.150637,0.962905
227,228.091859,7.385367,21.911955,-0.036500,0.111086,0.864637
228,226.504921,-0.244144,18.066682,0.161135,0.063966,0.694713
229,216.372931,2.807660,4.760815,0.326665,0.016480,0.563607
230,192.629892,15.014878,-13.183795,0.344488,0.073487,0.824231
231,169.863432,27.466239,-29.297322,0.173465,0.173953,1.570581
232,172.365911,35.339895,-38.330663,-0.064942,0.129274,1.999969
233,208.499275,39.551385,-38.818952,-0.264408,-0.018189,1.999969
234,247.257191,39.612421,-31.189441,-0.318486,-0.168704,1.999969
235,255.863279,38.025483,-21.362631,-0.224125,-0.303838,1.473777
236,243.533989,42.725261,-15.259022,-0.166629,-0.315557,1.495995
237,227.237354,47.241932,-10.376135,-0.169436,-0.307256,1.859525
238,234.378576,45.899138,-6.042573,-0.187381,-0.319829,1.999969
239,253.910124,36.926833,-1.831083,-0.156252,-0.343389,1.999969
240,269.718471,25.513085,0.244144,-0.085817,-0.352422,1.797879
241,268.131533,19.104295,-1.525902,0.000000,-0.352544,1.649928
242,260.563058,20.630198,-8.117800,0.088624,-0.350103,1.595361
243,250.736248,28.259709,-18.493935,0.110719,-0.337774,1.745388
244,243.289845,36.987869,-28.381781,0.088014,-0.401862,1.811551
245,243.106737,44.617380,-36.621653,0.086183,-0.489998,1.654322
246,235.538262,50.171664,-43.091478,0.127687,-0.573739,1.367575
247,214.908064,56.702525,-49.500267,0.150393,-0.686534,1.095964
248,186.160067,63.721675,-57.007706,0.127932,-0.829969,0.922011
249,151.491569,66.834516,-62.378882,0.076661,-1.041154,0.984390
250,120.546273,58.594644,-64.820325,0.125978,-1.333639,1.234638
251,102.845808,50.171664,-64.820325,0.307256,-1.758938,1.273945
252,83.558404,47.669184,-67.566949,0.409918,-2.000031,1.085954
253,71.412222,56.824598,-70.191501,0.357794,-2.000031,0.368780
254,62.989242,45.349813,-64.026856,0.054200,-2.000031,-0.273808
255,4.821851,-9.521630,-36.194400,-0.245609,-1.822538,-0.324346
256,-53.101396,-69.581140,-0.488289,-0.405158,-1.462791,0.346197
257,-63.965820,-95.094224,23.437858,-0.463630,-1.084001,0.948013
258,-100.831617,-113.099870,26.672770,-0.499275,-1.712673,-1.293477
259,-221.622034,-165.590906,68.909743,-0.281254,-0.795056,0.447883
260,-177.981231,-149.294270,67.750057,-0.008423,-0.367437,1.729030
261,-126.161593,-71.412222,60.181582,-0.298589,0.763439,1.999969
262,-151.369497,-73.853666,71.839475,-0.127932,0.666148,0.641978
263,-207.217517,-105.104143,85.328450,0.747082,0.165042,-0.058595
264,-261.783780,-89.845121,68.482490,1.168719,-0.032227,0.883558
265,-274.052033,-73.609522,50.843061,1.128801,0.054444,1.999969
266,-204.776074,-48.950942,27.344167,1.017227,-0.018677,1.999969
267,-104.798962,-12.146181,-6.408789,0.298344,-0.160159,1.999969
268,-90.943771,0.610361,-9.765774,-0.472175,-0.014038,1.338888
269,-114.198520,12.573434,13.550011,-0.793713,-0.040650,1.099138
270,-116.945144,7.324331,35.706111,-0.605356,-0.078614,0.747814
271,-132.997635,-49.988556,49.744411,-0.027710,-0.126955,1.735256
272,-73.975738,-59.449149,36.682689,0.120119,-0.085328,1.386007
273,-55.237659,-69.459068,28.870069,0.429572,0.375128,1.999969
274,-62.928206,-54.810407,22.705425,0.510384,-0.133547,1.526146
275,-26.367590,-30.151827,6.042573,-0.009766,0.055299,1.348531
276,-38.391699,-34.058137,7.507439,-0.038453,0.092775,1.123919
277,-39.185168,-29.724575,4.577707,0.270756,0.088014,1.320577
278,-32.410163,-14.099336,2.014191,-0.034424,0.013062,1.057511
279,-26.001373,-16.968032,2.014191,-0.120974,0.103761,0.904433
280,-36.804761,-22.095064,2.380407,0.026978,0.104005,1.040055
281,-36.011292,-15.686275,-1.464866,0.111330,0.032593,1.166766
282,-24.902724,-6.958114,-0.549325,0.044434,0.049317,1.071672
283,-27.344167,-3.295949,0.183108,0.047120,0.084352,1.135760
284,-22.156100,-0.732433,2.380407,0.071778,0.029541,1.057877
285,-21.240558,0.732433,3.723201,0.016236,0.020264,1.004288
286,-20.386053,-0.671397,4.333562,-0.012696,0.004273,1.035172
287,-14.526589,-3.112840,3.662165,-0.009888,0.026246,1.010147
288,-12.329290,-4.699779,-0.549325,-0.085328,-0.020386,1.005142
289,-14.038300,-7.934691,0.854505,-0.028931,0.040650,1.050797
290,-14.831769,-9.216449,1.159686,-0.010132,0.034302,1.004410
291,-13.244831,-9.094377,0.671397,0.001221,0.026734,0.992203
292,-13.916228,-7.690547,0.488289,-0.057862,0.130495,1.197894
293,-10.376135,-6.469825,3.356985,0.044312,0.024903,0.937392
294,-10.925460,-5.676356,2.380407,-0.012451,-0.011963,0.968887
295,-13.916228,-6.286717,2.929732,0.009400,0.046509,1.044572
296,-11.902037,-5.859464,2.563516,0.027222,0.019532,1.046403
297,-9.399557,-5.676356,2.441444,0.009522,0.049317,1.020401
298,-7.507439,-6.286717,1.709010,-0.003906,0.024048,1.025528
299,-5.004959,-6.713970,0.732433,-0.003540,0.024781,0.950454
300,-7.507439,-7.263294,-0.366217,0.026490,-0.015625,0.899794
301,-9.582666,-8.667124,-0.122072,-0.028687,0.016968,0.978042
302,-14.709697,-10.376135,0.305180,0.006470,0.041749,0.983413
303,-17.273213,-10.559243,0.976577,0.015503,0.013428,1.005264
304,-15.075914,-9.887846,0.244144,0.006470,0.002075,0.988907
305,-15.991455,-10.131991,0.671397,0.022583,0.000977,1.009415
306,-16.723888,-9.521630,0.061036,0.024170,-0.029053,1.005264
307,-15.014878,-8.728161,0.854505,0.036500,-0.019287,1.035172
308,-12.878614,-6.897078,0.732433,0.034913,-0.028565,1.026627
309,-12.268254,-5.371176,1.770047,0.029053,-0.001343,1.009049
310,-12.451362,-5.065995,2.380407,0.037598,-0.019654,0.954238
311,-16.479744,-5.188067,2.685588,0.030152,0.003784,0.956802
312,-19.897765,-5.920500,2.441444,0.025147,0.010864,0.968765
313,-23.437858,-5.859464,2.136263,0.020386,-0.015503,0.965347
314,-23.682002,-5.798428,2.136263,0.029419,-0.021729,1.004898
315,-23.010605,-5.676356,1.586938,0.014038,-0.033326,0.974624
316,-20.935378,-6.225681,1.831083,0.014038,-0.020752,0.980362
317,-22.705425,-7.141222,2.380407,0.031250,-0.017945,0.978408
318,-23.682002,-7.080186,2.685588,0.030762,-0.030640,1.027359
319,-28.198672,-7.141222,2.380407,0.019898,-0.024048,0.974990
320,-32.471199,-7.507439,2.807660,0.064454,-0.015747,1.068620
321,-33.081559,-3.967346,2.563516,0.015259,-0.065797,0.972427
322,-30.090791,-4.272526,4.699779,0.114260,0.031006,0.975723
323,-49.927520,2.258335,7.019150,-0.000122,-0.004273,0.996597
324,-56.702525,2.319371,9.399557,0.072511,-0.112184,1.045304
325,-45.410849,5.737392,9.826810,0.014771,-0.061524,1.011612
326,-52.368963,4.638743,8.911269,0.010864,-0.069947,1.001846
327,-51.575494,2.441444,6.591897,-0.032471,-0.083497,1.001968
328,-42.969406,0.610361,-0.122072,-0.047364,-0.060914,0.990005
329,-45.227741,3.967346,-9.948882,-0.014160,-0.166995,0.977676
330,-51.392386,1.464866,-21.789883,-0.108522,0.091066,1.084855
331,-61.158160,5.493248,-49.805447,0.023194,-0.231693,1.063493
332,-24.231327,1.953155,-34.058137,0.149783,-0.320317,0.922622
333,-3.540093,-5.981537,-11.779965,0.052125,-0.182132,1.089006
334,-32.410163,-1.892119,-6.347753,0.069215,-0.019165,1.231830
335,-67.933165,9.094377,-9.216449,0.047974,0.168704,0.965713
336,-110.353246,19.104295,-14.953841,0.184817,0.165652,1.084855
337,-138.307774,32.959487,-11.291676,0.028931,0.243534,0.832410
338,-192.141604,37.232013,-13.977264,-0.005127,0.545052,0.355230
339,-163.759823,-19.226368,21.667811,-0.262211,0.811536,1.196551
340,-354.314488,-30.090791,-0.915541,0.267216,1.128801,1.024308
341,-610.910201,-37.537194,23.620966,-0.418097,-0.040894,1.440940
342,-709.971771,-88.380255,52.429999,-0.104738,0.033692,1.288106
343,-794.995041,-77.759976,41.626612,0.325444,-0.022950,1.213642
344,-845.716030,-56.336309,37.720302,0.248783,-0.699229,1.066545
345,-1050.797284,-41.077287,158.754864,-0.680797,-1.350729,1.999969
346,-404.974441,13.122759,15.991455,-1.208392,-1.625269,1.999969
347,216.861219,56.763561,-74.708171,-0.640757,0.607919,1.999969
348,147.341115,66.773480,-84.229801,-0.681285,0.777478,1.531273
349,-44.251164,39.124132,4.028382,-0.979751,0.679210,1.717922
350,-101.319905,-52.613108,70.191501,-0.699718,0.115846,1.732082
351,70.618753,-39.307240,78.797589,-0.527840,0.378424,1.611719
352,169.558251,-48.584726,64.942397,-0.320317,0.562142,1.026261
353,117.677577,-56.214237,76.173037,-0.172610,0.478279,1.026505
354,132.265202,-44.495308,72.388800,-0.058473,0.282841,1.078996
355,184.451057,-19.531548,53.894865,0.025513,0.341192,0.796521
356,176.089113,-2.868696,40.894179,0.114748,0.346075,0.626352
357,168.337530,14.282444,27.588312,0.127932,0.254154,0.689708
358,183.352407,29.480430,12.390326,0.061280,0.246098,0.781506
359,187.808042,32.898451,4.699779,-0.022827,0.230350,0.982437
360,201.541161,29.907683,2.014191,-0.097780,0.142458,1.160906
361,230.106050,22.522316,2.502480,-0.127932,0.112428,1.207660
362,250.064851,10.070954,4.882887,-0.105348,0.086793,1.266133
363,268.009461,-1.281758,6.103609,-0.051637,0.079347,1.516503
364,290.409705,-5.920500,3.051804,0.043458,0.028687,1.830594
365,321.232929,-3.173877,-4.699779,0.140383,-0.063478,1.852689
366,351.567865,1.464866,-17.273213,0.250248,-0.154177,1.580591
367,361.516747,5.249104,-32.043946,0.312383,-0.255985,1.100603
368,351.262684,12.756542,-50.965133,0.373053,-0.511116,0.434333
369,315.251392,37.720302,-74.464027,0.510018,-0.653941,-0.135866
370,251.163500,69.886320,-91.493095,0.310307,-0.475959,0.336065
371,185.610742,64.393072,-94.239719,0.016846,-0.394049,1.069841
372,188.235294,54.932479,-96.009766,-0.206790,-0.350958,1.999969
373,197.878996,63.050278,-87.281605,-0.370977,-0.364019,1.999969
374,216.678111,77.759976,-69.398032,-0.416388,-0.547738,1.999969
375,264.469368,83.192187,-53.467613,-0.438849,-0.814099,1.999969
376,275.577935,86.854353,-36.194400,-0.383551,-0.858534,1.754299
377,242.069123,77.393759,-13.244831,-0.394415,-0.846571,1.999969
378,250.247959,61.341268,4.821851,-0.280644,-0.900160,1.999969
379,292.423896,57.801175,12.634470,-0.111574,-0.858656,1.999969
380,297.734035,59.998474,16.845960,0.113405,-0.817395,1.820951
381,289.860380,59.632258,15.075914,0.316533,-0.803723,1.544457
382,282.841230,57.923247,6.591897,0.379400,-0.749523,1.527489
383,266.300450,51.880674,0.000000,0.332158,-0.778332,1.618677
384,260.196841,44.495308,-4.638743,0.209598,-0.895521,1.657618
385,256.046387,38.147555,-5.249104,0.071778,-1.076799,1.503197
386,240.726329,33.325704,-2.014191,-0.046754,-1.387350,1.197040
387,215.457389,30.640116,4.882887,-0.048829,-1.787503,0.816175
388,176.455329,33.813993,8.178836,0.211429,-2.000031,0.508553
389,120.973526,48.462654,-6.652934,0.618784,-2.000031,0.359747
390,75.684749,78.187228,-28.442817,0.701671,-2.000031,0.135500
391,45.777066,79.957275,-31.189441,0.467048,-2.000031,-0.217899
392,3.356985,23.620966,-11.291676,0.242679,-2.000031,-0.216922
393,-41.321431,-59.998474,20.325017,0.165652,-1.801663,0.332891
394,-57.557031,-114.930953,39.917601,0.421393,-1.656275,-1.925689
395,-206.424048,-136.232548,18.738079,0.859998,-1.217792,-0.041382
396,-180.849928,-113.954376,7.141222,-0.048096,-0.599741,1.511254
397,-103.395132,-67.505913,-1.464866,-0.579965,1.215961,1.999969
398,-106.813153,-69.336996,-1.770047,-1.008316,0.597177,0.827039
399,-240.665293,-89.906157,46.143282,-0.865736,0.034791,-0.633310
400,-312.993057,-100.648508,83.131151,-0.180056,-0.470466,0.510018
401,-309.025711,-65.796902,84.779126,0.545296,-0.302373,1.999969
402,-227.969787,-28.564889,68.909743,1.281514,-0.117800,1.999969
403,-168.032349,-20.630198,28.137636,1.712917,0.102052,1.999969
404,-160.341802,29.785611,-7.751583,0.950576,0.121340,1.724880
405,-158.205539,60.059510,-9.155413,-0.853162,0.156985,1.999969
406,-160.708019,6.103609,25.329976,-1.776516,-1.032364,1.999969
407,-54.261082,-67.933165,35.828183,-0.388678,-0.228641,1.850248
408,-48.828870,-76.478218,31.799802,1.364034,0.400031,1.925689
409,-36.804761,-8.239872,11.169604,0.485725,0.171023,1.181048
410,-66.468299,0.610361,19.226368,-0.667735,-0.072999,1.125017
411,-40.588998,-27.588312,12.268254,0.078981,0.012207,1.138811
412,-36.499580,-12.207218,3.051804,0.461189,0.173098,1.347433
413,-45.960174,10.315099,4.394598,-0.200443,-0.041382,0.993179
414,-35.095750,-4.455634,7.141222,-0.147097,-0.024170,1.151141
415,-22.461280,-2.624552,4.821851,0.121828,0.052369,1.195941
416,-22.766461,6.286717,5.249104,-0.067506,-0.010864,1.049210
417,-16.235599,5.554284,5.371176,-0.060792,0.036133,1.040909
418,-15.381094,6.408789,4.455634,-0.025879,0.066163,0.993179
419,-18.554971,5.432212,4.577707,-0.113039,0.034791,0.960708
420,-18.738079,1.709010,4.394598,-0.052003,0.025879,1.023453
421,-17.395285,1.159686,3.479057,-0.052979,0.018189,1.020401
422,-15.991455,0.732433,3.112840,-0.066896,0.009888,0.990249
423,-16.418708,-0.732433,3.662165,-0.061524,0.009888,0.990616
424,-15.991455,-2.685588,3.418021,-0.080568,0.004883,0.979019
425,-15.991455,-5.004959,3.356985,-0.072389,0.005859,0.979385
426,-14.892805,-7.324331,2.807660,-0.088136,0.006836,0.972183
427,-14.831769,-9.948882,2.197299,-0.052247,0.000000,0.990616
428,-14.648661,-10.254063,1.831083,-0.062135,0.022705,0.967544
429,-17.883574,-10.620279,1.647974,-0.034180,0.008301,1.005753
430,-16.479744,-9.399557,1.586938,-0.043824,0.015381,1.006363
431,-15.259022,-7.873655,-1.403830,-0.037964,-0.063600,0.881361
432,-17.212177,-9.277485,0.732433,-0.066529,0.025147,1.059709
433,-21.545739,-9.887846,2.014191,-0.033326,-0.012451,1.016983
434,-17.395285,-8.972305,1.525902,-0.038575,-0.018921,1.007462
435,-16.845960,-8.728161,1.342794,-0.040650,-0.026490,1.038224
436,-16.479744,-6.164645,-0.183108,0.019654,-0.050660,0.958633
437,-9.887846,-7.019150,-0.122072,-0.079469,-0.024903,1.143938
438,-14.526589,-9.216449,1.037613,-0.028687,-0.038331,0.949722
439,-12.146181,-7.995727,0.549325,-0.049073,-0.023072,0.989639
440,-12.817578,-8.056764,0.244144,-0.016236,-0.038087,0.987686
441,-16.113527,-6.652934,1.159686,-0.016480,-0.010864,1.012100
442,-17.883574,-5.065995,1.525902,-0.010010,-0.016846,1.026261
443,-18.127718,-4.089418,2.380407,-0.017090,-0.021607,1.018204
444,-18.493935,-3.356985,2.746624,-0.025269,-0.061402,0.993545
445,-19.470512,-3.601129,3.112840,-0.025757,-0.055543,1.015640
446,-17.639429,-2.807660,3.479057,-0.021607,-0.065431,1.002090
447,-14.709697,-2.868696,3.356985,-0.054566,-0.042603,0.986587
448,-15.930419,-5.371176,3.356985,-0.045533,-0.021118,0.967910
449,-18.921187,-7.019150,2.685588,-0.039796,-0.000977,0.932387
450,-26.306554,-9.338521,2.868696,-0.038453,-0.011475,0.971695
451,-30.212863,-10.437171,2.807660,-0.006714,-0.014527,0.992081
452,-33.813993,-9.277485,1.403830,-0.042725,-0.031861,0.963638
453,-38.147555,-9.765774,2.014191,0.012085,-0.034791,0.992813
454,-44.129091,-8.484016,1.464866,-0.021607,-0.063722,1.015518
455,-43.518730,-7.934691,0.549325,-0.079591,-0.079469,0.981216
456,-42.908370,-9.216449,2.014191,0.020630,-0.094728,1.021866
457,-44.312200,-8.239872,4.028382,-0.055299,-0.137942,1.035172
458,-36.438544,-8.361944,4.760815,-0.008911,-0.126833,1.019669
459,-33.325704,-5.920500,6.042573,-0.009888,-0.101198,1.104265
460,-32.715343,-4.577707,4.455634,-0.053834,-0.087770,1.039933
461,-33.142596,-5.188067,1.220722,-0.037476,-0.073610,0.982071
462,-34.363317,-6.897078,-1.220722,-0.085328,-0.110719,1.020645
463,-31.738766,-8.789197,-4.577707,-0.097658,-0.027466,1.006973
464,-25.879301,-1.953155,-16.052491,0.001953,-0.167239,0.867079
465,-62.989242,2.868696,-43.457694,-0.038209,-0.053590,0.891859
466,-62.256809,2.014191,-46.692607,0.048219,-0.359869,1.115740
467,-30.457008,-1.464866,-23.437858,0.106813,-0.314092,1.090715
468,-17.517357,-7.812619,-10.009918,-0.035401,-0.071046,1.036027
469,-48.157473,-11.047532,-15.686275,0.031983,-0.039918,1.052018
470,-57.495995,-10.864424,-17.883574,0.005982,0.110719,0.906264
471,-88.258183,-4.089418,-26.062409,0.031250,0.161746,0.932387
472,-129.457542,-4.455634,-17.395285,0.199710,0.215457,0.774060
473,-131.654841,-19.226368,-12.207218,0.012696,0.406134,0.993423
474,-215.213245,-5.310140,-53.040360,0.000244,0.946670,1.601831
475,-495.307851,10.437171,-48.279545,-0.070314,0.856580,1.988434
476,-784.985122,22.583352,14.770733,-0.240482,0.534432,1.158953
477,-853.223468,-7.141222,66.224155,0.154421,-0.290166,1.410788
478,-897.413596,8.972305,75.867857,0.409186,0.056275,0.912856
479,-1130.327306,-11.779965,141.054398,-0.974746,-1.783474,1.999969
480,-486.579690,-50.110628,45.960174,-1.830594,-1.406149,1.999969
481,244.693675,-42.847333,-65.674830,-0.818006,1.013565,1.999969
482,304.692149,-54.383154,-53.772793,-1.092790,1.350484,1.999969
483,70.008392,-65.369650,-30.884260,-0.644053,0.743542,1.826200
484,-33.936065,-100.892653,74.952316,-0.467048,0.645640,0.628428
485,-26.611734,-92.591745,72.388800,-0.110109,0.267338,0.714488
486,103.150988,-47.791257,33.569848,-0.122683,0.323369,0.635142
487,112.855726,-30.090791,19.714656,-0.067262,0.539803,0.379889
488,62.806134,-25.940337,23.010605,-0.036378,0.478401,0.798718
489,90.943771,-22.156100,14.282444,-0.072145,0.423713,1.178485
490,149.416342,-22.827497,4.150454,-0.062867,0.487678,1.235737
491,171.084154,-33.936065,-0.549325,-0.047242,0.465095,1.221820
492,198.489357,-40.833143,-7.263294,-0.043214,0.371832,1.185565
493,229.007401,-39.185168,-16.540780,-0.045045,0.324468,1.124041
494,241.702907,-31.921874,-24.719615,-0.067506,0.235111,1.066178
495,255.130846,-20.813306,-32.410163,-0.110842,0.133303,1.130266
496,271.122301,-8.545052,-38.269627,-0.147219,0.062623,1.179950
497,286.198215,-0.244144,-41.016251,-0.187869,-0.028321,1.201068
498,298.954757,3.356985,-41.138323,-0.185428,-0.070802,1.228412
499,310.185397,3.784237,-40.283818,-0.168582,-0.093385,1.338155
500,321.232929,6.591897,-41.687648,-0.142092,-0.196658,1.255879
501,317.631800,23.010605,-46.265354,-0.079957,-0.504158,0.938613
502,302.189670,55.725948,-47.608148,0.010620,-0.614633,0.597665
503,268.436713,73.487449,-50.904097,0.101198,-0.558602,0.561166
504,231.754025,66.956588,-53.711757,0.065919,-0.443977,1.071550
505,210.086213,59.205005,-53.162432,-0.028931,-0.504280,1.639307
506,210.513466,68.299382,-50.110628,-0.037110,-0.502571,1.999969
507,217.410544,74.402991,-47.852293,-0.104616,-0.518929,1.999969
508,228.458076,79.652094,-41.809720,-0.153689,-0.702525,1.999969
509,245.792325,83.924620,-34.546426,-0.176638,-0.842420,1.999969
510,252.628367,76.112001,-26.001373,-0.162844,-0.954238,1.999969
511,261.783780,67.750057,-18.005646,-0.098146,-0.948867,1.999969
512,272.037842,60.852979,-12.024109,-0.043580,-0.922255,1.999969
513,290.409705,56.031128,-9.277485,0.118898,-0.897230,1.999969
514,298.710613,57.923247,-13.122759,0.314458,-0.832166,1.700465
515,287.113756,60.425727,-22.766461,0.503182,-0.791638,1.434714
516,267.826352,62.073701,-36.926833,0.504646,-0.755993,1.462058
517,251.163500,58.167391,-47.730220,0.439704,-0.772229,1.643458
518,248.172732,52.002747,-56.824598,0.380499,-0.851453,1.644556
519,247.257191,50.843061,-65.796902,0.352300,-0.963638,1.403830
520,227.847715,56.397345,-72.327764,0.260014,-1.161639,1.074357
521,197.573816,63.660639,-74.952316,0.115236,-1.477928,0.789685
522,161.623560,72.022583,-70.069429,0.038453,-1.835966,0.547127
523,119.813840,77.882048,-59.693294,0.122316,-2.000031,0.430915
524,75.196460,78.187228,-46.753643,0.206790,-2.000031,0.445686
525,46.387427,71.351186,-31.921874,0.224247,-2.000031,0.308965
526,29.236286,50.354772,-13.488975,0.115602,-2.000031,0.031250
527,-12.329290,7.202258,13.000687,-0.046876,-1.848661,0.022461
528,-56.275273,-35.523003,41.138323,-0.220584,-1.546288,0.505989
529,-79.224842,-57.434958,61.341268,-0.405402,-2.000031,-2.000031
530,-193.850614,-144.533455,100.892653,-0.008667,-0.316655,0.137575
531,-164.675364,-123.903258,91.248951,0.192508,0.185916,1.999969
532,-122.682536,-40.711070,80.140383,-0.084596,1.057267,1.799344
533,-130.006867,-81.361105,84.412909,0.190188,0.738048,0.055787
534,-218.997482,-116.212711,87.525750,1.129046,0.224979,-0.165896
535,-303.837644,-81.055924,77.271687,1.489158,0.091310,1.058366
536,-299.320974,-59.021897,48.828870,1.544335,-0.048219,1.999969
537,-189.272908,-18.860151,6.042573,1.189837,-0.152346,1.999969
538,-116.212711,15.686275,-25.268940,-0.103639,-0.055665,1.433616
539,-154.116121,17.822538,-5.920500,-1.020645,-0.089357,1.329000
540,-164.431220,-1.403830,27.893492,-1.342794,-0.342046,1.490623
541,-147.585260,-62.623026,55.481804,-0.738415,-0.460090,1.634668
542,-91.615167,-95.643549,57.251850,0.324224,-0.119875,1.567529
543,-69.703212,-92.347601,41.809720,1.086809,0.566781,1.999969
544,-61.890593,-53.284504,21.850919,0.444221,0.021363,1.607691
545,-38.208591,-35.217823,11.413748,-0.307622,0.075929,1.213519
546,-47.913329,-57.312886,14.526589,0.102052,0.149660,1.175555
547,-46.204318,-47.058824,4.272526,0.525154,0.104738,1.474510
548,-37.598230,-20.691234,1.586938,0.018189,-0.024781,1.072038
549,-33.508812,-23.254749,2.685588,-0.089113,0.033204,1.056779
550,-36.743725,-20.630198,1.647974,0.320806,0.082399,1.308858
551,-28.198672,-3.845274,1.709010,0.071534,0.032715,1.043717
552,-27.954528,2.197299,2.563516,0.068605,0.055909,1.061295
553,-28.870069,6.775006,3.112840,0.061158,0.021607,1.056291
554,-24.109255,10.009918,3.234913,0.049317,0.009644,1.053117
555,-22.705425,10.803388,3.906310,0.004883,0.006958,1.021378
556,-21.118486,7.751583,4.089418,-0.013672,0.003052,1.032609
557,-17.212177,5.493248,3.234913,-0.007324,0.026490,0.977432
558,-18.432898,2.929732,2.075227,-0.028321,0.021363,0.954849
559,-20.813306,-0.793469,1.831083,-0.039796,0.012085,0.985122
560,-19.653620,-3.784237,2.014191,0.009277,-0.008057,1.001480
561,-17.822538,-4.516670,1.709010,-0.012451,-0.006226,1.015030
562,-16.052491,-5.554284,1.342794,0.075319,-0.033814,0.851209
563,-16.113527,-7.568475,2.197299,-0.009277,0.000122,1.023087
564,-18.554971,-9.765774,2.380407,-0.007324,0.020020,0.999283
565,-15.320058,-10.131991,2.319371,0.036378,-0.028443,1.047257
566,-10.925460,-8.178836,1.403830,0.004150,-0.011597,1.027481
567,-10.009918,-8.300908,0.915541,-0.024781,-0.012940,0.980117
568,-11.230640,-10.498207,1.342794,-0.004028,0.004517,0.976699
569,-13.000687,-12.146181,0.854505,-0.024292,0.051392,0.991470
570,-15.625238,-14.404517,0.488289,0.003662,-0.041993,0.945205
571,-18.127718,-15.075914,0.061036,0.044068,-0.038697,0.986221
572,-18.860151,-14.221408,0.244144,0.051270,0.022339,1.028702
573,-17.517357,-12.390326,-0.244144,0.009888,-0.049561,0.966445
574,-16.235599,-14.160372,0.244144,0.043214,-0.009033,1.027604
575,-14.221408,-12.512398,-0.427253,0.045289,-0.038453,0.951431
576,-20.569162,-13.305867,0.000000,0.010010,-0.024903,1.003922
577,-19.287404,-14.038300,1.464866,0.054688,-0.022583,0.967544
578,-23.193713,-13.916228,2.197299,0.036622,-0.017578,0.983658
579,-25.940337,-14.282444,2.014191,0.048463,-0.053346,1.005386
580,-22.095064,-12.939651,1.770047,0.043091,-0.046998,1.004776
581,-19.104295,-12.329290,2.746624,0.067140,-0.029297,1.025284
582,-22.156100,-11.169604,2.685588,0.055299,-0.050050,0.966690
583,-24.658579,-11.108568,2.990768,0.081422,-0.033204,1.055680
584,-25.146868,-5.920500,2.136263,0.057862,-0.066773,0.979019
585,-29.968719,-5.249104,2.014191,0.075685,-0.029664,1.051652
586,-29.297322,-3.051804,2.685588,-0.019532,-0.144045,1.169207
587,-33.936065,-3.845274,2.990768,0.041016,-0.076417,0.927626
588,-30.640116,-3.234913,2.563516,0.036744,-0.075685,0.930434
589,-36.682689,-2.990768,3.112840,0.058839,-0.050294,0.986343
590,-34.851606,-0.732433,7.019150,0.156497,-0.042847,1.002335
591,-56.336309,3.723201,9.826810,0.056641,-0.104616,1.009415
592,-53.284504,6.042573,14.526589,0.065553,-0.139773,0.999527
593,-44.312200,5.371176,16.174563,0.054444,-0.115602,1.055802
594,-45.716030,6.408789,13.061723,-0.002930,-0.134768,1.015274
595,-29.724575,3.173877,5.554284,-0.056519,-0.119265,0.959243
596,-25.085832,1.464866,-4.394598,-0.020752,-0.077394,1.119768
597,-40.039673,0.610361,-27.100023,-0.049805,-0.042847,0.934340
598,-47.486076,2.685588,-38.269627,0.109499,-0.185306,1.016861
599,-34.180209,6.042573,-34.851606,0.151369,-0.259892,1.103166
600,-19.775692,10.437171,-27.222095,0.179568,-0.272343,1.044450
601,-19.287404,12.207218,-9.826810,0.169314,-0.194095,1.087785
602,-26.245518,15.014878,-1.098650,0.046265,0.114504,0.942641
603,-57.251850,15.381094,-12.207218,0.047242,0.142947,1.008072
604,-118.287938,28.076600,-19.897765,0.111208,0.306401,0.990249
605,-169.985504,41.504540,-1.647974,0.028321,0.392462,0.866224
606,-211.184863,14.587625,-5.310140,-0.429572,0.643565,0.305669
607,-280.704967,-8.484016,9.704738,0.120851,1.420920,1.541161
608,-583.199817,-29.297322,-53.040360,-0.484382,0.401251,1.597436
609,-782.848859,-70.923934,17.883574,-0.290166,0.271489,1.769436
610,-903.578241,-117.372396,56.580453,0.117433,-0.169070,1.382467
611,-1091.996643,-76.905470,190.554665,0.721080,-2.000031,1.999969
612,-642.710002,15.808347,174.319066,-1.487938,-0.733776,1.999969
613,304.020752,34.912642,-74.036774,-0.299931,0.596078,1.999969
614,450.629435,21.667811,-60.059510,-0.534310,1.080705,1.801663
615,123.659113,-42.114900,-52.185855,-0.342046,0.667247,0.502693
616,-5.676356,-139.528496,63.965820,-0.132448,0.362432,-0.164675
617,-41.687648,-169.008927,44.617380,0.463386,0.384039,0.523323
618,109.071489,-109.559777,-18.371862,0.383551,0.511849,0.729137
619,117.616541,-67.750057,-61.463340,0.408331,0.715099,0.447761
620,49.683375,-32.410163,-73.121233,0.199710,0.610727,0.637827
621,71.473259,-14.648661,-90.760662,-0.058839,0.396612,0.808484
622,119.752804,-14.709697,-100.526436,-0.226322,0.448615,0.796277
623,117.738613,-26.428626,-93.141070,-0.360113,0.425666,0.965835
624,135.072862,-27.649348,-83.192187,-0.394781,0.336675,1.192279
625,170.046540,-16.601816,-76.600290,-0.466316,0.313359,1.313741
626,193.240253,-3.906310,-65.491722,-0.446540,0.292973,1.130388
627,212.405585,9.521630,-56.275273,-0.411383,0.230594,0.948501
628,222.964828,21.545739,-48.218509,-0.329595,0.197269,0.809461
629,226.688029,33.630884,-42.847333,-0.235111,0.184695,0.857557
630,229.312581,48.462654,-38.941024,-0.138308,0.175174,1.021378
631,238.651102,59.693294,-37.048905,-0.063722,0.170047,1.201923
632,254.337377,61.646448,-35.889220,0.012818,0.175784,1.274067
633,269.474327,58.838788,-36.682689,0.102541,0.136721,1.280171
634,276.127260,61.463340,-40.222782,0.157961,0.022705,1.150042
635,274.052033,73.426413,-45.410849,0.141604,-0.119265,1.068986
636,259.525444,90.699626,-46.753643,0.137453,-0.195926,1.215839
637,250.370031,104.798962,-46.326390,0.231083,-0.118654,1.510765
638,249.210346,112.184329,-48.462654,0.332280,-0.063233,1.852934
639,256.473640,115.785458,-50.965133,0.360479,-0.115236,1.989654
640,263.431754,113.649195,-52.124819,0.336553,-0.203128,1.979522
641,267.887388,105.348287,-52.185855,0.319097,-0.218265,1.999969
642,268.802930,96.314946,-51.819638,0.363287,-0.190188,1.999969
643,279.972534,89.784085,-53.101396,0.414191,-0.259403,1.999969
644,313.481346,89.906157,-57.740139,0.429450,-0.401617,1.999969
645,337.041276,91.554131,-64.026856,0.374884,-0.495491,1.999969
646,326.604105,88.990616,-63.782712,0.284916,-0.596201,1.991730
647,315.312428,87.037461,-60.608835,0.412360,-0.674937,1.936553
648,303.654536,91.737240,-59.205005,0.370489,-0.777356,1.960967
649,282.658122,90.760662,-49.805447,0.283330,-1.049943,1.885283
650,267.460136,88.380255,-34.485389,0.241825,-1.400290,1.518212
651,234.622721,85.572595,-18.860151,0.170169,-1.907866,1.051286
652,175.478752,86.305028,-2.136263,0.155886,-2.000031,0.592172
653,104.676890,89.600977,6.713970,0.448859,-2.000031,0.479744
654,32.837415,96.498054,-1.281758,0.925429,-2.000031,0.895766
655,0.671397,108.705272,-10.437171,0.908949,-2.000031,0.913344
656,34.302281,95.887694,-5.188067,0.446662,-2.000031,0.439338
657,22.278172,46.875715,26.367590,0.046632,-2.000031,-0.037842
658,-120.912490,-37.293050,43.518730,0.197757,-2.000031,-1.435691
659,-286.320287,-130.678264,99.671931,0.931167,-0.818616,0.817273
660,-132.448310,-72.938125,48.096437,0.853162,0.398199,1.999969
661,-87.342641,-63.904784,18.554971,0.243778,1.578515,1.849882
662,-124.391547,-81.055924,10.193027,0.075196,0.500618,-0.766125
663,-291.447318,-59.754330,34.485389,-0.227543,-0.026734,-1.210834
664,-416.205081,-61.402304,66.224155,0.139895,-0.417609,1.737575
665,-349.248493,-16.906996,62.073701,0.794568,-0.531258,1.999969
666,-160.341802,29.785611,13.427939,1.080217,-0.292851,1.999969
667,-147.951476,35.217823,-10.376135,0.811780,0.099611,1.999969
668,-154.116121,68.360418,-17.883574,-0.240116,-0.102541,1.999969
669,-122.133211,58.045319,-3.295949,-1.444724,-0.116335,1.979522
670,-106.263828,7.568475,28.198672,-1.228656,-0.289677,0.912001
671,-88.502327,-35.523003,40.039673,0.069825,0.142824,0.837903
672,-99.366751,-60.120546,35.400931,0.575937,0.110231,1.768948
673,-72.510872,-39.551385,19.470512,0.033326,-0.092897,1.551904
674,-57.495995,-42.603189,19.897765,-0.167117,-0.000122,1.069352
675,-60.852979,-48.401617,20.202945,0.111940,0.112306,1.181415
676,-62.867170,-41.687648,18.432898,0.182742,0.022705,1.547143
677,-40.588998,-29.663539,13.061723,0.006714,-0.044678,1.351583
678,-26.550698,-25.146868,10.070954,0.000244,0.020996,1.201434
679,-22.400244,-21.972992,9.948882,0.016968,0.039796,1.180316
680,-16.968032,-16.968032,7.690547,0.044434,0.093019,1.135393
681,-18.493935,-9.094377,6.958114,0.057496,0.049317,1.146502
682,-12.329290,-3.234913,5.798428,-0.044923,0.016236,1.042741
683,-10.193027,-2.197299,6.286717,-0.017945,0.046143,0.972549
684,-9.826810,-1.953155,6.042573,-0.071046,0.089845,0.931899
685,-18.554971,-4.760815,5.615320,-0.055787,0.007813,1.005753
686,-14.770733,-4.272526,5.065995,-0.036011,0.032837,1.041276
687,-15.442130,-2.624552,4.699779,-0.033936,0.029908,1.031510
688,-14.465553,-1.709010,4.272526,-0.067506,0.010864,1.033341
689,-11.779965,-2.197299,3.540093,-0.059937,0.014160,1.042618
690,-10.193027,-2.319371,3.234913,-0.064332,0.005615,1.013687
691,-7.934691,-2.929732,2.563516,-0.060548,0.018555,1.017227
692,-7.995727,-2.441444,2.014191,-0.026246,0.024781,1.017227
693,-8.789197,0.183108,2.014191,-0.028687,0.015747,1.032853
694,-8.484016,2.807660,2.014191,-0.030274,0.023438,1.000504
695,-9.887846,4.211490,2.685588,-0.049683,0.018799,1.009781
696,-10.131991,4.943923,3.418021,-0.052247,0.010620,0.989761
697,-10.620279,5.188067,4.577707,-0.061524,0.001099,0.980606
698,-9.399557,4.211490,5.249104,-0.083619,0.025757,0.973526
699,-11.474784,1.770047,5.371176,-0.094606,0.021851,0.944106
700,-13.122759,-1.647974,5.065995,-0.077882,-0.002564,0.988540
701,-10.925460,-3.112840,4.211490,-0.059449,-0.004028,1.009415
702,-9.338521,-3.723201,3.418021,-0.057984,-0.002930,0.993301
703,-9.216449,-3.906310,3.112840,-0.046754,0.008911,0.981094
704,-11.841001,-4.089418,3.234913,-0.055665,0.006592,0.959365
705,-13.794156,-4.943923,3.112840,-0.075319,0.001831,1.004288
706,-11.413748,-5.065995,2.990768,-0.067506,0.013916,1.061173
707,-8.300908,-4.882887,3.234913,-0.031983,0.032959,0.897841
708,-12.329290,-5.371176,3.234913,-0.071901,0.005005,0.963027
709,-14.831769,-7.690547,2.929732,-0.084108,-0.009766,0.950576
710,-16.540780,-10.742351,2.441444,-0.069215,0.010620,0.952285
711,-16.418708,-12.207218,-0.183108,-0.068605,-0.007568,0.843030
712,-21.667811,-14.648661,0.732433,-0.031739,0.045777,1.024186
713,-32.166018,-14.160372,1.831083,-0.052247,-0.008423,1.016739
714,-29.053178,-12.634470,1.525902,-0.014038,-0.049317,1.018570
715,-26.794842,-10.315099,2.075227,-0.048096,-0.001343,0.980728
716,-31.799802,-11.413748,2.746624,-0.029053,-0.016968,0.951186
717,-37.842374,-12.634470,3.906310,-0.039918,-0.003052,0.981582
718,-37.170977,-12.146181,3.479057,-0.040650,-0.010864,0.952895
719,-44.007019,-14.038300,4.150454,-0.024903,-0.034791,0.983291
720,-49.256123,-13.366903,4.943923,-0.028931,-0.081666,0.999039
721,-43.152514,-11.841001,4.699779,-0.010010,-0.077760,1.055558
722,-43.762875,-10.009918,4.028382,-0.039307,-0.081178,1.048112
723,-38.574807,-8.911269,3.540093,-0.065919,-0.064332,0.981582
724,-41.748684,-10.009918,2.685588,-0.002564,-0.068482,1.016251
725,-43.030442,-11.291676,0.854505,-0.073121,-0.077150,0.948257
726,-41.687648,-13.550011,-1.159686,0.012329,-0.073854,0.920546
727,-47.241932,-16.662852,0.854505,-0.072267,-0.092531,1.002701
728,-51.026169,-15.747311,-2.136263,0.017823,-0.114015,1.074357
729,-47.180896,-11.169604,-5.798428,-0.066896,-0.123415,1.054582
730,-43.274586,-9.216449,-14.526589,0.015381,-0.119142,0.986954
731,-52.796216,-11.963073,-29.053178,-0.022339,-0.153323,1.009659
732,-67.078660,-6.408789,-35.706111,-0.020752,-0.208011,1.049454
733,-53.894865,-0.854505,-34.973678,0.085328,-0.255497,0.960342
734,-33.142596,-0.854505,-20.691234,0.113161,-0.329229,1.071916
735,-28.992142,-4.577707,-4.577707,-0.023926,-0.107424,0.928603
736,-43.945983,-6.836042,-6.713970,-0.013306,-0.120607,1.045182
737,-47.547112,-8.178836,-14.343481,-0.008423,0.049439,0.949844
738,-75.989929,-6.775006,-19.165332,-0.053956,-0.070558,0.925063
739,-88.868544,-11.963073,-7.568475,0.181643,0.248539,0.810803
740,-119.386587,-7.141222,-9.338521,0.007691,0.630259,0.951308
741,-207.217517,-6.469825,-54.261082,0.063966,0.767712,1.396994
742,-420.721752,17.151141,-53.223468,0.279545,0.924086,1.438010
743,-679.942016,29.053178,-4.089418,-0.139651,0.476081,1.361593
744,-775.402457,-6.652934,45.288777,-0.185794,-0.025025,1.507469
745,-823.437858,-18.493935,76.661326,0.123171,0.036011,0.801038
746,-913.527123,-54.016938,79.163806,0.947280,-2.000031,1.999969
747,-886.182956,-84.779126,167.849241,-1.479149,-0.290776,1.999969
748,-85.999847,-135.439078,-73.670558,-0.354986,-1.153704,1.999969
749,256.595712,-111.146716,-56.397345,-0.590097,0.849989,1.999969
750,101.258869,-97.657740,-63.599603,-0.109621,1.013809,1.993194
751,-32.837415,-97.779812,22.888533,-0.535897,1.051530,1.793240
752,-55.054551,-98.390173,40.283818,-0.302007,0.641855,1.642359
753,83.375296,-44.861524,12.268254,-0.318608,0.462287,1.392599
754,150.637064,-26.611734,-2.075227,-0.268193,0.604257,0.900771
755,111.696040,-27.771420,6.469825,-0.290288,0.495369,0.981338
756,129.579614,-30.701152,9.033341,-0.333623,0.290776,1.204974
757,191.348135,-32.410163,7.385367,-0.319585,0.277592,1.108659
758,213.687343,-40.650034,9.277485,-0.241947,0.274907,0.940932
759,225.223163,-43.396658,7.812619,-0.182498,0.182132,0.854871
760,244.144350,-35.400931,1.342794,-0.208133,0.112673,0.769665
761,245.914397,-26.672770,-2.075227,-0.245243,0.037598,0.747570
762,247.257191,-19.958801,-3.173877,-0.320073,-0.057740,0.865980
763,254.642557,-16.784924,-1.770047,-0.379767,-0.121462,1.038956
764,265.934234,-13.366903,2.075227,-0.425788,-0.145266,1.311543
765,279.423209,-7.141222,7.141222,-0.455695,-0.221073,1.525902
766,299.992371,2.685588,12.634470,-0.425666,-0.278569,1.648707
767,322.941939,17.212177,16.418708,-0.305913,-0.314458,1.603296
768,331.425956,33.813993,17.212177,-0.188113,-0.418708,1.481468
769,330.388342,49.439231,15.197986,-0.026246,-0.589731,1.320821
770,323.979553,67.933165,6.713970,0.072633,-0.853162,0.933364
771,308.049134,82.093538,-3.051804,0.161990,-0.840833,0.517220
772,266.910811,78.370336,-9.521630,0.199344,-0.729992,0.467414
773,219.546807,49.744411,-16.723888,0.205814,-0.722545,0.546883
774,192.385748,30.579080,-26.489662,0.178836,-0.502815,1.268818
775,158.632792,21.606775,-34.424353,0.132692,-0.376959,1.999969
776,168.520638,27.954528,-45.105669,0.127687,-0.510384,1.999969
777,231.570916,46.692607,-63.904784,0.110842,-0.654551,1.999969
778,275.150683,67.017624,-78.492409,-0.019898,-0.723888,1.999969
779,254.459449,72.144656,-78.248264,-0.150881,-0.764538,1.741970
780,244.693675,67.444877,-72.388800,-0.121706,-0.816663,1.779934
781,259.952697,65.369650,-69.947356,0.037964,-0.698253,1.750881
782,251.712825,66.163119,-71.168078,0.252445,-0.621103,1.714137
783,247.257191,72.632944,-79.652094,0.418952,-0.602304,1.636011
784,243.778134,79.041733,-92.774853,0.553964,-0.573495,1.495140
785,227.725643,80.018311,-106.019684,0.639292,-0.611582,1.395651
786,213.809415,79.713130,-119.447623,0.669322,-0.696544,1.294820
787,198.672465,81.849393,-130.861372,0.623301,-0.829603,1.173968
788,174.929427,85.572595,-137.758450,0.510384,-1.039567,1.049332
789,149.782559,89.478904,-137.941558,0.386969,-1.359274,0.998917
790,122.621500,89.234760,-130.678264,0.383673,-1.748562,1.008072
791,92.164492,87.037461,-118.593118,0.468513,-2.000031,0.986099
792,67.750057,89.662013,-105.226215,0.445563,-2.000031,0.672374
793,67.017624,92.286564,-90.089265,0.223514,-2.000031,0.098146
794,45.838102,67.689021,-55.603876,-0.107057,-2.000031,-0.258305
795,-17.334249,6.408789,-4.882887,-0.564096,-2.000031,-0.112673
796,-108.094911,-123.231861,48.157473,-0.748180,-2.000031,-1.548363
797,-228.946365,-267.765316,117.677577,0.529793,-1.025040,1.084489
798,-102.540627,-165.651942,81.849393,0.546273,0.359869,1.999969
799,-49.011978,-73.304341,46.509499,-0.397833,1.696925,1.846952
800,-99.488823,-122.560464,82.093538,-0.096559,0.717296,-0.679454
801,-280.643931,-158.144503,105.653468,1.468284,-0.183230,-0.266850
802,-300.907912,-93.385214,82.215610,1.954498,-0.113771,1.699733
803,-219.302663,-75.745785,23.987182,1.705592,0.016358,1.999969
804,-173.098344,-41.077287,-11.902037,0.560555,-0.155642,1.999969
805,-154.787518,-10.070954,-7.995727,-1.186297,-0.294804,1.532006
806,-163.393606,-34.119173,39.734493,-2.000031,-0.272953,1.999969
807,-146.120394,-108.461128,78.492409,-0.328618,-0.518318,1.796414
808,-68.177310,-113.954376,55.603876,1.473411,0.475837,1.999969
809,-65.186542,-64.942397,26.428626,1.459739,0.212772,1.894072
810,-38.025483,-13.061723,10.742351,-0.433967,-0.068482,1.318135
811,-39.551385,-41.382467,18.188754,-0.515633,0.019776,1.066423
812,-29.846647,-57.862211,10.498207,0.544930,0.151247,1.322164
813,-28.442817,-27.100023,3.356985,0.411994,0.100099,1.482200
814,-20.996414,-10.376135,4.333562,-0.190433,-0.011597,1.114763
815,-8.728161,-17.578393,1.647974,0.002808,0.103273,1.078386
816,-12.329290,-13.550011,0.549325,0.176028,0.089479,1.087663
817,-11.963073,-1.831083,0.366217,0.012573,0.024170,1.054948
818,-9.338521,0.915541,3.112840,0.034302,0.043214,1.053483
819,-7.507439,5.981537,3.601129,0.054078,0.073243,1.003433
820,-10.437171,9.643702,5.798428,-0.013184,-0.006592,0.989761
821,-12.268254,8.789197,7.812619,-0.033570,0.007691,0.958633
822,-13.550011,7.324331,7.934691,-0.003418,0.063111,0.981338
823,-15.625238,6.225681,7.629511,-0.017090,0.064088,0.930068
824,-17.029068,4.028382,6.286717,-0.056031,0.090578,0.917372
825,-23.987182,-0.488289,5.615320,-0.072389,0.097780,0.849134
826,-31.128405,-4.089418,4.394598,-0.003418,0.060060,0.938613
827,-34.180209,-5.371176,4.577707,-0.022461,0.015137,1.023575
828,-27.710384,-5.432212,3.723201,-0.002197,0.019043,1.013809
829,-28.259709,-7.629511,4.821851,0.006348,0.005127,0.997452
830,-25.207904,-7.507439,2.929732,-0.035401,-0.058961,0.981216
831,-23.682002,-9.704738,3.540093,-0.015381,0.025391,1.049332
832,-25.329976,-10.376135,3.723201,0.015747,-0.002075,1.026993
833,-23.682002,-9.887846,2.807660,-0.009033,-0.015625,1.003311
834,-20.263981,-10.070954,2.197299,-0.016236,-0.000610,0.993912
835,-20.019837,-10.681315,1.525902,-0.033814,0.025513,0.968276
836,-22.888533,-11.474784,1.342794,0.004150,0.006714,1.010269
837,-23.010605,-10.681315,0.732433,-0.049439,0.058106,1.152239
838,-21.301595,-9.643702,1.709010,0.046021,-0.011109,0.984634
839,-23.620966,-8.484016,1.586938,0.015381,-0.030762,0.989761
840,-21.911955,-8.117800,1.770047,0.011597,-0.021607,1.018936
841,-20.935378,-7.812619,1.525902,0.023560,-0.022217,1.021134
842,-19.958801,-7.324331,1.098650,0.001953,-0.029908,1.015274
843,-17.761501,-7.568475,0.976577,0.010376,-0.026978,1.004044
844,-18.249790,-7.751583,0.549325,0.017700,-0.022950,1.005997
845,-21.118486,-7.202258,0.793469,0.022950,-0.029175,1.001236
846,-21.606775,-5.737392,1.586938,0.054444,-0.025147,1.010147
847,-23.926146,-3.234913,2.380407,0.036378,-0.034668,1.018936
848,-24.292363,-2.075227,2.990768,0.024292,-0.046021,1.016129
849,-24.414435,-1.342794,3.234913,0.029908,-0.052125,1.019059
850,-23.071641,-0.366217,2.746624,0.012818,-0.068727,1.023453
851,-19.043259,-0.549325,2.807660,0.007202,-0.062867,1.007095
852,-18.249790,-1.037613,2.380407,-0.005249,-0.045411,0.952407
853,-22.888533,-2.990768,2.258335,-0.011475,-0.021851,0.950332
854,-27.222095,-5.737392,2.563516,-0.033814,-0.044190,1.010636
855,-33.447776,-6.347753,1.831083,0.000244,-0.031983,0.920912
856,-41.992828,-6.225681,2.807660,0.082521,-0.034058,1.084367
857,-37.293050,-0.793469,3.601129,0.000610,-0.039673,0.955215
858,-51.392386,-0.427253,8.178836,0.069337,-0.078737,1.048112
859,-55.542840,1.953155,10.254063,-0.008057,-0.133913,1.032731
860,-42.420081,2.990768,9.033341,0.034668,-0.083131,1.008194
861,-50.904097,3.967346,7.385367,-0.019532,-0.072023,1.032975
862,-54.016938,1.770047,3.906310,-0.033448,-0.099489,0.992081
863,-47.547112,1.037613,-4.028382,-0.057984,-0.101442,1.058976
864,-40.222782,-1.098650,-18.982223,-0.069459,-0.091188,0.988663
865,-43.579767,-2.502480,-33.386740,-0.029908,-0.096803,1.124285
866,-49.927520,11.657893,-42.786297,0.083742,-0.214237,1.076188
867,-34.790570,9.338521,-24.841688,0.135012,-0.299565,1.056779
868,-13.672084,-1.159686,0.000000,0.012451,-0.011353,0.985977
869,-24.780652,-1.770047,-1.586938,0.026856,0.203616,0.995499
870,-83.619440,10.986496,-17.517357,0.040528,0.328740,0.926162
871,-159.426261,18.799115,-13.977264,0.102541,0.347051,0.845594
872,-176.272221,10.009918,-4.333562,0.008545,0.244877,0.440558
873,-194.033722,-17.944610,-7.385367,-0.075685,1.169329,1.339132
874,-427.008469,-20.691234,-29.785611,0.376104,0.655406,1.445457
875,-738.719768,-9.033341,13.305867,-0.169436,0.242557,1.475120
876,-832.898451,-88.746471,118.471046,-0.096071,-0.048951,1.616114
877,-893.751431,-126.283665,170.351720,0.572519,-1.063127,1.999969
878,-1030.106050,-190.188449,216.433967,-0.409186,-0.948989,1.999969
879,-202.578775,-161.196307,-7.141222,0.251957,-1.191058,1.999969
880,413.641566,-81.544213,-81.239033,-0.002564,1.185199,1.999969
881,285.648890,-30.090791,-116.212711,0.538338,1.203021,0.489998
882,11.352712,-59.449149,-58.655680,-0.632334,0.657603,0.337774
883,-96.925307,-97.596704,16.174563,-0.339727,0.782727,0.431403
884,-27.832456,-59.449149,-25.940337,-0.417853,0.156497,0.885389
885,103.456168,-29.175250,-46.509499,-0.453620,0.515389,0.705821
886,65.796902,-18.982223,-35.095750,-0.461921,0.611460,0.737072
887,43.457694,-13.794156,-21.301595,-0.513802,0.427008,1.035050
888,105.775540,-1.953155,-20.080873,-0.451301,0.448005,1.099016
889,129.640650,1.220722,-14.648661,-0.354131,0.549447,1.026505
890,133.730068,0.122072,-9.765774,-0.230838,0.493416,1.244160
891,169.253071,8.178836,-13.305867,-0.101076,0.456184,1.340597
892,201.846342,17.334249,-20.874342,-0.032837,0.408698,1.222675
893,218.692302,26.550698,-28.015564,0.017334,0.326543,1.165301
894,236.087587,35.889220,-34.912642,0.033692,0.237308,1.171527
895,254.154269,44.678416,-41.077287,0.038209,0.172732,1.209735
896,267.460136,46.143282,-43.640803,0.029541,0.115724,1.236591
897,283.207446,42.542153,-45.227741,0.067506,0.063111,1.231220
898,296.818494,36.926833,-47.425040,0.112551,0.026490,1.162127
899,301.274128,33.142596,-50.598917,0.140871,-0.058595,1.089982
900,297.184710,37.476158,-55.909056,0.137942,-0.220584,0.930434
901,284.550240,53.101396,-60.791943,0.180789,-0.352300,0.770153
902,260.502022,72.083619,-62.867170,0.195804,-0.329229,0.816663
903,233.890288,76.661326,-64.820325,0.324346,-0.219486,1.077287
904,221.011673,70.618753,-70.313573,0.294682,-0.003052,1.710842
905,209.903105,65.003433,-74.464027,0.284672,-0.073976,1.999969
906,228.519112,75.135424,-76.722362,0.157351,-0.268681,1.999969
907,265.262837,87.159533,-75.806821,0.045655,-0.433356,1.999969
908,281.498436,91.981384,-67.872129,-0.038941,-0.560067,1.999969
909,284.611276,89.417868,-57.190814,-0.078614,-0.703380,1.999969
910,286.381323,88.807507,-46.692607,-0.084596,-0.777844,1.999969
911,284.245060,93.263142,-36.621653,-0.063478,-0.856825,1.999969
912,279.728389,95.948730,-27.466239,-0.031006,-0.853773,1.999969
913,278.141451,94.056611,-20.263981,0.173953,-0.881117,1.999969
914,277.042802,101.136797,-20.508125,0.405646,-0.892714,1.856718
915,257.022965,112.550546,-25.085832,0.407965,-1.104875,1.596948
916,232.242313,120.851453,-23.926146,0.296025,-1.400046,1.254414
917,196.780346,121.705959,-18.310826,0.206424,-1.808499,0.961440
918,145.632105,127.504387,-8.484016,0.323125,-2.000031,0.880995
919,74.219883,145.937285,-13.000687,0.560922,-2.000031,1.221454
920,19.958801,182.436866,-18.921187,0.567269,-2.000031,1.477073
921,59.937438,209.414817,-21.545739,0.303593,-2.000031,0.647471
922,135.011826,177.004654,-4.394598,-0.080690,-2.000031,-0.612558
923,40.039673,82.032502,27.710384,-0.656870,-2.000031,-1.684840
924,-172.365911,-103.395132,103.517205,0.021363,-2.000031,-1.979767
925,-309.819181,-235.355154,143.862058,1.136736,-1.925566,-0.091798
926,-224.612802,-168.581674,92.469673,0.836805,-0.517952,1.996368
927,-123.903258,-120.363165,53.101396,0.015869,0.848890,1.999969
928,-175.173571,-113.832303,80.811780,0.341436,0.826551,1.084245
929,-296.635386,-113.099870,87.098497,1.452903,-0.156985,-0.051270
930,-331.975280,-69.398032,64.698253,1.606348,-0.356451,1.207782
931,-314.946212,-50.782025,36.133364,1.798489,-0.042115,1.999969
932,-219.485771,22.644388,-1.586938,0.344366,-0.670665,1.999969
933,-144.228275,-26.184482,2.746624,-2.000031,-0.832044,1.999969
934,-84.596017,-99.794003,49.134051,-1.822049,-0.498421,1.302022
935,-70.374609,-176.028077,57.495995,1.700221,0.358648,1.999969
936,-48.096437,-69.886320,6.591897,1.999969,0.049561,1.765286
937,-68.055238,12.695506,8.361944,-0.818982,0.071778,1.256123
938,-69.764248,-47.852293,24.475471,-0.684947,-0.034180,0.973526
939,-28.870069,-65.857939,5.493248,0.674571,0.298833,1.140398
940,-72.999161,-28.198672,0.488289,0.205203,-0.107668,1.203265
941,-48.523690,-26.123445,-0.488289,-0.232547,-0.195438,1.248920
942,-5.493248,-33.447776,-3.173877,0.232914,0.155642,0.975845
943,-45.288777,-17.517357,-0.427253,0.154177,-0.030152,1.157977
944,-23.743038,-10.070954,0.183108,0.003906,-0.066163,1.097063
945,-12.390326,-7.568475,-0.427253,0.121950,0.099367,0.930556
946,-36.499580,-1.281758,3.234913,0.060792,0.023194,1.009659
947,-29.663539,1.281758,5.371176,0.060060,0.015625,1.021134
948,-31.006332,2.197299,6.469825,0.055055,0.006592,0.970840
949,-36.255436,2.441444,6.713970,0.016358,-0.028321,1.051041
950,-30.090791,0.915541,5.493248,-0.001831,-0.024414,1.066056
951,-23.804074,0.671397,4.577707,0.024414,-0.021851,1.035172
952,-22.217136,-0.061036,2.868696,-0.028077,-0.034668,1.009537
953,-19.958801,-2.441444,2.258335,0.011353,-0.040284,1.028580
954,-17.822538,-2.868696,1.709010,0.000732,-0.031495,1.000870
955,-16.723888,-3.723201,1.342794,0.011597,-0.029297,0.997208
956,-16.845960,-3.967346,0.976577,0.019287,-0.027466,0.984756
957,-17.578393,-4.211490,0.671397,0.013550,-0.020386,0.994644
958,-19.104295,-4.455634,0.183108,0.031617,-0.038087,1.013809
959,-18.738079,-3.906310,-0.244144,0.031495,-0.045167,1.015885
960,-17.456321,-2.990768,-0.244144,0.037598,-0.052491,1.002213
961,-17.944610,-2.197299,0.183108,0.022827,-0.054322,1.009171
962,-17.212177,-2.319371,0.671397,0.022705,-0.065797,0.994522
963,-20.691234,-2.258335,0.671397,0.044312,-0.072511,1.002579
964,-17.334249,-1.586938,1.464866,0.031373,-0.054932,1.000626
965,-16.418708,-1.709010,1.831083,0.034302,-0.076295,0.998550
966,-15.808347,-1.220722,1.770047,0.040406,-0.078614,1.022232
967,-12.451362,-0.671397,1.647974,0.024781,-0.067262,1.005997
968,-11.230640,-0.976577,1.342794,0.012696,-0.055299,0.974502
969,-13.916228,-2.441444,1.342794,0.018799,-0.055543,0.974014
970,-14.953841,-3.723201,0.732433,0.008301,-0.058106,0.969009
971,-15.197986,-4.760815,0.488289,0.011353,-0.051148,0.956558
972,-18.982223,-7.446403,0.854505,-0.003296,-0.058350,1.012345
973,-17.700465,-7.446403,0.488289,0.024537,-0.085573,0.963516
974,-18.616007,-7.385367,0.244144,0.059815,-0.057740,1.086809
975,-20.386053,-4.516670,0.183108,0.018799,-0.109255,1.054704
976,-23.926146,-3.051804,0.427253,0.071778,-0.102785,0.928481
977,-19.531548,-1.464866,0.671397,0.044556,-0.078370,0.980728
978,-22.400244,-0.427253,0.732433,0.052247,-0.058839,0.995621
979,-26.428626,0.671397,2.075227,0.046998,-0.044678,0.978286
980,-31.677729,3.173877,4.882887,0.061158,-0.036255,0.969497
981,-44.190127,4.699779,6.347753,0.005371,-0.089967,0.979629
982,-43.640803,4.638743,7.385367,0.030640,-0.084108,0.973037
983,-51.270314,4.333562,8.361944,0.029297,-0.106203,1.018814
984,-55.115587,5.310140,10.254063,0.036622,-0.220706,1.036515
985,-40.222782,4.516670,10.498207,0.000488,-0.202518,1.035904
986,-22.278172,3.173877,8.300908,-0.020386,-0.105837,1.000015
987,-25.818265,0.427253,2.014191,-0.052857,-0.073854,0.995132
988,-31.860838,-3.906310,-10.498207,-0.116457,-0.150515,1.030777
989,-39.795529,1.770047,-24.414435,-0.039063,-0.078859,1.104753
990,-50.659953,0.488289,-40.833143,0.002686,-0.258915,1.020157
991,-33.569848,-5.432212,-33.875029,0.080690,-0.304570,0.996841
992,-10.193027,-8.300908,-22.705425,0.169802,-0.305913,1.086564
993,-2.258335,-3.540093,-7.629511,0.132937,-0.102052,1.037003
994,-21.179522,3.662165,-4.882887,0.086183,0.141115,0.987076
995,-71.534295,18.799115,-21.179522,0.171023,0.183597,0.957412
996,-112.001221,30.884260,-23.682002,0.070069,0.237186,0.870497
997,-178.103304,32.410163,-32.593271,-0.091310,0.645029,0.608286
998,-171.267262,-24.780652,-16.174563,-0.390509,0.112184,0.980728
999,-307.621881,-38.025483,-24.536507,0.065553,0.844495,1.121599
1000,-535.835813,-48.950942,-59.998474,-0.318242,0.528328,1.339010
1001,-701.487755,-131.532769,-1.403830,-0.223148,-0.177249,1.100114
1002,-836.682689,-196.353094,62.745098,-0.047242,0.045045,0.946670
1003,-939.345388,-193.179217,93.202106,0.432746,-0.879408,1.462547
1004,-1217.303731,-178.225376,237.125200,-0.738537,-1.281147,1.999969
1005,-303.105211,-30.579080,20.202945,-0.746471,-1.702907,1.999969
1006,337.041276,33.081559,-75.562676,-0.408942,0.971328,1.999969
1007,286.625467,42.481117,-70.130465,-0.740978,1.129534,1.996735
1008,67.750057,26.001373,-23.987182,-0.824720,0.732311,1.298848
1009,-52.246891,-44.373236,53.162432,-0.560922,0.414923,0.565316
1010,-18.738079,-48.157473,62.256809,-0.322271,0.360723,0.681041
1011,115.358206,-25.146868,39.612421,-0.290776,0.322026,0.750256
1012,123.170825,-23.559930,40.650034,-0.084840,0.472419,0.592416
1013,86.671244,-27.771420,43.152514,-0.049928,0.418463,0.894423
1014,116.884108,-23.254749,35.706111,-0.001221,0.364630,1.177264
1015,168.276493,-16.601816,21.423667,0.110719,0.451545,1.159197
1016,184.695201,-11.230640,8.239872,0.206912,0.468025,1.160662
1017,199.282826,0.671397,-6.775006,0.223026,0.388800,1.172381
1018,225.589380,15.503166,-23.071641,0.171023,0.297002,1.149798
1019,242.679484,24.597543,-33.508812,0.092042,0.203494,1.119524
1020,255.863279,25.391012,-37.903410,-0.003784,0.106447,1.134051
1021,272.343023,22.522316,-39.795529,-0.068360,0.011963,1.274800
1022,294.254978,20.996414,-38.635843,-0.042969,-0.033082,1.351339
1023,311.650263,23.071641,-37.659266,-0.019898,-0.086793,1.349508
1024,324.773022,29.541466,-37.903410,0.072145,-0.129030,1.306538
1025,331.486992,35.034714,-40.772107,0.145632,-0.181521,1.135515
1026,330.632486,41.565576,-49.744411,0.207279,-0.352178,0.777478
1027,310.673686,58.533608,-59.998474,0.286381,-0.527596,0.388190
1028,275.822080,76.478218,-66.468299,0.356451,-0.429084,0.598642
1029,234.378576,73.426413,-74.036774,0.307256,-0.362188,1.010880
1030,226.504921,64.454108,-82.215610,0.251957,-0.323613,1.509667
1031,224.795911,62.195773,-87.098497,0.186526,-0.333501,1.943633
1032,217.776761,66.468299,-87.098497,0.067018,-0.404913,1.999969
1033,230.594339,74.158846,-86.671244,-0.049561,-0.592050,1.999969
1034,248.905165,93.690394,-80.445563,-0.124880,-0.709239,1.999969
1035,249.454490,100.892653,-68.299382,-0.180423,-0.793835,1.999969
1036,256.351568,97.169451,-53.467613,-0.119509,-0.857069,1.999969
1037,279.056992,90.089265,-41.748684,0.012818,-0.916640,1.999969
1038,302.128634,93.934539,-36.438544,0.325566,-0.897353,1.974884
1039,292.607004,104.554818,-38.635843,0.679088,-0.746593,1.616724
1040,262.211032,106.263828,-46.814679,0.702037,-0.741711,1.567041
1041,249.027237,102.052338,-55.237659,0.599008,-0.810315,1.583764
1042,232.364385,93.080034,-57.862211,0.323857,-0.960098,1.579858
1043,212.161440,79.652094,-50.476844,0.007813,-1.284565,1.500389
1044,197.146563,64.759289,-35.767147,-0.200931,-1.727077,1.265522
1045,173.464561,59.632258,-19.470512,-0.024659,-2.000031,0.892226
1046,123.903258,72.144656,-14.038300,0.395636,-2.000031,0.754162
1047,71.534295,106.569009,-17.212177,0.592294,-2.000031,0.499153
1048,75.745785,140.505074,-22.034028,0.322881,-2.000031,0.008911
1049,47.302968,125.368124,-3.173877,0.005982,-2.000031,-0.531868
1050,-34.424353,46.631571,44.373236,-0.533944,-2.000031,-1.692409
1051,-155.336843,-117.860685,102.967880,-0.034668,-1.983062,-0.949966
1052,-247.196155,-225.284199,130.312047,0.725963,-1.799100,0.490608
1053,-231.631952,-174.380102,100.099184,0.780407,-0.803601,1.999969
1054,-96.375982,-91.126879,65.186542,0.140017,0.404181,1.999969
1055,-111.024643,-85.511559,77.027543,0.508797,0.843641,1.022354
1056,-213.748379,-111.329824,77.210651,1.419699,0.300664,-0.046632
1057,-285.343709,-82.703899,62.561990,1.422141,-0.029419,0.637949
1058,-305.607691,-71.839475,41.138323,1.203510,-0.103151,1.999969
1059,-243.106737,-26.733806,20.202945,0.506355,-0.586069,1.999969
1060,-127.382315,-21.301595,-0.183108,-0.735851,-0.424689,1.699245
1061,-143.007553,-68.726635,32.349126,-1.521386,-0.361700,1.697047
1062,-126.894026,-135.439078,52.368963,0.357427,0.096925,1.999969
1063,-84.107729,-107.850767,10.193027,1.943511,-0.157839,1.999969
1064,-66.529335,-12.939651,-1.098650,0.368658,0.197147,1.693874
1065,-90.760662,-25.635157,6.469825,-0.923354,-0.417487,0.905776
1066,-42.114900,-60.852979,3.418021,0.499275,0.005859,1.772000
1067,-25.696193,-31.799802,2.563516,0.436896,0.060182,1.178363
1068,-33.752956,-14.587625,-1.464866,-0.176272,-0.152590,1.164813
1069,-9.460594,-21.484703,5.249104,0.100587,-0.011963,1.133074
1070,-1.464866,-15.930419,0.671397,0.073365,0.084352,0.964370
1071,-14.404517,-14.831769,1.892119,-0.009888,0.042481,0.965591
1072,-12.939651,-14.953841,3.662165,0.075441,0.026123,0.980240
1073,-15.014878,-12.207218,4.333562,0.067262,0.002197,1.041642
1074,-14.770733,-9.521630,6.469825,0.096193,-0.004761,1.060685
1075,-10.864424,-4.882887,5.798428,0.057130,0.016846,1.026749
1076,-15.136950,-2.746624,6.347753,0.080446,0.015869,1.060319
1077,-11.779965,0.915541,6.103609,0.055177,-0.017212,1.025162
1078,-6.042573,3.418021,5.432212,0.048463,0.037842,0.977066
1079,-12.878614,3.540093,5.004959,0.036988,0.078004,0.962051
1080,-17.151141,2.380407,4.028382,-0.019043,0.010254,0.904921
1081,-21.972992,-0.244144,2.990768,0.013672,0.046509,0.997574
1082,-23.010605,-0.183108,1.586938,0.013550,0.018799,1.015274
1083,-24.841688,-0.549325,2.258335,-0.060304,0.150759,1.257343
1084,-19.958801,1.159686,1.831083,0.060182,0.070680,1.069718
1085,-26.306554,1.281758,2.197299,0.020264,-0.009277,0.972671
1086,-23.315785,1.464866,1.220722,0.052003,0.004761,1.015885
1087,-23.926146,1.770047,0.366217,0.012451,-0.009766,1.003555
1088,-24.536507,-0.244144,-0.366217,0.045289,-0.045411,1.019913
1089,-20.874342,-0.549325,-0.549325,0.012818,-0.037720,0.985000
1090,-20.630198,-2.563516,-0.671397,0.015503,-0.035889,0.990738
1091,-20.996414,-4.455634,-1.098650,0.007080,-0.024170,0.997818
1092,-21.667811,-5.920500,-1.892119,0.020264,-0.058717,0.996841
1093,-21.423667,-6.347753,-2.319371,0.042847,-0.075807,1.029679
1094,-16.235599,-6.347753,-1.220722,0.035767,-0.075929,1.011490
1095,-11.413748,-6.775006,-1.159686,0.036011,-0.052979,1.047379
1096,-12.268254,-5.188067,-0.305180,0.058717,-0.086305,1.028946
1097,-10.254063,-4.211490,0.549325,0.060670,-0.077760,1.064469
1098,-2.807660,-1.831083,0.671397,0.063600,-0.072755,1.010391
1099,-3.356985,-1.159686,1.037613,0.058228,-0.048219,0.957412
1100,-9.460594,-0.793469,1.709010,0.040894,-0.034180,0.964126
1101,-12.146181,-0.610361,2.136263,0.034668,-0.049561,0.963638
1102,-18.616007,-0.244144,2.502480,0.039918,-0.034302,0.923232
1103,-14.770733,0.732433,1.831083,0.040528,-0.047364,1.019791
1104,-16.113527,0.610361,1.342794,0.034791,-0.048341,0.997696
1105,-18.310826,-0.366217,1.586938,0.059083,-0.011719,1.004898
1106,-25.024796,0.793469,0.671397,0.028199,-0.047120,0.982193
1107,-28.015564,0.732433,0.488289,0.036866,-0.054932,1.000992
1108,-27.100023,0.488289,-0.244144,0.024537,-0.046387,0.975479
1109,-32.532235,0.183108,-0.244144,0.045167,-0.061402,0.996231
1110,-34.302281,1.464866,2.014191,0.072389,-0.069947,1.000015
1111,-38.818952,6.652934,6.958114,0.056641,-0.085328,0.958145
1112,-46.692607,6.164645,10.864424,0.049195,-0.107668,0.993179
1113,-43.274586,7.446403,10.193027,0.048585,-0.075319,1.043717
1114,-43.823911,7.446403,6.836042,-0.021363,-0.098512,0.977188
1115,-37.354086,4.333562,0.488289,-0.009766,-0.074098,0.987686
1116,-32.410163,2.319371,-7.507439,-0.016846,-0.079347,1.023941
1117,-37.476158,3.295949,-18.982223,-0.042603,-0.207279,1.090837
1118,-40.650034,4.516670,-30.090791,-0.030152,-0.130861,1.021012
1119,-52.613108,6.836042,-42.359045,0.102174,-0.253178,1.033951
1120,-30.884260,11.535821,-31.372549,0.245487,-0.411627,1.085466
1121,2.502480,9.277485,0.061036,0.157229,-0.281621,1.047745
1122,9.704738,11.596857,15.197986,-0.055665,0.160891,1.037247
1123,-57.312886,20.935378,-4.760815,0.056641,0.438727,0.865003
1124,-116.639963,29.602502,-4.577707,0.124025,0.152102,0.851698
1125,-164.980545,32.715343,9.277485,-0.117922,0.697642,0.822034
1126,-227.969787,-0.915541,-8.545052,-0.377691,0.324468,0.744640
1127,-330.876631,-22.827497,2.014191,-0.004639,0.832654,1.999969
1128,-585.763333,-19.836728,0.732433,-0.412726,0.387091,1.721706
1129,-762.340734,-69.398032,71.046006,-0.537484,-0.268681,1.596338
1130,-857.251850,-85.206378,130.434119,0.042481,0.211307,0.868666
1131,-940.688182,-108.644236,102.052338,-0.033692,-0.614633,0.766125
1132,-1084.611276,-78.004120,186.953536,-0.600717,-1.953277,1.999969
1133,-412.176699,-35.645075,36.499580,-0.926772,-2.000031,1.999969
1134,194.949264,-4.943923,-28.015564,-0.562875,0.551766,1.999969
1135,36.377508,45.593957,-57.923247,-0.283696,1.076310,1.883818
1136,-207.522698,5.859464,63.294423,-0.963516,0.885634,1.996490
1137,-164.614328,-18.310826,108.339055,-0.308110,0.271366,1.999969
1138,77.515831,-5.188067,56.153201,-0.425422,0.340703,1.935576
1139,107.545586,-27.649348,60.791943,-0.112428,0.637095,1.335348
1140,66.468299,-58.899825,77.576867,0.058228,0.539925,1.571557
1141,144.838636,-63.355459,61.402304,0.230961,0.452277,1.631861
1142,213.565270,-58.838788,33.447776,0.317021,0.537362,1.379538
1143,217.471580,-52.674144,11.718929,0.366094,0.399664,1.208637
1144,240.726329,-31.921874,-15.930419,0.403204,0.264164,1.081926
1145,262.943465,-1.892119,-47.058824,0.338140,0.170535,0.847547
1146,258.243687,21.423667,-67.261769,0.190921,0.051392,0.717296
1147,253.604944,29.602502,-77.210651,-0.008179,-0.068360,0.765148
1148,261.417563,22.888533,-78.004120,-0.172366,-0.130861,0.846448
1149,270.450904,4.577707,-70.740826,-0.251225,-0.140749,0.959976
1150,278.690776,-15.136950,-61.280232,-0.250980,-0.122683,1.256855
1151,295.170520,-20.141909,-54.566262,-0.200565,-0.131106,1.566796
1152,317.998016,-5.432212,-53.162432,-0.116701,-0.153201,1.844755
1153,340.337224,19.226368,-53.467613,-0.083497,-0.226444,1.885893
1154,364.019226,39.368276,-53.589685,-0.066773,-0.332403,1.815702
1155,379.034104,51.758602,-51.636530,-0.035035,-0.441169,1.581689
1156,384.466316,57.984283,-50.415808,0.059449,-0.556527,1.125994
1157,374.456397,65.857939,-55.725948,0.221439,-0.724620,0.414801
1158,330.876631,84.290837,-65.186542,0.398566,-0.753429,-0.143557
1159,263.126574,86.793317,-73.365377,0.385626,-0.565438,0.232670
1160,200.259403,63.111315,-77.637903,0.319951,-0.420172,1.072648
1161,189.944305,41.992828,-87.098497,0.221927,-0.206790,1.999969
1162,192.935073,45.532921,-90.943771,0.065309,-0.342168,1.999969
1163,235.477226,73.548486,-89.234760,-0.130129,-0.824720,1.999969
1164,307.133593,98.390173,-81.239033,-0.255619,-1.031876,1.999969
1165,291.630427,106.874189,-65.064469,-0.304692,-0.932876,1.999969
1166,249.271382,88.929580,-40.100710,-0.092164,-1.065446,1.999969
1167,298.222324,78.675517,-25.940337,0.281621,-1.114153,1.999969
1168,326.482033,76.722362,-31.433585,0.544442,-1.037491,1.799588
1169,286.503395,69.886320,-34.546426,0.534310,-1.074601,1.508202
1170,258.487831,62.256809,-39.551385,0.326787,-1.312520,1.492454
1171,247.867552,62.867170,-40.466926,0.113527,-1.569482,1.373800
1172,215.274281,67.322805,-33.447776,0.103151,-1.985504,1.158587
1173,174.258030,73.426413,-24.597543,0.346441,-2.000031,1.011612
1174,134.462501,85.206378,-28.381781,0.655406,-2.000031,0.703380
1175,114.564736,107.362478,-39.795529,0.713634,-2.000031,-0.081056
1176,93.141070,122.194247,-48.279545,0.354376,-2.000031,-0.591318
1177,23.437858,79.224842,-18.616007,-0.055421,-2.000031,-0.667369
1178,-52.552071,-3.356985,33.813993,-0.457649,-1.931914,0.036133
1179,-144.106203,-131.227588,63.599603,-0.157473,-2.000031,-0.893202
1180,-248.294804,-231.265736,94.361791,0.786145,-1.013565,0.582406
1181,-108.827344,-134.157321,49.866484,0.397467,-0.128420,1.397238
1182,-92.408637,-78.248264,7.507439,-0.594125,1.060685,1.936431
1183,-172.610056,-108.705272,80.506600,-0.317144,0.799817,0.481086
1184,-382.818341,-144.472419,128.236820,0.703990,-0.575937,0.428840
1185,-328.068971,-87.464714,119.752804,1.480003,-0.224369,1.762722
1186,-247.623407,-61.524376,52.491035,1.733791,-0.042603,1.999969
1187,-194.827192,-29.480430,18.371862,1.380392,-0.107057,1.999969
1188,-130.922408,-2.075227,-14.404517,0.024170,-0.100099,1.606836
1189,-147.280079,-9.460594,-1.037613,-1.909697,-0.528695,1.999969
1190,-138.002594,-97.840848,62.195773,-0.894179,-0.406378,1.775296
1191,-63.294423,-132.387274,39.612421,1.513329,0.280156,1.999969
1192,-56.153201,-45.716030,7.019150,1.216571,0.145388,1.629297
1193,-84.534981,-0.427253,8.728161,-0.713756,-0.155398,1.183490
1194,-57.984283,-44.922560,11.963073,-0.316777,-0.097414,1.186664
1195,-29.297322,-44.800488,-4.272526,0.698009,0.147219,1.557885
1196,-38.330663,-12.024109,-2.075227,-0.023560,-0.108522,1.112688
1197,-20.202945,-16.174563,0.366217,-0.120241,-0.042969,1.113054
1198,-8.361944,-18.127718,-2.075227,0.133059,0.087404,0.959365
1199,-23.682002,-11.047532,0.122072,0.008667,0.085328,1.057145
1200,-19.470512,-11.169604,0.488289,0.001709,0.022217,1.047868
1201,-16.052491,-4.882887,0.244144,0.130495,0.035279,1.073136
1202,-21.606775,2.746624,2.929732,0.047608,0.024781,1.099992
1203,-13.977264,4.150454,4.760815,0.063478,-0.006714,1.038834
1204,-13.000687,6.775006,4.821851,0.044190,0.032349,1.016373
1205,-16.174563,6.652934,6.164645,-0.001831,-0.007935,1.011978
1206,-11.352712,5.310140,4.821851,0.006592,-0.072267,0.986099
1207,-8.667124,4.089418,4.577707,0.004761,0.011719,0.990616
1208,-9.826810,2.990768,3.234913,-0.019165,0.009888,0.987320
1209,-11.841001,3.356985,-0.549325,0.053834,-0.300786,0.716442
1210,-5.981537,1.770047,0.549325,0.003906,0.017334,1.052018
1211,-10.131991,0.793469,2.868696,0.009400,-0.009644,0.977676
1212,-5.981537,0.366217,3.112840,-0.007080,-0.053468,0.946181
1213,-10.559243,-2.075227,3.112840,-0.023194,0.064576,1.038224
1214,-11.535821,-3.173877,2.990768,0.005249,-0.020874,1.008316
1215,-8.911269,-2.380407,2.990768,-0.010498,0.044190,1.026749
1216,-7.690547,-3.051804,2.563516,-0.006104,-0.037842,0.968276
1217,-9.216449,-4.760815,1.586938,-0.011963,-0.017945,0.930922
1218,-12.329290,-7.141222,0.488289,-0.025757,-0.046509,0.916884
1219,-13.366903,-10.131991,0.244144,-0.026368,0.046265,1.039445
1220,-13.000687,-11.902037,0.122072,-0.008667,0.032837,1.038712
1221,-13.366903,-12.085145,-0.549325,0.002319,0.016236,1.001968
1222,-14.709697,-12.085145,-0.488289,0.027832,-0.029908,1.016007
1223,-11.657893,-10.620279,-0.915541,0.022583,-0.059205,1.000626
1224,-11.841001,-9.887846,-0.305180,0.016114,-0.030884,0.997330
1225,-12.329290,-9.887846,-0.793469,0.024903,-0.034668,1.004166
1226,-13.244831,-9.582666,-0.183108,0.051514,-0.063111,1.037125
1227,-8.361944,-7.263294,0.183108,0.041749,-0.046998,1.024063
1228,-9.033341,-5.737392,1.037613,0.042969,-0.040894,0.998917
1229,-10.742351,-4.150454,2.014191,0.047974,-0.040406,1.014908
1230,-9.887846,-2.624552,2.136263,0.031983,-0.038697,0.988540
1231,-12.024109,-2.807660,2.685588,0.033448,-0.009277,0.969253
1232,-17.273213,-2.868696,2.258335,0.019654,-0.015015,0.960220
1233,-21.240558,-3.906310,2.319371,0.027222,-0.024414,0.959854
1234,-23.437858,-4.333562,3.112840,0.027222,-0.020386,0.992691
1235,-25.940337,-4.760815,2.685588,0.006104,-0.013916,0.934951
1236,-30.945296,-6.042573,2.685588,0.006348,-0.013306,0.944350
1237,-35.095750,-8.056764,2.441444,0.032105,-0.041627,1.093278
1238,-36.499580,-2.807660,2.136263,0.008667,-0.130617,1.043717
1239,-39.246204,-1.159686,5.249104,0.045899,-0.114992,0.971206
1240,-28.137636,1.464866,8.484016,0.078737,-0.012818,0.953384
1241,-43.274586,7.080186,10.620279,0.012696,-0.010742,0.921767
1242,-61.768521,3.418021,10.620279,-0.009766,-0.070314,0.948989
1243,-56.031128,2.746624,5.065995,-0.025147,-0.034913,0.972427
1244,-64.148928,-0.610361,0.549325,-0.010986,-0.070802,0.994156
1245,-65.064469,-2.685588,-3.173877,-0.037720,-0.124636,1.065080
1246,-57.862211,-2.441444,-14.038300,-0.067018,-0.189700,1.021378
1247,-46.753643,2.929732,-29.053178,0.024781,-0.259525,0.982925
1248,-45.044633,6.042573,-36.133364,0.052369,-0.202884,1.084977
1249,-46.021210,-2.929732,-30.395972,0.122927,-0.262211,1.075822
1250,-31.189441,1.464866,-12.634470,0.180179,-0.321416,1.109514
1251,-16.052491,2.746624,8.300908,0.027710,0.001221,1.028580
1252,-47.547112,7.446403,-6.103609,0.014038,0.099977,1.069963
1253,-104.554818,21.118486,-19.531548,0.189090,0.169070,0.982437
1254,-143.862058,33.447776,-18.127718,-0.071778,0.448615,0.866712
1255,-215.274281,14.709697,-41.992828,-0.151492,0.705943,-0.196048
1256,-229.617762,-36.011292,3.540093,0.151247,1.253193,1.074968
1257,-460.456245,-33.447776,-41.992828,0.426276,0.958389,1.291524
1258,-697.642481,-125.673304,-37.781338,-1.067033,-0.235355,1.999969
1259,-849.927520,-235.111009,89.295796,-0.441901,0.172976,1.421897
1260,-958.815900,-285.648890,143.739986,0.133913,-0.556771,1.369039
1261,-1291.279469,-309.391928,277.164874,-0.575448,-0.205814,1.999969
1262,-339.665827,-108.278019,110.902571,-0.805310,-0.486336,1.999969
1263,374.090181,9.826810,-83.314260,-0.103029,1.125750,1.999969
1264,341.863127,53.589685,-78.736553,-0.010498,1.496971,0.898451
1265,52.674144,34.973678,-68.421454,-0.558968,0.635630,0.679576
1266,-81.239033,-36.011292,35.400931,-0.454719,0.192020,0.053712
1267,-59.205005,-37.720302,48.828870,-0.291142,0.342168,0.578622
1268,71.778439,-11.108568,9.155413,-0.313603,0.163333,0.782116
1269,117.433433,-0.244144,7.934691,-0.113893,0.477058,0.615854
1270,70.618753,-3.540093,15.075914,-0.106691,0.501595,0.916762
1271,82.154574,-4.455634,13.427939,-0.039551,0.396612,1.211444
1272,145.998322,1.831083,2.319371,0.033448,0.442512,1.199359
1273,167.727169,1.831083,-5.859464,0.097047,0.499397,1.114641
1274,174.990463,3.662165,-14.038300,0.126955,0.408942,1.129412
1275,203.494316,15.686275,-26.062409,0.137331,0.344976,1.128313
1276,223.208972,25.940337,-36.255436,0.118044,0.325444,1.244282
1277,237.369345,31.860838,-43.274586,0.096437,0.230472,1.425803
1278,266.544595,38.818952,-48.828870,0.081666,0.095338,1.427634
1279,296.818494,40.161746,-52.246891,0.073487,0.001587,1.209857
1280,310.124361,32.471199,-52.674144,0.110597,-0.048463,1.036759
1281,313.237202,25.391012,-54.749371,0.191409,-0.092775,0.955825
1282,313.237202,24.353399,-61.524376,0.288090,-0.073487,1.028458
1283,308.049134,30.579080,-73.060197,0.327642,-0.133059,1.111223
1284,299.809262,46.753643,-87.037461,0.266361,-0.352667,0.856336
1285,282.658122,76.722362,-98.268101,0.261967,-0.522713,0.650645
1286,250.492103,98.207065,-99.244678,0.227176,-0.389899,0.884657
1287,218.753338,93.690394,-103.395132,0.330449,-0.288090,1.396994
1288,212.954910,95.277333,-109.071489,0.269780,-0.240116,1.999969
1289,215.457389,108.888380,-106.813153,0.059083,-0.432746,1.999969
1290,244.693675,115.968566,-94.728008,-0.137575,-0.705211,1.999969
1291,279.423209,118.165866,-80.994888,-0.128176,-0.937148,1.937041
1292,259.952697,121.217670,-61.158160,-0.103395,-0.867689,1.999969
1293,230.045014,112.855726,-41.992828,-0.066651,-1.093400,1.999969
1294,242.679484,124.696727,-30.151827,0.026978,-1.105730,1.999969
1295,240.909438,137.087053,-19.470512,-0.001221,-1.135027,1.999969
1296,238.162814,130.861372,-1.281758,0.206790,-1.208515,1.999969
1297,264.591440,116.700999,11.291676,0.439094,-1.196674,1.999969
1298,269.901579,96.070802,16.418708,0.543465,-1.256123,1.770657
1299,254.398413,78.553445,22.339208,0.534432,-1.423239,1.704738
1300,241.458763,66.102083,29.053178,0.377569,-1.711940,1.517113
1301,230.838483,55.481804,33.569848,0.192020,-2.000031,1.113298
1302,207.949950,49.683375,37.354086,0.191897,-2.000031,0.647471
1303,161.806668,58.106355,33.203632,0.397345,-2.000031,0.320195
1304,114.930953,79.346914,20.874342,0.605478,-2.000031,0.096803
1305,65.003433,106.691081,-1.586938,0.228031,-2.000031,-1.938018
1306,-47.180896,39.551385,30.884260,0.047730,-2.000031,-1.636988
1307,-172.854200,-65.552758,82.825971,0.303838,-2.000031,-1.539574
1308,-256.656748,-155.642023,100.709545,0.920790,-2.000031,-0.573983
1309,-176.333257,-134.401465,69.336996,1.245014,-0.210452,1.471092
1310,-161.440452,-100.282292,12.756542,0.697276,1.167987,1.999969
1311,-244.388495,-113.160906,43.701839,0.411017,0.795911,1.718532
1312,-321.355001,-116.762036,49.195087,0.350469,-0.693614,1.253803
1313,-252.018006,-91.859312,38.818952,0.102663,-0.683482,1.763821
1314,-222.232395,-71.412222,44.068055,0.365362,-0.100710,1.999969
1315,-192.813001,-34.424353,44.495308,0.360235,-0.519539,1.999969
1316,-90.211337,-20.202945,31.616693,0.172000,-0.102419,0.827039
1317,-179.873350,-56.885634,44.251164,0.493660,0.249638,1.999969
1318,-136.049439,-51.514458,26.306554,0.475959,-0.650767,1.999969
1319,23.559930,-11.779965,-15.747311,0.055421,0.313970,1.612818
1320,-69.275959,-26.184482,7.629511,0.055055,-0.098634,0.872694
1321,-74.158846,-23.743038,9.033341,0.029053,0.066163,1.560693
1322,-36.621653,-20.630198,-3.479057,-0.008545,-0.103029,0.996475
1323,-33.813993,-20.874342,-2.868696,0.092775,0.030640,1.143206
1324,-35.278859,-18.432898,0.976577,0.109010,-0.003296,1.060319
1325,-31.982910,-14.831769,0.244144,0.020874,-0.033570,1.056413
1326,-29.175250,-12.878614,-0.244144,0.055177,-0.004028,1.111589
1327,-24.780652,-10.070954,0.915541,0.041627,0.003418,1.072892
1328,-21.728847,-7.446403,0.061036,0.060426,-0.000977,0.974868
1329,-24.658579,-3.723201,1.464866,0.069825,-0.005127,1.032975
1330,-25.085832,0.793469,2.563516,0.079591,-0.008179,1.036759
1331,-24.231327,3.601129,3.723201,0.036378,-0.002075,1.011734
1332,-25.635157,3.295949,3.723201,0.000244,-0.012696,0.999771
1333,-24.719615,0.915541,4.272526,0.058106,0.034180,1.039445
1334,-25.024796,3.356985,3.051804,0.025269,-0.043336,1.033097
1335,-22.949569,3.845274,2.929732,0.017212,-0.047974,1.043351
1336,-19.165332,4.089418,2.685588,0.022705,-0.040650,1.040055
1337,-18.005646,4.638743,2.380407,0.013672,-0.038575,1.035294
1338,-15.075914,4.638743,2.258335,0.012818,-0.042481,1.010636
1339,-14.953841,4.333562,2.075227,0.002808,-0.046509,0.985489
1340,-15.625238,3.601129,2.197299,0.017090,-0.054566,0.978653
1341,-16.357671,3.295949,2.136263,0.000977,-0.044923,0.976211
1342,-15.869383,2.136263,2.014191,0.006470,-0.033326,0.979385
1343,-16.601816,1.586938,1.403830,0.002441,-0.039063,0.991592
1344,-18.432898,0.793469,1.037613,0.001099,-0.040772,0.989883
1345,-20.569162,0.183108,0.549325,0.010254,-0.080323,1.019181
1346,-15.625238,0.122072,0.976577,0.012573,-0.087770,1.011612
1347,-13.061723,-0.244144,1.342794,0.016480,-0.065675,0.989395
1348,-15.075914,-0.671397,1.709010,0.004517,-0.057252,0.994278
1349,-15.442130,-1.220722,1.464866,0.015625,-0.068238,1.001846
1350,-15.808347,-1.342794,1.525902,0.024170,-0.088502,1.025528
1351,-11.596857,-0.549325,1.770047,0.019532,-0.104005,1.017227
1352,-7.812619,-0.244144,1.709010,0.004883,-0.072999,0.977676
1353,-10.376135,-1.098650,1.403830,0.017456,-0.068238,0.988052
1354,-11.291676,-1.098650,0.976577,0.001221,-0.077150,0.985245
1355,-10.315099,-1.831083,0.915541,0.009888,-0.067262,0.986587
1356,-12.878614,-2.624552,0.854505,0.003540,-0.084108,0.990982
1357,-11.108568,-3.112840,0.915541,0.003174,-0.094728,0.989273
1358,-10.498207,-3.906310,1.342794,0.018921,-0.074342,0.999527
1359,-11.963073,-4.272526,1.586938,0.019165,-0.094728,0.962417
1360,-10.559243,-4.333562,1.464866,0.032593,-0.078248,0.984634
1361,-15.442130,-2.319371,0.732433,0.043091,-0.069215,1.018082
1362,-20.325017,0.793469,0.488289,0.027588,-0.122927,0.969131
1363,-21.118486,0.610361,1.403830,0.046754,-0.097047,1.021012
1364,-17.822538,1.403830,2.136263,0.009277,-0.075929,0.974624
1365,-21.057450,1.281758,2.929732,0.026368,-0.069093,0.963638
1366,-28.076600,1.098650,4.028382,-0.001099,-0.098390,0.999893
1367,-28.503853,1.953155,5.432212,0.022827,-0.102785,0.986831
1368,-33.264668,2.685588,7.263294,0.020142,-0.093629,0.999771
1369,-37.476158,3.845274,9.948882,0.025391,-0.128542,0.989517
1370,-37.598230,4.821851,10.376135,-0.009033,-0.148684,1.033219
1371,-36.377508,2.929732,9.521630,0.006958,-0.155154,1.016251
1372,-28.198672,3.295949,4.821851,-0.040894,-0.109133,0.983413
1373,-24.597543,-1.098650,-2.563516,-0.070680,-0.128054,1.021866
1374,-25.207904,-4.150454,-8.117800,-0.021485,-0.115236,0.992081
1375,-27.161059,-7.629511,-16.235599,-0.094362,-0.135500,1.157488
1376,-47.852293,3.723201,-35.400931,0.019654,-0.022339,0.913710
1377,-56.214237,8.117800,-43.518730,0.110964,-0.375860,1.058488
1378,-17.151141,0.610361,-16.906996,0.143313,-0.333135,1.028336
1379,8.972305,-6.530861,-1.831083,0.040528,-0.146609,0.998795
1380,-11.963073,-0.915541,-8.422980,0.023804,0.053712,0.990127
1381,-52.613108,2.746624,-15.136950,0.023926,0.144900,1.001724
1382,-107.057298,9.338521,-22.949569,0.060548,0.168582,0.973404
1383,-130.373083,11.535821,-24.841688,-0.060304,0.353399,0.884169
1384,-154.970626,-14.465553,-37.598230,-0.256962,0.111574,0.887831
1385,-243.900206,-37.964446,-38.452735,-0.248417,0.892226,1.592920
1386,-505.622950,-16.357671,-89.234760,0.129763,0.773938,1.502464
1387,-684.824903,-71.534295,-47.669184,-0.690806,0.045045,1.153094
1388,-820.080873,-191.042954,23.498894,-0.311406,-0.074586,1.384176
1389,-901.136797,-267.154955,79.774166,0.112062,-1.176532,1.999969
1390,-1184.710460,-283.817807,223.514153,-1.289937,-0.397345,1.999969
1391,-263.309682,-104.859998,94.300755,-1.107683,-0.191165,1.999969
1392,374.456397,-6.897078,-62.195773,-0.356817,0.795422,1.999969
1393,359.075303,43.335622,-52.429999,-0.213993,1.107439,0.619394
1394,84.534981,38.452735,-35.400931,-0.667735,0.470222,0.094484
1395,-62.073701,-13.427939,60.852979,-0.447639,0.124758,-0.368170
1396,-81.055924,-21.423667,75.928893,-0.208377,0.338628,0.190066
1397,20.569162,2.685588,36.743725,-0.212039,0.056886,0.670298
1398,81.849393,15.320058,31.921874,-0.048951,0.427375,0.596689
1399,52.613108,10.193027,34.058137,-0.020386,0.531502,0.763439
1400,57.801175,6.591897,30.518044,0.031006,0.471809,0.992203
1401,109.864958,10.742351,18.799115,0.047120,0.490852,1.040177
1402,133.241779,8.606088,9.948882,0.097536,0.551278,1.061540
1403,145.937285,6.836042,1.831083,0.124758,0.484627,1.235615
1404,178.042268,12.268254,-9.094377,0.106813,0.391119,1.295308
1405,208.987564,20.141909,-18.432898,0.076173,0.317144,1.301778
1406,226.993210,24.658579,-22.827497,0.011353,0.187991,1.268330
1407,248.416876,26.245518,-24.658579,-0.023316,0.086793,1.258808
1408,268.070497,26.245518,-24.170291,-0.014405,0.012085,1.274311
1409,282.780194,26.184482,-23.132677,0.024537,-0.044923,1.301045
1410,295.963989,26.245518,-23.254749,0.083131,-0.109255,1.325948
1411,307.988098,26.489662,-25.574121,0.172244,-0.165408,1.252583
1412,314.946212,25.574121,-32.288090,0.246464,-0.243900,1.047257
1413,308.171206,26.794842,-43.030442,0.326421,-0.405890,0.683604
1414,282.536049,43.335622,-56.458381,0.386481,-0.525887,0.526864
1415,246.463722,64.209964,-64.576181,0.286503,-0.466682,0.874647
1416,214.419776,72.266728,-70.008392,0.225345,-0.424689,1.262593
1417,215.945678,71.290150,-73.731594,0.102052,-0.401129,1.662989
1418,210.330358,70.313573,-71.168078,-0.026490,-0.417731,1.999969
1419,212.100404,72.388800,-62.073701,-0.115602,-0.521126,1.999969
1420,243.472953,78.187228,-55.176623,-0.094118,-0.784802,1.999969
1421,267.215991,93.263142,-48.096437,-0.026978,-0.834363,1.949737
1422,245.914397,96.253910,-39.734493,0.047120,-0.929702,1.635523
1423,225.833524,98.634318,-33.081559,0.170901,-0.967666,1.707668
1424,214.114595,101.747158,-32.410163,0.213260,-0.921279,1.999969
1425,211.856260,106.202792,-31.494621,0.234257,-0.895888,1.999969
1426,224.063478,110.292210,-31.372549,0.292241,-0.880262,1.999969
1427,231.204700,104.432746,-30.884260,0.335088,-0.850721,1.970977
1428,226.810101,79.774166,-25.879301,0.313237,-0.919692,1.999969
1429,249.149310,51.880674,-23.254749,0.282963,-1.041398,1.760281
1430,257.938506,36.377508,-24.536507,0.228031,-1.145525,1.482933
1431,234.805829,37.232013,-21.362631,0.007691,-1.414939,1.154681
1432,216.983291,44.251164,-12.756542,-0.153933,-1.663478,0.858534
1433,187.075608,48.279545,0.671397,-0.178836,-1.938628,0.658091
1434,146.730755,49.134051,21.606775,0.038331,-2.000031,0.485359
1435,108.949416,46.753643,31.738766,0.338262,-2.000031,0.202029
1436,76.661326,45.716030,31.067369,0.550912,-2.000031,-0.163333
1437,34.912642,38.818952,33.020523,0.435187,-2.000031,-0.297124
1438,-20.935378,6.897078,50.537881,0.225711,-1.889067,-0.089723
1439,-118.104829,-67.566949,52.002747,0.283818,-2.000031,-1.081559
1440,-266.239414,-129.396506,79.713130,0.819593,-1.504662,-0.385748
1441,-156.862745,-96.070802,47.241932,0.377569,-0.276982,1.657374
1442,-89.234760,-66.834516,14.526589,-0.147341,1.266865,1.999969
1443,-156.008240,-73.548486,35.278859,-0.276249,0.813733,0.212528
1444,-316.044862,-101.197833,53.955901,0.043580,-0.220218,0.026123
1445,-326.237888,-83.558404,64.393072,0.532723,-0.573739,1.822538
1446,-257.572290,-43.701839,46.814679,1.252583,-0.184939,1.999969
1447,-183.047227,7.629511,12.268254,1.231708,-0.036622,1.999969
1448,-155.886168,23.804074,-10.803388,0.038819,-0.233646,1.799344
1449,-168.276493,-1.831083,14.526589,-1.582544,-0.488533,1.999969
1450,-107.362478,-68.909743,47.730220,-1.293477,-0.606577,1.076799
1451,-69.031815,-123.231861,40.222782,0.937636,0.146731,1.999969
1452,-64.820325,-68.299382,21.240558,1.614893,0.125734,1.999969
1453,-47.669184,-0.671397,11.291676,-0.400397,0.132815,0.978286
1454,-66.102083,-32.288090,16.540780,-0.501106,0.060060,1.006363
1455,-58.350500,-46.387427,6.591897,0.515145,0.106569,1.184100
1456,-61.524376,-18.738079,-1.159686,0.223514,-0.099489,1.598169
1457,-38.208591,-14.587625,1.159686,-0.229129,-0.145022,1.135393
1458,-5.249104,-18.127718,-2.136263,0.205692,0.142336,0.992447
1459,-38.818952,-11.291676,3.234913,-0.068238,-0.046021,1.057389
1460,-20.752270,-12.817578,3.234913,0.039307,-0.030396,1.222553
1461,-9.521630,-7.568475,2.197299,0.062867,0.039063,0.944717
1462,-20.569162,-5.310140,4.150454,0.018433,0.029541,1.050431
1463,-17.151141,-4.638743,4.577707,0.035157,0.002319,1.024796
1464,-17.395285,-2.868696,3.723201,0.011231,0.002564,0.979263
1465,-20.325017,-3.173877,4.028382,0.000977,-0.006104,1.018814
1466,-20.263981,-4.272526,3.418021,0.007080,-0.007935,1.029191
1467,-19.531548,-4.760815,2.014191,-0.014038,-0.023438,1.031266
1468,-15.686275,-5.615320,1.770047,0.000732,-0.032715,1.017350
1469,-12.695506,-6.164645,1.098650,0.001099,-0.019776,1.012222
1470,-12.695506,-6.775006,0.549325,-0.014405,-0.028687,1.010025
1471,-11.169604,-7.568475,0.549325,-0.001953,-0.027955,1.022354
1472,-8.606088,-7.080186,0.305180,0.004028,-0.013672,0.992935
1473,-9.399557,-6.591897,-0.122072,-0.023438,0.054322,1.070085
1474,-11.841001,-6.164645,-0.183108,0.015259,-0.094362,0.950454
1475,-15.503166,-6.286717,0.305180,0.020874,-0.038331,1.003067
1476,-13.000687,-5.615320,0.000000,0.009766,-0.020996,0.992447
1477,-15.197986,-5.676356,0.305180,0.013672,-0.027344,1.009415
1478,-15.747311,-5.493248,0.427253,0.005859,-0.027832,1.004776
1479,-12.878614,-5.065995,0.366217,0.006836,-0.016602,1.042496
1480,-12.207218,-4.943923,0.488289,0.012207,-0.046143,1.039689
1481,-9.948882,-4.516670,0.061036,0.021241,-0.076417,0.998184
1482,-7.263294,-4.394598,-0.732433,0.009766,-0.038209,0.945205
1483,-11.108568,-5.188067,-1.403830,-0.007691,0.004273,0.928725
1484,-19.348440,-6.469825,-1.586938,0.007813,-0.000610,0.937514
1485,-25.696193,-6.958114,-1.892119,0.022583,-0.028687,0.983780
1486,-26.672770,-6.347753,-2.014191,0.024048,-0.065064,1.034928
1487,-23.437858,-5.065995,-1.403830,0.039673,-0.079103,1.046036
1488,-21.728847,-2.624552,-0.732433,0.038697,-0.103639,1.073747
1489,-15.808347,-0.549325,1.159686,0.053468,-0.095216,1.067643
1490,-10.803388,1.342794,1.892119,0.034180,-0.095705,1.056046
1491,-4.089418,2.258335,2.319371,0.014038,-0.068360,0.994644
1492,-6.408789,1.586938,1.831083,0.002319,-0.051270,0.973159
1493,-8.545052,0.183108,1.220722,0.002564,-0.072755,0.989761
1494,-7.324331,-0.976577,0.732433,0.015259,-0.072145,0.990860
1495,-6.897078,-1.403830,0.122072,0.017578,-0.069703,0.999893
1496,-11.047532,-0.915541,0.183108,0.051270,-0.075563,0.904311
1497,-6.897078,-1.281758,0.061036,0.019409,-0.077150,0.988907
1498,-5.859464,-1.464866,-0.427253,0.033570,-0.034913,0.991714
1499,-13.061723,-1.892119,-0.671397,0.028931,-0.051392,1.006729
1500,-13.550011,-1.220722,-0.549325,0.031983,-0.069459,1.016007
1501,-13.488975,0.000000,-0.122072,0.013062,-0.074952,0.983658
1502,-15.014878,0.183108,0.671397,0.017578,-0.069215,0.984878
1503,-18.677043,0.061036,1.586938,0.024659,-0.082155,0.995987
1504,-18.432898,0.610361,2.014191,0.012451,-0.079103,0.985855
1505,-20.935378,0.183108,2.197299,0.009644,-0.074952,0.987320
1506,-23.132677,-0.732433,1.342794,-0.000732,-0.072267,0.990249
1507,-23.865110,-1.953155,-0.122072,0.003174,-0.060060,0.987320
1508,-24.719615,-1.037613,-0.183108,0.049317,-0.059937,0.998306
1509,-38.635843,0.854505,0.061036,0.041138,-0.093019,1.003433
1510,-33.691920,2.075227,1.464866,0.023560,-0.115602,1.016129
1511,-32.776379,4.699779,2.197299,0.051026,-0.105959,1.013443
1512,-39.307240,6.775006,4.333562,0.044068,-0.126223,1.034806
1513,-35.217823,9.460594,5.676356,0.039796,-0.130617,1.052750
1514,-27.405203,12.695506,4.943923,0.020874,-0.114748,1.033951
1515,-27.344167,14.343481,2.685588,-0.018189,-0.094240,1.003311
1516,-25.513085,14.465553,-3.540093,-0.005249,-0.110842,0.947280
1517,-28.076600,17.517357,-16.357671,-0.092164,0.045289,1.058244
1518,-42.053864,21.423667,-33.447776,0.032227,-0.243656,0.947890
1519,-27.100023,15.930419,-19.775692,0.112306,-0.315557,1.004776
1520,-15.320058,4.943923,-5.798428,-0.084718,0.117556,0.878431
1521,-55.176623,-2.014191,-19.531548,-0.079591,0.263432,0.767590
1522,-112.611582,-8.056764,-25.146868,0.007935,0.299199,0.831800
1523,-164.919509,-3.295949,-10.864424,0.168338,-0.044312,0.861219
1524,-163.942931,-7.202258,-0.427253,-0.164553,0.352667,1.299214
1525,-210.513466,-17.212177,-47.119860,-0.032349,0.484016,0.733532
1526,-357.122148,-9.887846,-43.823911,0.015991,0.020630,1.095232
1527,-448.126955,-45.044633,-2.807660,-0.505379,-0.120974,1.522118
1528,-496.833753,-127.016098,-7.629511,-0.417243,-0.303960,0.687755
1529,-532.173648,-171.023117,15.075914,-0.071046,-0.474617,1.013931
1530,-565.987640,-201.113909,39.307240,0.118898,-0.464363,0.808606
1531,-629.465171,-207.034409,83.497368,0.007691,-1.272602,1.999969
1532,-494.270237,-145.876249,121.095598,-0.544808,0.156863,1.999969
1533,-99.000534,-106.935225,-4.333562,0.119997,-0.065064,1.999969
1534,96.681163,-15.136950,-38.086519,-0.025513,0.954726,1.999969
1535,46.753643,36.255436,-39.490349,-0.110231,0.670909,1.999969
1536,0.732433,24.719615,-21.728847,-0.325078,0.311284,1.698512
1537,90.699626,30.090791,-21.179522,-0.340581,0.094240,1.115984
1538,151.369497,24.536507,-18.127718,-0.327276,0.241337,0.538949
1539,122.133211,15.747311,-6.775006,-0.245853,0.205081,0.337652
1540,113.710231,18.188754,-3.295949,-0.196292,0.103273,0.353399
1541,130.983444,30.395972,-5.127031,-0.168826,0.140871,0.380377
1542,127.870604,36.987869,-4.943923,-0.129885,0.175540,0.460212
1543,129.457542,37.537194,-5.676356,-0.015137,0.180301,0.726940
1544,146.730755,39.734493,-11.291676,0.121340,0.182376,1.006851
1545,165.774014,45.349813,-20.508125,0.229618,0.133913,1.212665
1546,186.648356,54.810407,-32.104982,0.255619,0.016846,1.317647
1547,211.367971,66.102083,-44.068055,0.323125,-0.091188,1.281514
1548,225.467308,78.004120,-55.664912,0.335088,-0.230472,1.270161
1549,233.279927,86.060884,-62.806134,0.215091,-0.460822,1.307637
1550,244.632639,87.220569,-61.890593,-0.014527,-0.722423,1.233906
1551,256.778820,79.591058,-52.063783,-0.127810,-0.861341,1.130755
1552,256.168460,70.679789,-35.584039,-0.203861,-0.992691,1.080827
1553,249.393454,63.599603,-15.503166,-0.351568,-1.124285,0.989761
1554,245.975433,57.007706,7.019150,-0.461433,-1.151873,0.849866
1555,233.890288,51.819638,31.799802,-0.535409,-1.115740,0.782849
1556,214.236667,46.997787,57.557031,-0.519661,-1.050431,0.902480
1557,203.860533,44.251164,80.262455,-0.332647,-0.967788,1.047623
1558,199.526970,42.175937,94.972152,0.105104,-0.793957,1.131243
1559,191.836423,44.800488,92.530709,0.543221,-0.638926,1.335103
1560,192.141604,51.209277,76.295109,0.876844,-0.515267,1.385519
1561,196.108949,59.327077,50.537881,0.962051,-0.455573,1.309712
1562,191.226062,58.228428,29.419394,0.881727,-0.442267,1.213886
1563,185.976959,46.448463,13.855192,0.728649,-0.461067,1.198383
1564,180.422675,30.640116,4.699779,0.532723,-0.486458,1.309346
1565,173.586633,17.517357,-0.671397,0.339849,-0.590707,1.390402
1566,169.436179,11.841001,-4.028382,0.172854,-0.748791,1.389792
1567,161.928740,13.183795,-5.981537,0.001709,-0.942641,1.200824
1568,146.547646,17.334249,-6.164645,-0.136599,-1.124895,0.953506
1569,122.621500,25.635157,-4.089418,-0.228153,-1.256611,0.727794
1570,93.568322,41.565576,-1.220722,-0.256229,-1.348287,0.549569
1571,59.388113,64.393072,6.164645,-0.206424,-1.383932,0.510018
1572,21.301595,73.121233,21.301595,-0.169802,-1.381613,0.810803
1573,9.948882,64.637217,39.246204,-0.084718,-1.479637,0.932876
1574,-20.569162,-0.427253,61.646448,0.126711,-1.648219,0.010376
1575,-52.063783,-65.552758,79.896239,0.778943,-1.631617,0.448859
1576,-72.266728,-73.304341,57.373922,1.260639,-1.612696,0.330938
1577,-145.754177,-2.258335,17.761501,0.932753,-1.458152,-0.076173
1578,-44.434272,-19.836728,-20.202945,0.517708,-0.038575,1.150408
1579,-73.243305,-19.165332,-29.602502,0.209232,0.922866,1.999969
1580,-148.012512,-19.104295,12.756542,-1.915190,0.462776,1.999969
1581,-145.998322,-99.427787,6.042573,-0.349859,-1.160052,0.584726
1582,20.752270,-89.112688,-8.728161,0.544808,0.199466,1.999969
1583,-77.393759,-48.157473,-5.127031,0.994888,-0.186893,1.999969
1584,-15.625238,4.760815,0.671397,-0.371710,-0.086061,0.581430
1585,-11.779965,-14.038300,-6.897078,-0.326299,0.126345,0.993057
1586,-57.190814,-28.442817,10.193027,0.393561,0.112673,0.913588
1587,-42.481117,2.075227,0.549325,0.192874,-0.061280,1.292500
1588,-44.678416,3.540093,9.826810,-0.195682,-0.127321,1.003799
1589,-16.357671,-4.821851,7.934691,-0.046143,0.035035,0.940810
1590,-22.766461,-9.399557,5.493248,-0.056641,0.141726,0.819593
1591,-51.514458,-17.700465,5.920500,-0.095460,-0.001831,0.968643
1592,-39.795529,-20.569162,3.112840,0.031006,-0.044800,1.135393
1593,-27.405203,-16.296635,0.061036,-0.001709,-0.009155,1.013321
1594,-32.837415,-17.456321,0.366217,-0.024781,-0.008789,0.980362
1595,-34.546426,-17.090105,0.000000,0.045777,0.000732,1.007706
1596,-36.194400,-15.503166,-0.488289,-0.008789,-0.052369,1.025162
1597,-30.945296,-14.709697,0.122072,0.030274,-0.060060,1.065934
1598,-26.306554,-11.230640,0.671397,0.052247,-0.048951,0.978042
1599,-26.001373,-10.925460,1.403830,0.025879,-0.048463,1.098772
1600,-22.217136,-9.277485,0.671397,0.004395,-0.042359,1.037980
1601,-18.738079,-9.094377,-0.610361,0.023072,-0.056641,0.996841
1602,-21.179522,-8.361944,-0.610361,0.022583,-0.069093,1.056779
1603,-14.648661,-6.897078,-0.976577,0.020020,-0.063233,1.033097
1604,-14.587625,-5.920500,-0.671397,0.031617,-0.064820,1.030167
1605,-13.366903,-4.821851,-0.366217,0.026490,-0.057740,1.030289
1606,-11.657893,-4.211490,-0.610361,0.010742,-0.057984,0.998795
1607,-13.672084,-4.211490,-0.122072,0.007324,-0.048463,1.005386
1608,-13.000687,-4.089418,-0.366217,0.014038,-0.068116,1.017960
1609,-11.108568,-3.479057,-0.427253,0.030030,-0.097658,1.043107
1610,-5.981537,-2.075227,-0.427253,0.020752,-0.086427,1.029679
1611,-3.784237,-1.464866,-0.732433,0.019165,-0.071290,1.017350
1612,-3.845274,-1.586938,-0.549325,0.022827,-0.085206,1.027481
1613,0.183108,-1.220722,-0.122072,0.016114,-0.067994,1.006851
1614,-1.464866,-1.098650,0.244144,0.027588,-0.059449,0.990738
1615,-2.990768,-0.732433,0.549325,0.012696,-0.046876,0.989883
1616,-5.737392,-1.220722,0.305180,0.020264,-0.057130,1.009293
1617,-5.554284,-0.915541,0.122072,0.025025,-0.065064,1.010880
1618,-5.981537,-0.732433,0.061036,0.016846,-0.083986,1.018570
1619,-3.295949,-0.427253,-0.244144,0.015503,-0.085451,1.036149
1620,-4.638743,0.122072,-0.122072,0.029664,-0.095338,0.989517
1621,0.976577,0.488289,0.000000,0.015747,-0.086183,1.003189
1622,1.709010,0.549325,-0.305180,0.022339,-0.064210,1.010147
1623,-0.122072,0.427253,-0.488289,0.011231,-0.069581,1.001968
1624,0.854505,0.122072,-0.610361,0.017945,-0.070314,0.997086
1625,0.793469,0.366217,-0.488289,0.020996,-0.067750,1.002090
1626,0.122072,0.854505,-0.488289,0.031006,-0.061158,1.001846
1627,-0.366217,1.403830,-0.366217,0.041749,-0.074586,1.016495
1628,0.671397,2.868696,0.000000,0.027222,-0.079835,1.019547
1629,0.244144,3.906310,0.366217,0.018677,-0.078492,1.023575
1630,2.014191,4.577707,0.549325,0.019165,-0.080079,1.018692
1631,2.502480,5.249104,0.427253,0.018067,-0.081910,1.025650
1632,4.333562,5.798428,0.366217,0.027588,-0.082643,1.021500
1633,5.249104,6.591897,0.793469,0.019532,-0.089601,1.035172
1634,8.300908,6.836042,1.098650,-0.007202,-0.083009,1.025162
1635,10.620279,5.371176,0.976577,-0.031861,-0.053468,0.955215
1636,9.521630,2.319371,0.061036,-0.025757,-0.014893,0.915663
1637,1.037613,-0.366217,-1.159686,-0.019898,-0.027100,0.937881
1638,-3.540093,-2.319371,-1.709010,-0.001221,-0.062745,0.992813
1639,-1.281758,-2.746624,-2.075227,0.006592,-0.052613,0.994400
1640,-2.746624,-2.441444,-2.502480,0.014038,-0.067750,0.993545
1641,-2.258335,-2.075227,-2.197299,0.035401,-0.079347,1.027359
1642,0.671397,-0.244144,-1.831083,0.023804,-0.079713,1.028824
1643,1.892119,0.854505,-1.037613,0.025757,-0.075807,1.020035
1644,3.356985,1.892119,-0.671397,0.026612,-0.073976,1.022721
1645,4.577707,2.563516,-0.305180,0.016968,-0.074098,1.020523
1646,6.042573,2.929732,0.061036,0.008179,-0.059693,1.002213
1647,5.127031,2.685588,0.305180,0.016236,-0.069703,0.999649
1648,5.798428,2.807660,0.488289,0.007446,-0.073854,1.009049
1649,6.347753,2.746624,0.732433,0.009522,-0.063111,1.006973
1650,7.263294,2.502480,0.549325,0.003540,-0.050660,0.995499
1651,7.263294,1.892119,0.122072,0.006714,-0.046143,0.988907
1652,5.920500,1.525902,-0.122072,0.010620,-0.053956,0.997574
1653,6.042573,1.525902,-0.366217,-0.002441,-0.056641,1.004044
1654,6.713970,1.709010,-0.366217,0.014893,-0.055299,1.010636
1655,6.713970,2.197299,-0.427253,0.002564,-0.056519,1.009903
1656,8.056764,2.258335,-0.366217,0.006470,-0.053834,1.016129
1657,9.399557,1.892119,-1.159686,-0.017823,-0.084474,1.074357
1658,9.948882,2.685588,-0.976577,0.001831,-0.061402,0.987930
1659,12.512398,2.258335,-1.098650,-0.030518,-0.034791,0.906630
1660,9.399557,0.061036,-1.647974,-0.021607,0.009400,0.906264
1661,-2.136263,-2.624552,-1.647974,0.005982,-0.021729,0.987564
1662,-1.953155,-2.685588,-1.770047,0.000000,-0.052125,1.015274
1663,0.122072,-1.709010,-1.464866,0.034546,-0.046998,1.015885
1664,0.244144,0.061036,-1.159686,0.015991,-0.055543,1.018692
1665,1.831083,0.793469,-0.976577,0.016358,-0.050660,1.021256
1666,2.197299,1.586938,-0.793469,0.011109,-0.048219,1.009293
1667,2.563516,2.075227,-0.732433,0.004273,-0.044923,1.008194
1668,2.868696,2.197299,-0.976577,0.010132,-0.056031,1.011612
1669,4.089418,2.441444,-0.732433,0.010010,-0.052003,1.009781
1670,5.065995,2.929732,-0.183108,0.007813,-0.053834,1.009781
1671,5.676356,3.112840,0.061036,0.002808,-0.051759,1.007584
1672,6.591897,3.234913,0.305180,0.007324,-0.044556,1.006851
1673,6.713970,3.356985,0.305180,-0.004150,-0.039796,0.996963
1674,6.591897,3.234913,0.305180,0.004273,-0.038697,1.015763
1675,6.836042,3.418021,0.366217,0.000977,-0.046754,1.017716
1676,8.300908,3.784237,0.366217,0.005249,-0.042115,1.009171
1677,9.277485,4.760815,0.671397,0.020874,-0.040406,1.025650
1678,10.193027,6.164645,0.732433,0.014893,-0.044068,1.028336
1679,11.841001,7.385367,1.220722,0.010742,-0.059937,1.050797
1680,16.174563,8.850233,1.647974,0.005005,-0.052491,1.035294
1681,19.714656,10.193027,1.586938,0.001831,-0.033448,1.011856
1682,19.775692,9.948882,1.647974,-0.007568,-0.014405,0.972305
1683,18.677043,9.033341,1.464866,-0.028687,0.010986,0.937514
1684,13.611048,6.958114,0.549325,-0.042603,0.000610,0.920180
1685,9.826810,4.272526,0.000000,-0.059449,0.018311,0.920302
1686,5.920500,1.037613,-0.549325,-0.037232,0.038575,0.917617
1687,-3.234913,-1.647974,-1.098650,-0.017700,-0.012818,0.994644
1688,0.061036,-1.281758,-1.281758,-0.002441,-0.060060,1.057267
1689,6.591897,0.366217,-0.732433,0.011719,-0.045411,1.041520
1690,8.850233,2.075227,0.061036,-0.006836,-0.035889,1.020279
1691,10.620279,2.563516,0.366217,-0.021118,-0.015259,1.007584
1692,10.864424,1.525902,-0.305180,-0.003418,0.004639,0.971206
1693,6.897078,0.305180,-0.366217,-0.036011,0.003906,0.958999
1694,5.493248,-1.831083,-0.183108,-0.037964,-0.011719,1.000870
1695,9.643702,-2.258335,-0.488289,-0.037598,0.066651,0.935561
1696,-1.586938,-4.089418,0.366217,-0.010376,0.037964,0.920790
1697,-9.155413,-5.188067,0.671397,-0.008789,-0.033692,1.035172
1698,-1.037613,-2.929732,0.671397,0.063233,-0.047242,1.079118
1699,1.403830,1.342794,1.586938,0.018799,-0.080079,1.100847
1700,11.963073,3.356985,2.075227,-0.028443,-0.059449,1.095842
1701,21.057450,2.502480,1.647974,-0.039429,0.022827,0.946304
1702,11.535821,-0.793469,1.709010,-0.035279,0.066163,1.000504
1703,8.422980,-2.929732,0.000000,-0.047364,0.058106,0.866102
1704,2.929732,-6.225681,-1.220722,-0.046387,0.121096,0.845228
1705,-17.151141,-10.315099,-1.281758,-0.030884,0.071534,0.897475
1706,-21.606775,-11.718929,-2.502480,-0.009155,-0.028443,1.032486
1707,-14.343481,-10.559243,-2.990768,0.030030,-0.033326,1.026139
1708,-12.207218,-9.887846,-3.356985,0.011231,-0.018189,1.002579
1709,-14.160372,-10.009918,-3.418021,0.031739,-0.092409,1.110002
1710,-0.061036,-6.775006,-2.929732,0.068971,-0.095460,1.167742
1711,13.855192,0.732433,-1.647974,0.072023,0.020630,1.007340
1712,1.098650,5.249104,-0.183108,0.019043,0.026856,1.006363
1713,1.037613,8.300908,0.793469,0.020630,0.026978,0.952529
1714,-5.737392,8.545052,0.671397,-0.055421,0.019409,0.940688
1715,-11.963073,4.699779,0.854505,-0.037232,-0.055299,1.038590
1716,2.502480,4.394598,-0.793469,-0.023926,0.002441,0.976333
1717,-6.836042,1.709010,0.122072,-0.021363,-0.026368,1.006851
1718,-1.281758,0.366217,-1.098650,-0.043336,-0.062867,0.959487
1719,-2.624552,-3.784237,-1.647974,-0.018311,-0.046021,1.043595
1720,5.065995,-3.295949,-1.403830,0.031373,-0.044923,1.065690
1721,9.887846,-0.610361,-0.610361,-0.010986,0.012818,0.951186
1722,0.671397,-2.380407,0.000000,-0.025879,-0.012451,1.003311
1723,7.080186,-2.807660,-0.854505,-0.006470,0.015747,0.962661
1724,0.183108,-3.540093,-0.915541,-0.021607,0.044068,0.933242
1725,-5.004959,-6.042573,-1.770047,-0.048463,0.005127,0.954604
1726,-4.089418,-9.033341,-3.051804,-0.013916,-0.008911,0.973037
1727,-4.394598,-9.826810,-4.028382,-0.001953,-0.008179,0.996109
1728,-4.333562,-9.643702,-4.211490,0.011597,-0.007691,1.021378
1729,-3.112840,-8.239872,-3.234913,0.029053,0.040528,1.008804
1730,-7.141222,-6.469825,-3.051804,0.027466,-0.020142,1.026383
1731,-4.394598,-4.882887,-2.258335,0.014160,-0.011231,1.064225
1732,0.427253,-4.028382,-2.746624,-0.010376,-0.014282,1.002213
1733,-0.488289,-4.638743,-3.295949,0.032349,-0.052857,1.024308
1734,3.540093,-1.770047,-2.563516,0.034058,-0.015259,0.995254
1735,1.586938,0.976577,-1.525902,0.019043,0.033082,0.996475
1736,-4.821851,0.427253,-0.549325,0.032349,-0.084718,0.976211
1737,0.183108,1.464866,-0.854505,0.010620,-0.010620,1.013077
1738,-1.403830,1.159686,-0.427253,-0.000122,-0.030762,1.025772
1739,4.577707,1.098650,-0.732433,0.016114,-0.015869,1.010147
1740,2.014191,2.136263,-0.122072,0.036866,-0.005249,1.022110
1741,3.051804,4.699779,0.183108,0.011719,-0.002564,0.998428
1742,0.305180,5.065995,0.732433,0.001953,-0.011231,0.997330
1743,2.807660,4.943923,0.732433,-0.006958,-0.007080,0.984024
1744,1.220722,4.577707,1.037613,0.008301,0.014160,0.969253
1745,-2.319371,4.089418,1.098650,-0.018677,-0.012573,0.956313
1746,-1.831083,2.258335,1.037613,0.009400,0.026856,0.991836
1747,-7.507439,3.051804,1.220722,0.008545,0.011475,0.990005
1748,-11.902037,1.770047,1.892119,-0.025147,-0.063355,1.029801
1749,-0.061036,1.281758,0.671397,-0.010132,-0.022339,1.010391
1750,-2.136263,0.000000,0.366217,-0.015137,0.001587,0.977920
1751,-3.784237,-0.793469,-0.366217,-0.007568,-0.003418,0.977798
1752,-5.981537,-1.403830,-0.549325,0.002197,-0.020264,1.004898
1753,-3.906310,-1.037613,-0.610361,-0.005615,-0.043214,1.015885
1754,-3.662165,-1.159686,-0.671397,0.006104,-0.004273,1.030045
1755,-1.464866,-0.549325,-0.610361,-0.000244,-0.023560,0.991592
1756,-3.112840,-1.037613,-0.549325,0.008057,-0.039063,1.011002
1757,2.502480,-0.549325,0.000000,0.010742,-0.014405,1.017105
1758,0.122072,0.366217,0.122072,0.011719,-0.001831,0.985245
1759,-4.211490,0.183108,0.671397,-0.005005,-0.025269,0.999405
1760,-0.671397,-0.183108,0.183108,-0.001953,-0.016968,1.001480
1761,-3.234913,-0.976577,-0.244144,-0.012451,-0.030152,1.006119
1762,-0.610361,-1.647974,-0.793469,-0.003174,-0.019165,1.001480
1763,-1.403830,-1.709010,-0.976577,0.014282,-0.009033,0.987320
1764,-1.953155,-1.403830,-2.380407,-0.006226,-0.022827,1.011124
1765,-2.502480,-2.136263,-1.831083,0.003052,-0.023926,1.004044
1766,-0.793469,-2.380407,-0.732433,0.018555,-0.015747,0.958999
1767,-3.051804,-1.709010,-0.854505,-0.011109,-0.039918,1.026993
1768,5.188067,-1.342794,-0.915541,0.008789,0.010376,0.980362
1769,-2.624552,-0.915541,-0.671397,0.019409,-0.005005,0.977554
1770,-4.943923,-0.183108,-0.427253,-0.002441,-0.045289,1.013809
1771,0.488289,0.549325,-0.244144,0.017334,-0.032471,1.016129
1772,0.366217,0.671397,0.122072,0.000244,-0.017945,0.995743
1773,0.488289,-0.610361,0.061036,-0.008545,-0.032959,1.025284
1774,6.958114,0.122072,-2.136263,0.013062,0.001709,1.023209
1775,3.295949,-0.305180,-1.770047,-0.001465,-0.029053,0.982925
1776,0.976577,-0.854505,0.366217,0.019287,-0.021729,1.003922
1777,1.647974,0.000000,0.000000,-0.005005,-0.019532,0.994034
1778,-1.220722,-0.549325,0.000000,0.009888,-0.015625,0.986221
1779,-2.990768,-0.061036,-0.305180,0.006104,-0.014405,0.988785
1780,-4.638743,-0.061036,0.000000,0.009277,-0.009888,0.982925
1781,-6.591897,0.122072,0.122072,0.001709,-0.030640,0.995377
1782,-3.601129,0.610361,-0.122072,-0.000122,-0.025879,1.018692
1783,-1.525902,0.183108,0.000000,-0.003052,-0.027955,0.998184
1784,1.342794,0.061036,-0.366217,-0.002197,-0.025391,0.994522
1785,1.525902,-0.366217,-1.770047,0.005493,-0.047608,0.992325
1786,1.709010,-0.854505,-3.295949,-0.011719,-0.021851,0.996475
1787,-2.258335,-1.892119,-3.479057,0.003784,-0.030396,1.007462
1788,-2.258335,-2.319371,-1.586938,0.010010,-0.009766,1.001724
1789,-3.540093,-1.892119,-3.967346,0.006226,-0.042481,1.009659
1790,-3.662165,-1.892119,-0.183108,0.011963,-0.035523,0.988907
1791,-2.563516,-0.976577,0.122072,0.011109,-0.031739,1.019791
1792,0.488289,0.793469,-1.159686,0.020996,-0.018189,1.013199
1793,2.990768,1.586938,-3.784237,-0.000732,-0.020508,1.016129
1794,5.127031,2.075227,-5.493248,0.005982,-0.016724,0.990127
1795,2.929732,2.014191,-6.164645,0.000977,-0.032593,0.995132
1796,2.319371,0.793469,-5.981537,-0.002808,-0.034791,1.013077
1797,3.662165,0.305180,-3.601129,0.002930,-0.018799,1.000992
1798,2.807660,0.793469,-4.211490,0.017823,-0.023438,1.001236
1799,4.577707,2.380407,-8.606088,0.012329,-0.025269,1.000748
