Packet number,Gyroscope X (deg/s),Gyroscope Y (deg/s),Gyroscope Z (deg/s),Accelerometer X (g),Accelerometer Y (g),Accelerometer Z (g)
0,0.305180,0.305180,0.000000,0.013428,-0.014649,1.003677
1,0.671397,0.366217,0.000000,0.006348,-0.012451,1.004288
2,0.732433,0.427253,0.000000,0.007446,-0.010498,0.997940
3,0.732433,0.305180,0.000000,0.010620,-0.007446,1.001968
4,0.793469,0.366217,-0.183108,0.006714,-0.011353,0.997818
5,0.793469,0.183108,-0.122072,0.006958,-0.012207,1.000137
6,0.671397,0.244144,-0.122072,0.006592,-0.010620,0.992447
7,0.427253,0.183108,-0.122072,0.007446,-0.010254,0.998062
8,0.671397,0.305180,0.000000,0.009155,-0.011597,0.999039
9,0.305180,0.305180,0.000000,0.008179,-0.008423,0.997452
10,0.244144,0.244144,0.000000,0.010010,-0.009766,0.997208
11,0.122072,0.305180,0.000000,0.012329,-0.009400,0.996231
12,-0.183108,0.183108,0.000000,0.002930,-0.019043,0.998428
13,0.488289,0.366217,0.000000,0.009644,-0.009400,1.003189
14,0.000000,0.366217,0.061036,0.006714,-0.013428,0.994034
15,0.549325,0.549325,0.000000,0.013550,-0.018067,1.007095
16,0.488289,0.488289,0.000000,0.014649,-0.014649,1.002335
17,0.793469,0.671397,0.000000,0.007935,-0.011597,1.011978
18,0.793469,0.549325,0.000000,0.006958,-0.010620,1.004166
19,0.976577,0.671397,0.000000,0.003784,-0.007691,0.989273
20,0.549325,0.427253,0.000000,0.007324,-0.010742,0.997940
21,0.854505,0.366217,0.000000,0.010254,-0.005371,0.999161
22,0.366217,0.244144,0.000000,0.006836,-0.006348,0.997818
23,0.427253,0.244144,0.000000,0.006592,-0.008179,0.997452
24,0.000000,0.183108,0.000000,0.011841,-0.007446,1.003433
25,0.122072,0.183108,0.000000,0.013672,-0.016602,1.000870
26,0.000000,0.305180,0.000000,0.008423,-0.012207,1.004044
27,-0.061036,0.366217,0.000000,0.009400,-0.014282,1.009537
28,0.366217,0.488289,0.000000,0.012329,-0.012696,0.999039
29,0.244144,0.488289,0.000000,0.010742,-0.009033,1.002335
30,0.671397,0.488289,0.000000,0.008911,-0.014649,1.001114
31,0.793469,0.549325,0.000000,0.003784,-0.013916,1.001358
32,0.671397,0.427253,0.000000,0.009033,-0.009644,1.000381
33,0.793469,0.244144,0.000000,0.001343,-0.006592,0.992813
34,0.549325,0.183108,-0.122072,0.007813,-0.008057,1.000381
35,0.549325,0.183108,-0.122072,0.006714,-0.008667,0.997330
36,0.244144,0.000000,-0.122072,0.005127,-0.011475,1.000015
37,0.122072,0.244144,-0.122072,0.003418,-0.010986,1.005020
38,-0.061036,0.244144,-0.122072,0.010132,-0.019043,1.004532
39,0.061036,0.488289,-0.122072,0.008057,-0.013672,1.003311
40,-0.183108,0.244144,0.061036,0.007813,-0.016846,1.000504
41,0.549325,0.549325,0.000000,0.009522,-0.009644,0.990005
42,0.000000,0.366217,0.000000,0.005371,-0.015381,1.000504
43,0.549325,0.244144,-0.122072,0.004639,-0.010010,1.010025
44,0.549325,0.427253,-0.122072,0.004883,-0.011841,1.002823
45,0.732433,0.366217,0.000000,0.009766,-0.011841,0.996353
46,0.671397,0.183108,0.000000,0.007813,-0.011597,1.003677
47,0.976577,0.366217,0.000000,0.007446,-0.014038,1.002090
48,0.976577,0.305180,0.000000,-0.005371,-0.005493,0.992325
49,0.549325,0.000000,0.000000,0.000000,-0.006714,0.980728
50,-0.061036,-0.244144,-0.122072,0.007324,-0.015991,1.002090
51,0.671397,-0.122072,-0.122072,0.006714,-0.013184,1.006241
52,0.732433,0.244144,0.061036,0.009400,-0.014527,0.992325
53,0.793469,0.488289,0.183108,0.007813,-0.012573,0.999527
54,0.671397,0.427253,0.183108,0.009277,-0.011597,1.005753
55,0.915541,0.671397,0.244144,0.005005,-0.017212,1.005631
56,1.098650,0.854505,0.061036,0.025391,-0.019043,1.054826
57,3.601129,0.854505,0.000000,-0.000366,-0.024903,1.025040
58,2.685588,1.037613,0.244144,0.000244,-0.052125,1.059220
59,10.742351,2.380407,0.000000,0.013428,-0.029175,1.040909
60,9.826810,2.990768,0.061036,-0.003052,-0.027344,1.024918
61,13.733120,2.929732,0.183108,0.000000,-0.016724,1.000259
62,15.075914,3.356985,0.000000,0.018433,0.021363,0.986465
63,11.841001,2.685588,0.183108,-0.009400,0.008667,0.969375
64,11.169604,1.831083,-0.244144,-0.004150,0.021607,0.956802
65,9.277485,0.549325,-0.305180,-0.002075,0.021363,0.972549
66,7.507439,-0.305180,-0.549325,-0.005127,0.017090,0.966567
67,5.310140,-1.525902,-0.549325,-0.001465,0.013306,0.975479
68,4.638743,-1.892119,-0.610361,0.007691,0.006958,0.995499
69,4.516670,-2.014191,-0.549325,0.007202,0.007324,0.982193
70,4.516670,-2.014191,-0.366217,0.007446,0.009400,0.997208
71,5.065995,-1.953155,-0.183108,0.003784,0.005371,1.004410
72,5.188067,-2.075227,-0.183108,0.005493,0.008667,1.010636
73,4.760815,-1.525902,-0.427253,0.011841,-0.007813,1.011490
74,6.164645,-1.586938,0.000000,0.021851,0.015381,0.992813
75,5.737392,-1.342794,0.000000,0.010986,0.022095,0.999283
76,5.432212,-0.915541,0.000000,0.011719,0.016602,0.984878
77,4.638743,-0.549325,-0.305180,0.008545,0.016968,0.989517
78,3.662165,-0.976577,0.122072,0.012451,0.007324,0.995377
79,5.188067,-0.549325,0.000000,0.010864,0.021729,0.983413
80,3.845274,-0.488289,0.000000,0.008789,0.020630,0.983413
81,3.723201,-0.122072,0.061036,0.022827,0.018799,1.000626
82,2.929732,0.854505,0.488289,0.010498,0.014038,1.003922
83,3.906310,1.831083,0.732433,0.015625,0.005005,1.002823
84,4.699779,2.136263,0.976577,0.011963,0.011597,1.001480
85,5.493248,2.197299,1.098650,-0.001709,0.023926,0.976944
86,4.272526,1.892119,0.976577,0.001831,0.025147,0.980117
87,3.723201,1.647974,0.793469,0.002930,0.036500,0.958145
88,0.671397,1.403830,0.671397,0.011231,0.040162,0.937514
89,-2.136263,0.976577,0.549325,0.010620,0.032227,0.975723
90,-4.333562,0.610361,0.671397,0.003052,-0.006226,1.037491
91,0.427253,1.342794,1.037613,0.027832,0.000366,1.019913
92,2.075227,2.563516,0.976577,0.004273,0.023560,1.012955
93,1.525902,2.197299,0.793469,0.007080,0.001831,1.005509
94,3.601129,2.380407,0.671397,0.009033,0.000977,1.017350
95,6.286717,2.136263,0.671397,-0.000610,0.018311,0.998428
96,6.286717,1.647974,0.366217,0.005249,0.035279,0.980972
97,5.127031,1.403830,0.305180,0.005737,0.036744,0.983291
98,3.234913,1.037613,0.183108,0.005371,0.026734,0.983291
99,2.807660,0.854505,0.183108,0.006104,0.027710,0.994644
100,2.380407,0.793469,0.244144,0.003662,0.030274,0.990982
101,0.793469,0.122072,0.244144,-0.000122,0.019532,1.003189
102,1.831083,-0.122072,0.183108,-0.004150,0.031861,0.985855
103,1.037613,-1.342794,-0.244144,-0.012940,0.028321,0.988052
104,0.366217,-2.319371,-0.366217,0.000000,0.015625,1.009049
105,2.746624,-2.319371,-0.732433,0.001709,0.022950,1.005386
106,2.197299,-2.807660,-0.732433,0.005249,0.028687,0.984146
107,1.953155,-3.479057,-0.915541,0.004883,0.043824,0.982559
108,0.854505,-3.540093,-1.098650,0.008179,0.037110,0.977432
109,-0.976577,-3.784237,-1.098650,0.017700,0.037232,0.992081
110,-1.709010,-2.563516,-0.854505,0.030762,0.022950,1.019547
111,-1.098650,-0.732433,-0.610361,0.026978,0.032227,0.997818
112,-2.258335,0.366217,-0.305180,0.016480,0.037110,0.990616
113,-3.173877,0.793469,-0.305180,-0.000244,0.033448,0.978531
114,-4.394598,0.732433,-0.183108,0.015869,0.018067,1.002701
115,-3.601129,1.281758,-0.122072,0.010010,0.015381,1.012222
116,-2.075227,1.525902,0.000000,0.001465,0.024659,0.986099
117,-3.112840,0.732433,0.122072,0.000488,0.021118,0.984390
118,-3.479057,0.183108,0.000000,-0.003906,0.024292,0.983536
119,-3.173877,-0.427253,-0.122072,0.000977,0.024292,0.983291
120,-4.882887,-1.281758,0.122072,0.002564,0.023560,0.988907
121,-4.211490,-1.709010,0.000000,-0.006592,0.028687,0.977310
122,-5.676356,-2.685588,-0.122072,-0.001709,0.020508,0.984146
123,-6.225681,-3.356985,-0.244144,-0.004028,0.018311,0.971695
124,-7.141222,-4.089418,-0.122072,0.005493,0.030518,0.978042
125,-9.582666,-4.699779,0.000000,0.006958,0.001343,0.989761
126,-9.521630,-4.455634,0.305180,0.012207,0.016358,0.981094
127,-11.596857,-4.760815,0.732433,0.014893,0.018067,0.981949
128,-12.146181,-5.127031,1.159686,0.001587,0.014893,0.968765
129,-13.916228,-5.859464,0.732433,0.006958,0.029786,0.965225
130,-17.517357,-7.202258,0.976577,0.007691,-0.002930,1.010025
131,-14.526589,-6.836042,0.671397,0.016724,-0.007935,1.008316
132,-15.075914,-6.897078,0.915541,0.030030,-0.012207,1.011856
133,-13.488975,-6.347753,0.793469,0.013916,-0.009888,1.015030
134,-12.939651,-6.652934,1.037613,0.023926,-0.024170,1.015518
135,-11.596857,-6.042573,1.342794,0.028687,-0.009277,0.982193
136,-13.183795,-6.286717,1.220722,0.013062,-0.005493,0.981216
137,-15.014878,-7.324331,1.770047,0.012329,0.008545,0.959854
138,-18.860151,-8.606088,1.831083,0.016114,0.010254,0.952285
139,-24.048219,-9.704738,2.075227,0.023438,-0.012207,1.001358
140,-22.888533,-9.277485,1.770047,0.030396,-0.038819,1.022721
141,-22.705425,-8.789197,1.647974,0.034668,-0.034913,0.995254
142,-22.827497,-7.629511,1.892119,0.038331,-0.060060,1.012833
143,-20.569162,-6.775006,2.441444,0.049317,-0.062989,1.026871
144,-19.470512,-5.493248,4.089418,0.047486,-0.044434,1.042130
145,-17.883574,-2.929732,5.371176,0.056886,-0.057618,1.032120
146,-17.273213,-0.976577,6.042573,0.057130,-0.031617,0.999283
147,-18.493935,0.488289,6.286717,0.098390,0.027710,0.952285
148,-29.602502,2.624552,5.432212,-0.023072,0.023072,0.988540
149,-33.875029,0.122072,4.211490,0.038697,-0.016602,0.970718
150,-34.790570,0.427253,2.014191,0.033570,-0.036744,1.004776
151,-36.621653,-0.366217,0.000000,0.011597,-0.051392,0.961563
152,-27.832456,0.610361,0.122072,0.012451,-0.029419,1.062516
153,-30.701152,2.746624,-3.967346,0.022217,-0.077760,0.953140
154,-35.034714,0.000000,-8.545052,-0.035279,-0.034424,1.013199
155,-37.842374,-2.929732,-13.366903,-0.006958,-0.019898,1.030167
156,-49.011978,-3.540093,-23.254749,0.026246,-0.043458,0.973037
157,-52.735180,6.286717,-25.024796,0.149905,-0.127687,0.917494
158,-46.814679,8.239872,-25.207904,0.068727,-0.177859,0.996719
159,-43.762875,6.164645,-15.320058,0.067506,-0.163699,1.071550
160,-42.542153,3.540093,-7.873655,0.024781,-0.057252,0.998672
161,-60.303655,3.418021,-11.047532,0.101442,-0.093141,1.037247
162,-73.121233,10.131991,-8.667124,0.042359,0.000000,0.986587
163,-76.905470,11.902037,-6.225681,0.059693,0.052369,0.904189
164,-105.043107,12.695506,-3.967346,0.024292,0.128420,0.761975
165,-128.725109,7.568475,5.920500,-0.004395,0.193973,0.894789
166,-188.235294,12.573434,-3.356985,0.040406,0.482918,1.162982
167,-233.035782,-0.610361,-31.860838,0.043336,0.376837,1.272358
168,-383.916991,22.522316,-23.559930,-0.148562,0.096193,1.199603
169,-486.884871,10.803388,18.982223,0.101930,-0.007324,1.560082
170,-518.928817,18.371862,20.630198,0.206302,-0.162600,1.448753
171,-547.432670,35.828183,14.526589,0.103639,-0.158938,1.078386
172,-612.558175,44.373236,35.278859,-0.000122,-1.276020,1.922271
173,-605.783169,69.581140,140.688182,-1.536889,-0.213993,1.999969
174,-283.146410,15.014878,6.591897,-0.830945,-1.214252,1.999969
175,140.871290,30.945296,1.831083,-0.518318,0.557870,1.999969
176,52.491035,36.621653,-25.024796,-0.102541,0.475959,1.308492
177,-78.980697,-4.821851,58.045319,-0.209720,0.754162,1.208515
178,-78.187228,-28.442817,66.285191,0.233280,0.354009,1.107561
179,37.598230,-12.634470,27.100023,0.334844,0.482673,1.144182
180,41.748684,-11.108568,10.498207,0.462287,0.635508,0.885756
181,19.775692,-15.014878,-1.586938,0.441779,0.481331,1.065080
182,62.623026,-18.860151,-20.874342,0.352422,0.431159,1.063737
183,86.305028,-30.457008,-34.058137,0.271733,0.482185,0.993912
184,91.981384,-44.800488,-41.443503,0.162966,0.387945,1.021012
185,116.212711,-51.819638,-48.462654,0.052613,0.353277,1.051286
186,131.288624,-52.429999,-52.124819,-0.071412,0.324834,1.101457
187,143.312734,-46.326390,-51.758602,-0.186160,0.268315,1.230243
188,163.027390,-35.461967,-49.439231,-0.296757,0.206424,1.310445
189,183.718624,-25.452049,-42.847333,-0.363043,0.153079,1.329488
190,202.517739,-18.371862,-33.752956,-0.377569,0.065797,1.221698
191,218.997482,-16.235599,-23.926146,-0.334356,0.032471,1.076921
192,227.725643,-17.212177,-16.052491,-0.228153,0.014893,1.013809
193,231.509880,-12.451362,-11.902037,-0.110719,0.019654,1.039689
194,233.279927,-5.676356,-12.390326,0.005615,0.031861,1.144427
195,237.125200,1.770047,-16.906996,0.082155,0.040772,1.289326
196,242.862593,7.263294,-23.498894,0.132692,0.027222,1.438010
197,253.238727,11.291676,-32.349126,0.173709,-0.026856,1.428855
198,257.816434,18.188754,-42.847333,0.187381,-0.131960,1.258564
199,248.783093,28.931106,-52.674144,0.212161,-0.246098,1.092790
200,234.012360,41.992828,-60.242618,0.182742,-0.309331,1.098650
201,217.349508,46.875715,-63.660639,0.151736,-0.291264,1.264546
202,208.804456,43.274586,-65.247578,0.140871,-0.234989,1.608179
203,208.499275,40.344854,-65.308614,0.132570,-0.226078,1.872587
204,214.908064,43.152514,-66.163119,0.166384,-0.275151,1.955352
205,220.401312,49.927520,-67.872129,0.173098,-0.341924,1.932036
206,221.622034,53.528649,-67.872129,0.164920,-0.387335,1.970733
207,225.406271,47.669184,-65.308614,0.135988,-0.443000,1.999969
208,239.627680,38.269627,-62.256809,0.160891,-0.513924,1.999969
209,257.145037,35.828183,-61.524376,0.179202,-0.542245,1.926177
210,254.947738,39.063096,-60.303655,0.178470,-0.619394,1.588037
211,245.059892,46.631571,-58.533608,0.113527,-0.683848,1.426780
212,228.458076,51.148241,-52.674144,0.032471,-0.729259,1.387350
213,216.189822,48.035401,-43.335622,-0.034424,-0.791638,1.371115
214,206.668193,45.166705,-32.654307,-0.067628,-0.853285,1.251972
215,188.967727,45.716030,-20.874342,-0.089845,-0.938369,1.110857
216,167.788205,49.805447,-9.765774,-0.056397,-1.034562,1.021866
217,141.664759,55.664912,-2.380407,0.085939,-1.169940,1.034928
218,116.395819,65.308614,-1.953155,0.285771,-1.375509,1.101335
219,97.047379,79.713130,-9.216449,0.436164,-1.643824,1.287251
220,84.534981,86.732280,-14.953841,0.541756,-1.931914,1.122210
221,87.220569,83.741512,-21.972992,0.553231,-2.000031,0.671275
222,77.576867,63.416495,-17.029068,0.433234,-2.000031,-0.071290
223,34.058137,17.334249,2.197299,0.262455,-1.858671,-0.395148
224,-19.836728,-32.959487,19.226368,0.110597,-2.000031,-2.000031
225,-143.129625,-78.431373,48.767834,0.091676,-1.136858,-0.115602
226,-229.312581,-97.596704,49.011978,0.178714,-1.902129,0.305425
227,-188.601511,-73.243305,35.339895,0.058473,-0.484016,1.097917
228,-116.823072,-59.327077,9.399557,-0.030884,0.686412,1.999969
229,-152.895399,-49.256123,21.728847,-0.027832,0.952041,1.559594
230,-235.538262,-66.956588,30.579080,0.052979,0.182376,0.664439
231,-248.477913,-61.646448,36.255436,0.140871,-0.252567,1.407248
232,-233.096819,-27.161059,35.400931,0.389654,-0.307378,1.999969
233,-172.426947,-22.766461,22.522316,0.672129,-0.159304,1.999969
234,-106.935225,-0.915541,0.427253,0.226200,-0.135988,1.755398
235,-101.991302,6.042573,6.836042,-0.686412,-0.007691,1.304585
236,-134.828717,-37.170977,36.743725,-0.755383,-0.390997,1.690822
237,-71.900511,-68.726635,38.269627,0.170535,-0.039429,1.614649
238,-58.472572,-64.209964,22.034028,1.137346,0.122927,1.999969
239,-23.559930,-7.568475,2.807660,0.410285,-0.060182,1.408835
240,-16.968032,2.075227,6.164645,-0.534554,0.086793,0.903822
241,-35.217823,-28.381781,13.183795,-0.079347,0.061524,1.022965
242,-19.958801,-25.757229,4.150454,0.396246,0.132692,1.274678
243,-24.536507,-6.897078,3.234913,0.008545,0.058595,1.075578
244,-22.705425,-8.911269,3.662165,-0.117189,0.031861,1.049577
245,-14.465553,-13.733120,1.647974,0.042603,0.075319,1.043229
246,-16.052491,-9.704738,1.098650,0.046021,0.072145,1.081926
247,-14.343481,-6.591897,1.831083,-0.007813,0.058961,1.024674
248,-12.756542,-5.127031,0.976577,0.031373,0.065919,0.992081
249,-16.906996,-2.563516,2.258335,0.065187,0.059327,1.049699
250,-14.770733,1.281758,2.258335,0.027710,0.038087,1.046769
251,-11.108568,3.295949,2.014191,0.019532,0.069581,0.979141
252,-15.869383,2.990768,2.563516,-0.013062,0.100954,1.049577
253,-14.038300,0.854505,3.784237,-0.037110,0.104982,0.984756
254,-15.747311,-1.709010,2.807660,-0.027832,0.052735,0.972183
255,-15.014878,-3.845274,2.258335,-0.026978,0.036133,0.996841
256,-11.108568,-5.554284,1.525902,-0.060792,0.094606,1.062272
257,-10.437171,-9.033341,2.929732,-0.009522,0.120729,0.960952
258,-12.085145,-8.972305,1.586938,0.008423,0.036988,0.945815
259,-14.648661,-9.033341,1.647974,0.004761,0.026978,1.027848
260,-13.427939,-8.789197,1.403830,-0.009522,0.032593,1.018570
261,-9.704738,-8.850233,1.892119,-0.000977,0.127932,0.994766
262,-12.024109,-7.873655,2.136263,0.013794,0.031373,1.002579
263,-13.488975,-7.934691,2.014191,0.017945,0.027955,1.041276
264,-10.376135,-7.446403,1.220722,-0.002197,0.032105,0.987320
265,-11.230640,-7.446403,0.732433,-0.001587,0.044068,0.995254
266,-13.061723,-8.178836,1.342794,0.002197,0.095827,0.981094
267,-13.000687,-7.263294,0.732433,0.012207,0.063355,0.954604
268,-19.104295,-7.629511,0.793469,0.000732,0.023072,1.009659
269,-15.686275,-7.263294,0.488289,0.026123,0.021241,0.992569
270,-18.677043,-6.469825,0.915541,0.030396,0.014160,1.003067
271,-19.043259,-5.432212,1.647974,0.033692,-0.003296,1.030167
272,-16.845960,-4.699779,1.831083,0.018311,0.007324,1.016007
273,-17.456321,-4.577707,2.014191,0.033326,0.011475,1.018082
274,-18.188754,-4.638743,2.014191,0.010864,-0.002930,1.000381
275,-14.892805,-4.760815,1.342794,0.021729,0.032715,0.998795
276,-18.249790,-5.004959,1.647974,0.029664,0.003906,0.987198
277,-18.493935,-4.272526,1.525902,0.024292,-0.007691,0.998306
278,-19.470512,-3.540093,2.319371,0.046021,-0.014405,0.977798
279,-21.667811,-2.197299,2.685588,0.026001,0.011109,0.972793
280,-27.649348,-2.807660,3.234913,0.010986,0.023194,0.942031
281,-30.151827,-2.319371,3.051804,0.042847,0.023194,0.972671
282,-34.363317,-2.746624,2.197299,0.021851,-0.021607,1.025284
283,-29.358358,-3.112840,1.220722,0.014649,-0.041505,1.007828
284,-28.503853,-4.028382,1.037613,0.003662,-0.038331,0.964614
285,-31.311513,-5.798428,0.793469,0.006226,-0.030884,0.969986
286,-30.151827,-7.385367,-0.427253,0.015625,0.001831,0.953872
287,-33.875029,-7.324331,0.915541,-0.013672,-0.019532,0.924697
288,-42.908370,-11.108568,4.943923,0.071534,-0.024048,1.063249
289,-42.481117,-4.577707,3.418021,0.071046,-0.067628,1.028824
290,-44.190127,-0.976577,4.272526,0.023926,-0.069093,1.065934
291,-42.908370,0.244144,3.356985,0.015259,-0.078737,1.008438
292,-39.917601,0.610361,0.793469,-0.018189,-0.049317,1.031998
293,-40.650034,0.000000,-4.943923,-0.030640,0.000000,0.984390
294,-42.236973,-1.220722,-10.803388,-0.005493,-0.122194,0.938247
295,-51.636530,-4.028382,-16.540780,-0.056031,0.046998,1.071061
296,-81.544213,3.662165,-36.499580,0.021118,-0.061769,0.982559
297,-83.070115,6.958114,-36.743725,0.098390,-0.375250,1.056413
298,-52.796216,-3.112840,-16.296635,0.108156,-0.317144,1.081804
299,-34.302281,-7.324331,-5.859464,0.090089,-0.031128,1.039322
300,-61.158160,0.488289,-15.197986,0.065919,0.235966,0.974746
301,-117.616541,12.939651,-16.906996,0.192874,0.135744,0.880873
302,-135.561151,14.770733,5.004959,-0.100832,0.135256,0.820081
303,-152.101930,-11.902037,-1.709010,-0.300664,0.259648,0.786877
304,-223.331044,-30.334936,5.798428,0.059083,1.249775,1.148943
305,-456.122683,-31.067369,-42.481117,0.148196,0.501350,1.668727
306,-646.189059,-102.052338,17.761501,-0.787854,0.077394,1.999969
307,-748.424506,-174.013886,48.767834,-0.046143,0.086305,1.051530
308,-864.759289,-187.075608,74.158846,0.217166,-0.119387,0.954849
309,-1059.464408,-191.897459,175.661860,0.440803,-1.688991,1.999969
310,-504.280156,-77.088579,151.796750,-0.776623,-0.376349,1.999969
311,263.431754,4.394598,-60.425727,0.064088,0.889906,1.999969
312,353.093767,49.500267,-72.755016,-0.086549,1.642359,1.302998
313,128.419928,45.044633,-65.064469,-0.471321,1.040299,0.853895
314,-43.274586,-15.991455,12.756542,-0.311772,0.311894,-0.031861
315,-50.843061,-25.207904,25.818265,-0.135256,0.178592,0.170779
316,73.731594,-10.070954,-5.737392,-0.286748,0.146487,0.431037
317,98.023957,-10.131991,-4.455634,-0.190188,0.458991,0.439216
318,49.134051,-14.587625,4.394598,-0.183230,0.393927,0.708263
319,71.351186,-9.399557,3.234913,-0.162234,0.378546,1.031876
320,117.128252,-0.915541,-1.525902,-0.161868,0.464851,1.117937
321,128.969253,-0.305180,-1.220722,-0.174563,0.467414,1.226947
322,149.416342,3.723201,-1.464866,-0.190555,0.403204,1.433494
323,184.206912,12.756542,-1.464866,-0.190921,0.332891,1.479515
324,211.551080,22.766461,-0.427253,-0.173953,0.236820,1.415671
325,234.927901,31.494621,2.014191,-0.151614,0.133059,1.320943
326,255.802243,37.598230,3.784237,-0.100954,0.030274,1.204974
327,270.634012,42.481117,5.493248,-0.030518,-0.041505,1.055680
328,277.775235,42.969406,5.798428,0.069947,-0.084962,0.901747
329,281.010147,37.415122,2.929732,0.198734,-0.056641,0.890272
330,277.470054,30.762188,-4.089418,0.306767,-0.018433,1.108904
331,276.432441,29.297322,-14.526589,0.338994,-0.042847,1.341329
332,280.399786,34.546426,-26.306554,0.319829,-0.114992,1.494163
333,284.489204,41.809720,-37.109941,0.288701,-0.255741,1.506249
334,285.221637,52.063783,-44.373236,0.238285,-0.343389,1.510033
335,282.780194,57.618067,-48.889906,0.188968,-0.382696,1.484520
336,278.507668,59.876402,-54.383154,0.202396,-0.418585,1.358785
337,263.920043,66.712444,-59.327077,0.209110,-0.422980,1.193744
338,235.538262,74.341955,-63.111315,0.188479,-0.368536,1.470237
339,208.438239,76.600290,-65.186542,0.105226,-0.419074,1.993072
340,206.424048,73.975738,-67.627985,0.024537,-0.523201,1.999969
341,227.786679,79.591058,-69.214923,0.013672,-0.675181,1.999969
342,245.792325,90.333410,-70.008392,0.004028,-0.695811,1.999969
343,234.744793,95.887694,-67.383841,0.013184,-0.744640,1.999969
344,227.542535,99.183642,-63.904784,0.061646,-0.829969,1.999969
345,228.641184,103.456168,-59.571221,0.107057,-0.893202,1.999969
346,226.138705,104.859998,-53.284504,0.186282,-0.994034,1.902617
347,220.340276,100.587472,-45.227741,0.231083,-1.131487,1.786282
348,214.541848,87.647822,-36.316472,0.273808,-1.309224,1.670924
349,206.301976,73.426413,-28.381781,0.359503,-1.572534,1.728908
350,194.705119,63.843748,-17.029068,0.490120,-2.000031,1.583642
351,175.051499,56.153201,-15.197986,0.666880,-2.000031,1.347677
352,166.262303,59.205005,-24.292363,0.675547,-2.000031,0.690440
353,172.182803,75.257496,-33.752956,0.464240,-2.000031,-0.362432
354,127.382315,74.769207,-17.334249,0.118654,-2.000031,-1.242817
355,17.578393,25.513085,26.245518,-0.184817,-2.000031,-1.136858
356,-61.585412,-44.983597,76.112001,-0.275273,-1.884550,-0.045167
357,-82.642863,-86.793317,113.588159,-0.192630,-1.385153,1.125261
358,-65.857939,-85.877775,130.983444,0.520638,-0.628794,-0.651133
359,-182.803082,-44.495308,23.620966,1.459007,-0.404181,0.538582
360,-147.158007,-43.274586,34.668498,0.102907,0.180667,0.080690
361,-110.353246,-83.314260,29.541466,0.336919,1.472313,0.454719
362,-247.196155,-103.639277,31.250477,0.087282,0.680308,0.568124
363,-360.051881,-65.125505,58.716716,0.090822,-0.602182,0.417121
364,-315.800717,-66.956588,52.796216,0.526375,-0.701671,1.918364
365,-268.070497,-25.940337,36.743725,0.965225,-0.036988,1.999969
366,-213.015946,19.775692,17.883574,0.406256,-0.479866,1.999969
367,-151.491569,-24.780652,16.906996,-0.807385,-0.324834,1.999969
368,-109.620813,-47.669184,44.983597,-0.984634,-0.564218,1.533959
369,-42.786297,-91.737240,42.664225,0.508553,0.276249,1.768093
370,-70.862898,-64.454108,31.433585,1.312032,0.209964,1.839872
371,-44.922560,-7.995727,13.427939,-0.016602,0.072633,1.403342
372,-52.491035,-20.386053,16.357671,-0.512093,-0.059815,1.035660
373,-38.391699,-40.466926,12.878614,0.379889,0.145632,1.294575
374,-44.495308,-17.151141,4.577707,0.299931,0.073732,1.337667
375,-42.298009,-4.821851,4.211490,-0.190066,-0.074952,1.130022
376,-23.315785,-10.864424,3.479057,0.052979,0.006226,1.272358
377,-15.442130,-2.380407,2.868696,0.069947,0.024781,1.080705
378,-17.273213,2.014191,3.906310,-0.039918,0.019654,1.037858
379,-15.075914,2.441444,3.601129,0.025513,0.028931,1.053849
380,-13.427939,5.493248,2.990768,0.017700,0.031739,1.019303
381,-15.686275,6.652934,3.784237,-0.015015,0.010132,1.032120
382,-11.718929,6.775006,3.234913,-0.011231,0.005737,1.038224
383,-10.803388,6.408789,3.234913,-0.025269,0.022461,1.017350
384,-9.521630,4.821851,2.563516,-0.038819,0.024659,0.972183
385,-11.291676,2.136263,2.075227,-0.046632,0.021851,0.974502
386,-12.024109,-0.793469,1.647974,-0.049073,0.000977,1.002701
387,-8.850233,-2.807660,0.976577,-0.027710,0.006714,0.991592
388,-8.728161,-4.394598,0.488289,-0.033448,0.013306,0.972549
389,-10.009918,-6.408789,0.366217,-0.038697,0.015015,0.974502
390,-10.864424,-6.652934,-0.854505,0.013550,0.051148,0.982925
391,-7.995727,-8.239872,-0.671397,-0.042237,-0.005737,0.970840
392,-15.686275,-11.841001,0.427253,-0.019409,-0.010620,0.932021
393,-15.014878,-12.329290,-0.244144,-0.023194,-0.009277,1.026627
394,-12.695506,-10.681315,-1.831083,-0.010254,0.100710,1.187152
395,-10.070954,-9.338521,-1.647974,-0.015869,-0.041749,1.035782
396,-14.892805,-10.070954,-0.305180,0.015381,-0.036011,0.978531
397,-10.070954,-7.751583,-0.427253,0.001831,-0.014771,1.022721
398,-10.742351,-6.408789,0.305180,-0.002930,-0.016236,1.013565
399,-11.779965,-4.943923,0.427253,-0.043702,0.092531,1.271015
400,-7.141222,-3.295949,0.915541,-0.020264,-0.036500,1.083024
401,-10.864424,-5.004959,1.709010,0.009155,-0.043336,0.986343
402,-6.713970,-4.089418,1.342794,-0.002686,-0.017212,1.014298
403,-6.530861,-4.211490,1.342794,-0.004028,-0.001587,0.994400
404,-9.948882,-4.699779,1.586938,-0.004028,-0.004883,0.945449
405,-12.634470,-5.981537,1.709010,0.001709,-0.025635,0.918837
406,-17.761501,-7.934691,2.685588,0.008301,-0.023560,0.958511
407,-20.202945,-9.216449,2.380407,-0.019409,-0.020508,0.968765
408,-21.728847,-10.681315,2.502480,0.002441,-0.025147,1.002579
409,-22.522316,-9.338521,2.258335,0.029664,-0.042481,1.010636
410,-20.996414,-7.385367,2.197299,0.013794,-0.050782,1.041154
411,-18.982223,-6.652934,2.746624,0.009400,-0.040040,0.971084
412,-22.461280,-6.713970,3.234913,0.006470,-0.010498,0.963760
413,-27.161059,-7.019150,3.356985,0.010864,-0.003540,0.972183
414,-27.954528,-7.263294,2.441444,0.010986,-0.006226,0.973037
415,-32.715343,-7.507439,1.525902,-0.006104,0.000977,0.972671
416,-35.767147,-6.469825,1.586938,0.029297,-0.009155,0.950210
417,-44.739452,-7.507439,2.563516,-0.022217,-0.083253,0.892348
418,-41.382467,-8.117800,5.004959,-0.007080,-0.082887,0.902480
419,-48.096437,-7.873655,7.812619,0.039796,-0.069459,1.023697
420,-51.819638,-3.601129,8.911269,0.040162,-0.124025,1.108782
421,-37.903410,1.647974,5.615320,-0.004883,-0.099001,1.043473
422,-33.325704,2.136263,1.098650,-0.046143,-0.065187,1.002823
423,-31.494621,0.671397,1.647974,-0.067262,0.015625,1.001602
424,-31.982910,1.159686,-12.329290,0.012329,-0.135622,0.965957
425,-59.021897,7.507439,-33.020523,-0.054932,0.113039,1.011246
426,-84.107729,12.573434,-54.016938,0.022461,-0.241093,1.113176
427,-62.378882,4.882887,-35.706111,0.169924,-0.461311,1.097673
428,-29.114214,-8.667124,-8.728161,0.060426,-0.127077,1.089128
429,-41.931792,-6.775006,-18.982223,0.033692,0.062501,0.949722
430,-63.111315,0.183108,-30.029755,0.072755,0.229984,0.834119
431,-108.522164,-0.854505,-30.701152,0.077516,0.216678,0.993912
432,-150.759136,-5.981537,-18.554971,-0.080690,0.257450,0.603159
433,-225.162127,-6.286717,4.577707,0.084840,1.262470,1.188495
434,-419.073777,-8.789197,-38.574807,0.101930,1.372580,1.294575
435,-725.291829,-6.042573,-18.127718,-0.191653,0.670665,1.999969
436,-842.664225,-52.368963,50.659953,-0.082521,-0.093996,1.579248
437,-960.830091,-24.170291,85.023270,0.515999,0.164675,1.150286
438,-1175.432975,3.601129,178.286412,-1.738674,-0.407233,1.999969
439,-402.105745,-15.381094,30.518044,-1.980987,-2.000031,1.999969
440,354.375525,5.798428,-23.437858,-0.994888,1.225849,1.999969
441,386.297398,-3.723201,-12.390326,-1.458885,1.099138,1.407126
442,87.037461,-13.000687,13.305867,-0.577279,0.417609,0.008911
443,-38.391699,-56.336309,124.940871,-0.167605,0.316533,-0.761730
444,-69.642176,-80.811780,95.521477,0.127810,0.228031,0.374151
445,71.717403,-50.720989,56.580453,0.165652,0.392828,0.682139
446,78.736553,-43.762875,36.865797,0.261479,0.728527,0.757580
447,61.768521,-36.194400,26.001373,0.201053,0.552255,0.923964
448,116.517891,-28.747997,5.554284,0.146242,0.560555,0.893812
449,140.688182,-32.593271,-7.019150,0.010498,0.567636,0.752453
450,147.341115,-45.654994,-12.634470,-0.051026,0.454963,0.847181
451,173.525597,-50.782025,-19.348440,-0.097292,0.401617,0.953872
452,192.507820,-47.852293,-24.414435,-0.141115,0.355352,1.076310
453,207.034409,-37.537194,-27.954528,-0.177371,0.277226,1.286885
454,229.129473,-20.630198,-30.518044,-0.250980,0.177371,1.389303
455,251.773861,-4.699779,-29.053178,-0.317998,0.086427,1.381491
456,269.840543,6.347753,-23.682002,-0.355108,-0.023072,1.224506
457,283.939879,11.718929,-15.381094,-0.321050,-0.090700,0.990249
458,286.991684,10.498207,-8.728161,-0.226810,-0.127687,0.802625
459,279.667353,8.361944,-5.737392,-0.082033,-0.171511,0.658824
460,263.614862,13.855192,-10.315099,0.136965,-0.222660,0.713512
461,243.961242,30.151827,-20.141909,0.253422,-0.195926,1.004776
462,228.152895,41.626612,-32.227054,0.227298,-0.191775,1.457053
463,232.425422,44.861524,-43.091478,0.178470,-0.192020,1.683375
464,241.336690,49.439231,-49.866484,0.067506,-0.217655,1.896513
465,239.383536,50.782025,-48.950942,-0.040894,-0.336919,1.999969
466,247.074083,49.683375,-44.739452,-0.075196,-0.479622,1.999969
467,256.534676,52.613108,-40.955215,-0.059449,-0.529061,1.975006
468,249.454490,53.589685,-36.316472,-0.118776,-0.558846,1.999969
469,251.285573,50.782025,-30.334936,-0.078248,-0.619760,1.999969
470,261.905852,50.293736,-27.893492,-0.029786,-0.668345,1.999969
471,263.187610,48.462654,-27.038987,0.025635,-0.685313,1.999969
472,265.140764,46.204318,-28.076600,0.101930,-0.684092,1.999969
473,266.300450,45.044633,-33.997101,0.220340,-0.615488,1.999969
474,260.563058,49.866484,-42.847333,0.312627,-0.655039,1.999969
475,267.154955,60.059510,-53.223468,0.336309,-0.749767,1.999969
476,270.817121,69.275959,-62.806134,0.289555,-0.912123,1.893584
477,261.661707,75.440604,-65.796902,0.206790,-1.141253,1.573144
478,244.266423,78.736553,-61.707485,0.110597,-1.421775,1.287984
479,219.119554,78.858625,-52.063783,0.071901,-1.706691,1.018570
480,187.380789,80.933852,-41.260395,0.155886,-2.000031,0.828138
481,145.876249,87.464714,-33.691920,0.346807,-2.000031,0.670420
482,99.732967,99.244678,-33.875029,0.427619,-2.000031,0.643320
483,73.609522,113.282979,-32.898451,0.367193,-2.000031,0.272099
484,58.350500,100.587472,-20.996414,0.190921,-2.000031,-0.204715
485,6.469825,48.767834,7.141222,0.052491,-2.000031,-0.366217
486,-47.180896,-24.963760,39.734493,0.065064,-1.778592,0.019898
487,-73.426413,-81.788357,61.341268,-0.002564,-1.378927,0.628916
488,-180.666819,-165.529870,34.668498,0.565927,-1.065690,0.023194
489,-158.327611,-139.101244,54.810407,0.407477,0.279179,1.999969
490,-123.476005,-68.970779,38.391699,0.033570,0.880751,1.921294
491,-105.043107,-58.777752,20.569162,-0.363653,0.789197,0.391241
492,-236.087587,-95.460441,53.101396,-0.448371,0.764782,0.032593
493,-308.476387,-71.900511,69.275959,0.234134,-0.321660,0.230961
494,-335.393301,-55.359731,72.816052,1.084001,-0.063233,1.999969
495,-280.888075,-25.024796,48.340581,1.562280,-0.281376,1.999969
496,-149.660487,16.479744,-2.197299,0.947524,-0.233646,1.999969
497,-136.720836,30.090791,-4.821851,-0.960342,0.083742,1.999969
498,-149.660487,-15.503166,33.875029,-1.822660,-0.858778,1.503075
499,-68.116274,-84.168765,48.340581,-0.593027,-0.275761,0.722789
500,-91.248951,-126.649882,56.763561,1.038102,0.514778,1.993194
501,-82.948043,-85.633631,29.114214,1.170672,0.061402,1.999969
502,-47.302968,-41.260395,10.864424,-0.316289,-0.058717,1.474876
503,-47.058824,-66.224155,15.197986,-0.279301,0.102663,0.955093
504,-51.270314,-68.665599,2.990768,0.663828,0.215457,1.670192
505,-54.261082,-30.579080,2.380407,0.151369,-0.086915,1.289937
506,-29.541466,-24.963760,0.366217,-0.180056,-0.000977,1.098772
507,-31.372549,-26.367590,-1.525902,0.305547,0.051881,1.267964
508,-23.620966,-8.422980,-1.831083,0.035889,0.002075,1.035538
509,-25.391012,-4.211490,0.122072,0.058839,0.053468,1.095476
510,-23.559930,1.953155,0.000000,0.106447,0.002075,1.000015
511,-21.911955,5.188067,3.112840,0.018555,0.012329,1.038224
512,-20.447089,5.188067,4.089418,0.018921,0.021118,1.008438
513,-19.409476,4.699779,3.723201,0.019409,0.030762,1.006973
514,-19.897765,4.333562,2.380407,0.018067,0.012573,0.970352
515,-18.616007,4.516670,3.662165,0.008423,0.046876,1.011978
516,-19.470512,4.089418,3.479057,0.004639,0.032471,0.995254
517,-19.531548,4.272526,2.990768,0.011719,0.014282,1.029435
518,-16.601816,4.882887,2.807660,0.008667,-0.000244,1.046403
519,-13.733120,4.821851,2.990768,0.003174,-0.000977,1.017838
520,-10.986496,4.150454,2.868696,0.007446,0.000122,1.015152
521,-9.765774,3.295949,2.685588,-0.003906,0.011475,1.011124
522,-9.460594,1.953155,2.136263,0.001953,0.000732,1.019791
523,-7.629511,0.854505,1.403830,-0.001221,0.006592,0.993057
524,-7.324331,-0.183108,0.671397,0.003540,0.009522,0.988296
525,-8.484016,-1.159686,0.488289,0.012696,-0.008057,0.989883
526,-5.188067,-1.647974,0.244144,-0.006226,0.069947,1.018692
527,-5.493248,-1.098650,0.915541,-0.005005,0.003906,0.972549
528,-6.836042,-1.709010,1.464866,-0.000732,-0.002075,1.007218
529,-6.286717,-2.929732,1.403830,-0.006836,-0.018189,0.979141
530,-5.493248,-4.211490,1.770047,0.014527,-0.008301,0.990982
531,-3.662165,-4.882887,0.976577,-0.004028,-0.017700,0.947280
532,-5.004959,-7.202258,0.793469,0.011231,0.044434,1.022232
533,-5.004959,-8.178836,0.732433,0.024659,0.045045,1.011978
534,-4.211490,-8.667124,0.000000,-0.034791,0.087282,1.063493
535,-4.760815,-10.009918,0.854505,0.055543,-0.015869,0.934096
536,-7.690547,-9.582666,0.183108,-0.013062,0.021851,0.956802
537,-10.925460,-11.108568,0.854505,0.026001,0.027710,0.972915
538,-13.855192,-11.841001,1.159686,0.001221,0.010376,0.970596
539,-17.883574,-12.451362,1.342794,0.033448,-0.000488,0.986587
540,-19.531548,-12.085145,0.732433,0.005371,0.009644,0.975723
541,-20.447089,-13.305867,0.061036,0.019776,0.015137,0.968032
542,-25.207904,-13.366903,-0.610361,0.021241,-0.001343,0.982803
543,-28.076600,-13.061723,-1.281758,0.035401,-0.021363,0.991348
544,-28.870069,-13.061723,-1.159686,0.036500,0.012451,0.974258
545,-34.119173,-12.695506,0.671397,0.055665,0.034913,0.953140
546,-43.823911,-12.817578,0.854505,0.017945,-0.040162,0.992081
547,-42.298009,-13.305867,2.502480,0.050904,-0.061646,1.022721
548,-36.804761,-11.657893,5.798428,0.051881,-0.044800,1.089738
549,-36.133364,-6.652934,8.300908,0.140505,-0.015259,1.046647
550,-55.359731,0.244144,11.596857,0.043824,-0.059083,1.042496
551,-48.035401,0.610361,9.399557,0.003174,-0.027588,1.010391
552,-43.640803,1.281758,2.075227,0.057008,-0.007202,0.942397
553,-58.167391,-1.342794,-0.732433,-0.057374,-0.015015,1.005142
554,-60.303655,-8.361944,-9.033341,-0.037110,-0.032837,1.063615
555,-59.082933,-5.676356,-22.827497,-0.016724,-0.013062,0.973281
556,-90.699626,2.380407,-42.603189,0.044312,-0.153323,1.029191
557,-99.183642,8.178836,-42.786297,0.147219,-0.358526,1.087175
558,-64.820325,-0.549325,-20.813306,0.140627,-0.381353,1.105364
559,-36.560616,-2.746624,-6.530861,0.133303,-0.152346,1.072770
560,-51.148241,6.775006,-9.704738,0.059449,0.195438,0.960342
561,-88.746471,10.803388,-15.442130,0.222049,0.173098,1.038712
562,-136.598764,28.503853,-9.033341,0.078737,0.278569,0.730846
563,-156.130312,11.779965,-5.004959,-0.201785,0.252934,0.788952
564,-188.784619,-17.029068,-0.671397,0.108766,1.161151,0.980484
565,-454.291600,2.502480,-42.298009,0.582406,0.965347,1.245136
566,-725.291829,-18.127718,6.713970,-0.464240,0.137697,1.959014
567,-811.230640,-84.718090,84.962234,-0.159304,0.091554,1.511376
568,-915.114061,-79.407950,98.756390,0.355474,0.186282,1.024063
569,-1144.243534,-88.685435,180.972000,-0.508431,-1.120989,1.999969
570,-422.919051,-45.349813,76.600290,-1.311177,-1.098894,1.999969
571,329.716945,5.371176,-53.040360,-0.368658,1.094743,1.999969
572,377.752346,16.296635,-48.706798,-0.762341,1.377462,1.929717
573,124.025330,0.671397,-52.491035,-0.511360,0.731090,0.843030
574,-1.770047,-49.011978,48.950942,-0.255863,0.367926,-0.403449
575,-38.025483,-71.595331,42.359045,0.008667,0.395514,0.161501
576,66.163119,-44.373236,4.821851,-0.050660,0.265873,0.500984
577,91.371023,-23.804074,-10.925460,0.080690,0.565682,0.500252
578,49.561303,-9.948882,-16.601816,0.043824,0.511238,0.846448
579,80.079347,5.432212,-28.931106,-0.016846,0.468391,1.022721
580,118.348974,11.413748,-39.307240,-0.061402,0.533333,0.991592
581,125.734340,7.934691,-41.138323,-0.125856,0.496345,1.188006
582,154.787518,6.225681,-40.955215,-0.158083,0.415412,1.412619
583,197.146563,5.798428,-40.100710,-0.162234,0.374151,1.430320
584,225.589380,6.225681,-37.537194,-0.114260,0.297002,1.449851
585,252.323186,12.085145,-36.743725,-0.059205,0.170901,1.312764
586,276.554513,21.972992,-38.452735,-0.004517,0.076417,1.127825
587,284.794385,29.175250,-39.246204,0.048707,0.010864,1.017105
588,290.470741,30.579080,-40.955215,0.084596,-0.028931,0.971450
589,295.902953,25.207904,-43.884947,0.156863,-0.021851,0.943862
590,294.499123,16.174563,-48.950942,0.202518,-0.022950,1.011124
591,290.714885,13.061723,-57.495995,0.272099,-0.062989,1.111955
592,284.367132,25.574121,-71.168078,0.288823,-0.169436,1.154925
593,272.831312,50.598917,-83.009079,0.233890,-0.266484,1.268452
594,260.868238,72.388800,-89.234760,0.126345,-0.321294,1.416526
595,257.511254,84.168765,-91.981384,0.104982,-0.290410,1.554345
596,252.384222,92.408637,-90.516518,-0.038575,-0.271122,1.811429
597,241.580835,103.395132,-81.910430,-0.150149,-0.364141,1.999969
598,241.947051,115.297169,-66.773480,-0.216922,-0.468147,1.999969
599,252.384222,112.733654,-50.354772,-0.187503,-0.550179,1.999969
600,272.281987,105.104143,-35.034714,-0.075807,-0.600229,1.999969
601,295.902953,95.887694,-25.085832,0.058228,-0.658457,1.999969
602,320.866712,94.789044,-22.339208,0.177981,-0.747814,1.999969
603,328.313115,100.587472,-23.804074,0.266972,-0.849256,1.999969
604,320.317388,109.925994,-25.146868,0.602060,-0.798596,1.782498
605,295.902953,115.297169,-33.508812,0.567025,-0.881971,1.811307
606,274.174105,104.798962,-30.457008,0.417121,-1.104631,1.916289
607,266.788739,86.915389,-18.066682,0.178714,-1.451560,1.822660
608,249.515526,67.078660,2.502480,0.002319,-2.000031,1.464256
609,205.691615,59.021897,22.888533,0.125368,-2.000031,0.966934
610,147.585260,78.614481,18.127718,0.589364,-2.000031,0.578134
611,108.461128,138.796063,-17.273213,0.907118,-2.000031,-0.165896
612,100.282292,170.351720,-31.616693,0.660533,-2.000031,-1.187152
613,0.793469,91.371023,-5.981537,0.221683,-2.000031,-1.116594
614,-109.315633,-42.053864,58.472572,-0.007568,-2.000031,0.183719
615,-112.245365,-123.842222,96.498054,0.074220,-1.328634,1.448631
616,-160.891127,-174.807355,42.908370,1.065324,-0.852918,1.240375
617,-127.199207,-66.651408,48.035401,-0.021729,0.149050,1.610010
618,-129.091325,-63.233387,48.889906,-0.534188,0.696910,1.274678
619,-133.607996,-97.352560,42.847333,-0.819471,1.048112,1.095598
620,-230.350195,-89.784085,80.384527,-0.217411,0.119753,-0.268070
621,-303.105211,-59.021897,97.474632,0.444587,-0.357671,-0.223270
622,-330.205234,-52.857252,100.465400,1.444846,-0.039307,1.999969
623,-292.118715,-18.616007,65.369650,1.941924,-0.164431,1.999969
624,-158.999008,13.122759,5.432212,1.351095,-0.231815,1.999969
625,-120.241093,39.002060,-22.827497,-0.168093,-0.037232,1.999969
626,-137.941558,20.874342,8.606088,-1.763210,-0.453986,1.999969
627,-80.872816,-41.870756,44.800488,-1.160540,-0.349981,0.848035
628,-68.482490,-88.197147,49.805447,0.334722,0.260014,0.908949
629,-90.333410,-94.605936,37.720302,1.236957,0.233280,1.999969
630,-58.472572,-49.134051,19.897765,0.136233,-0.143191,1.604273
631,-39.368276,-50.904097,16.174563,-0.603647,0.240360,1.168597
632,-51.453422,-77.393759,14.648661,0.351202,0.208499,1.212421
633,-56.031128,-46.692607,3.784237,0.600717,0.066896,1.467185
634,-48.401617,-22.034028,3.479057,-0.181643,-0.053712,1.037736
635,-40.161746,-33.752956,1.892119,0.005493,0.065919,1.196185
636,-39.307240,-25.146868,-3.845274,0.259892,-0.083253,1.108171
637,-26.184482,-13.977264,-0.732433,0.016358,0.030396,1.096086
638,-27.649348,-12.695506,1.037613,0.017700,0.055177,1.111345
639,-22.461280,-8.667124,2.258335,0.107790,0.068482,1.024308
640,-24.292363,-2.258335,2.563516,0.047242,0.034546,1.073259
641,-21.789883,0.366217,3.234913,0.032227,-0.012451,1.086198
642,-19.165332,2.929732,3.356985,-0.008423,0.106569,1.182635
643,-18.616007,4.272526,4.455634,0.036255,0.037842,0.985977
644,-21.118486,4.516670,4.089418,0.013794,-0.006226,0.998672
645,-17.700465,3.845274,3.112840,-0.003296,-0.005493,1.011978
646,-16.723888,2.624552,2.929732,0.023560,-0.011231,1.025528
647,-13.611048,2.441444,2.685588,0.012085,0.007935,1.046647
648,-11.230640,2.014191,2.746624,0.011597,0.001831,1.019791
649,-9.582666,2.380407,1.342794,0.075929,-0.057496,0.842664
650,-9.460594,-0.061036,1.647974,0.008545,-0.007080,1.038468
651,-10.376135,-2.502480,2.258335,-0.001587,-0.016846,0.972549
652,-10.070954,-3.845274,1.770047,0.016358,-0.007813,0.988540
653,-9.094377,-4.211490,1.342794,0.010254,0.009033,1.013565
654,-10.986496,-5.249104,1.831083,0.022461,-0.004028,1.011246
655,-7.690547,-4.150454,1.159686,0.035645,-0.070314,0.990249
656,-8.300908,-3.967346,1.770047,0.025391,0.030030,1.000870
657,-8.178836,-5.127031,2.014191,-0.002564,0.050538,0.994644
658,-10.559243,-7.507439,2.197299,0.023072,-0.044190,0.952651
659,-12.207218,-8.178836,2.014191,0.020386,0.000366,1.018204
660,-11.413748,-7.690547,2.014191,0.041260,-0.031250,0.983902
661,-10.559243,-7.080186,1.586938,0.033570,-0.035523,0.988052
662,-8.911269,-6.652934,1.159686,0.033326,-0.012940,0.976822
663,-10.131991,-6.958114,0.854505,0.018677,-0.020996,0.965347
664,-13.244831,-7.568475,1.403830,0.029419,-0.011597,0.988663
665,-14.160372,-7.690547,1.342794,0.019165,-0.009277,0.975479
666,-16.662852,-8.239872,1.586938,0.012451,-0.012573,0.974990
667,-20.080873,-9.033341,1.220722,0.023926,0.003418,0.933242
668,-24.475471,-10.131991,0.854505,0.026490,-0.003784,0.960098
669,-26.611734,-10.742351,0.549325,0.036744,-0.019409,0.971206
670,-29.297322,-10.498207,0.305180,0.043946,-0.026978,0.969131
671,-31.677729,-10.498207,1.647974,0.051881,-0.023682,0.970962
672,-33.203632,-10.742351,2.441444,0.089601,0.003662,1.020890
673,-39.124132,-9.948882,0.854505,0.070069,-0.053223,1.110857
674,-38.208591,-4.577707,0.427253,0.046754,-0.090700,0.982071
675,-34.119173,-2.868696,0.671397,0.055543,-0.047852,0.966812
676,-41.321431,0.610361,5.371176,0.105348,-0.005493,1.002823
677,-61.890593,2.258335,9.704738,0.014893,-0.071778,1.003189
678,-46.997787,2.807660,6.469825,0.037598,-0.060548,1.018326
679,-48.645762,3.601129,1.892119,0.032715,-0.042847,0.912367
680,-59.876402,-0.854505,-1.647974,-0.059937,-0.041138,1.020523
681,-63.050278,-1.220722,-12.512398,-0.008789,-0.099611,1.031754
682,-70.191501,6.286717,-34.180209,-0.018799,-0.111208,1.030167
683,-71.534295,2.929732,-48.401617,0.076905,-0.324834,0.982681
684,-39.856565,-5.432212,-27.038987,0.222293,-0.280034,0.963638
685,-23.865110,-5.615320,-3.051804,0.145388,-0.172122,1.231098
686,-38.696880,3.601129,-4.272526,0.054688,0.096925,0.959365
687,-69.092851,12.939651,-19.043259,0.183597,0.093019,1.004898
688,-108.522164,28.442817,-15.930419,0.067506,0.325322,0.917006
689,-179.140917,32.043946,-28.137636,-0.083864,0.635630,0.440681
690,-176.943618,-21.789883,-1.709010,-0.244999,0.511727,0.973648
691,-326.420996,-42.725261,-11.413748,-0.207034,1.071916,1.767971
692,-589.059281,-47.730220,-17.822538,-0.288701,0.240726,1.453635
693,-744.823377,-118.410010,39.063096,-0.288334,0.080323,1.398337
694,-859.082933,-134.462501,63.416495,0.240604,0.182254,1.217792
695,-945.937285,-131.044480,72.877089,0.785657,-1.359762,1.999969
696,-1098.832685,-115.663386,202.639811,-0.592416,-0.187747,1.999969
697,-109.315633,-48.889906,-44.190127,-0.056764,-1.618311,1.999969
698,419.317922,30.212863,-80.445563,-0.130007,0.769177,1.999969
699,309.941253,28.137636,-90.821698,-0.047120,1.321187,0.865248
700,102.723735,-11.963073,-48.279545,-0.645151,0.380987,0.209720
701,-13.794156,-68.543526,25.452049,-0.279667,0.271977,-0.329961
702,1.098650,-66.407263,15.320058,-0.175540,0.035889,0.108644
703,100.038148,-40.161746,-7.446403,-0.261112,0.281254,0.545541
704,101.991302,-19.531548,-8.606088,-0.178836,0.490364,0.582040
705,72.755016,-9.033341,-7.812619,-0.239506,0.368292,0.845472
706,104.859998,1.586938,-10.742351,-0.271122,0.342535,1.036515
707,137.758450,6.042573,-12.024109,-0.288579,0.396979,1.105852
708,150.087739,4.028382,-8.667124,-0.280522,0.382330,1.266621
709,178.652628,8.484016,-7.385367,-0.260380,0.330327,1.438621
710,211.734188,18.860151,-6.775006,-0.239139,0.264775,1.444480
711,236.331731,29.114214,-4.150454,-0.227054,0.169680,1.370748
712,257.511254,33.997101,-0.305180,-0.179446,0.077394,1.284688
713,277.653162,33.386740,2.868696,-0.118776,0.019409,1.285542
714,292.423896,32.898451,4.577707,-0.005859,-0.038819,1.241352
715,304.081788,35.461967,2.685588,0.119753,-0.059815,1.182269
716,309.452964,37.659266,-3.479057,0.238041,-0.063844,1.161028
717,309.819181,39.795529,-13.305867,0.323247,-0.117067,1.039078
718,302.555886,44.373236,-27.649348,0.371466,-0.261967,0.795056
719,280.094606,58.899825,-43.152514,0.432258,-0.420661,0.662364
720,250.186923,78.431373,-55.664912,0.468147,-0.315801,1.051408
721,225.711452,82.032502,-68.299382,0.439094,-0.212284,1.591333
722,231.265736,83.131151,-80.506600,0.359991,-0.195315,1.999969
723,244.083314,93.507286,-86.305028,0.252811,-0.318242,1.999969
724,256.168460,104.005493,-82.887007,0.034791,-0.531258,1.999969
725,265.262837,100.343328,-70.252537,-0.125612,-0.636118,1.999969
726,265.079728,86.366064,-50.720989,-0.163210,-0.657115,1.999969
727,276.493477,73.243305,-31.433585,-0.125856,-0.704234,1.999969
728,309.758145,73.182269,-15.869383,-0.054688,-0.836194,1.999969
729,330.144198,82.093538,-3.234913,0.114870,-0.901503,1.972930
730,314.030671,85.023270,7.934691,0.357061,-0.862318,1.720851
731,291.691463,75.684749,14.526589,0.336431,-0.921035,1.859892
732,284.855421,62.439918,19.714656,0.285405,-1.053727,1.916167
733,278.263523,55.298695,22.888533,0.201419,-1.271015,1.770535
734,260.502022,57.679103,25.635157,0.119997,-1.585229,1.422873
735,226.443885,65.552758,27.588312,0.204715,-2.000031,1.062028
736,172.854200,71.412222,30.151827,0.681407,-2.000031,0.814221
737,111.879149,89.723049,-4.882887,1.098161,-2.000031,0.758923
738,95.094224,141.420615,-50.537881,1.205219,-2.000031,0.362554
739,88.441291,153.383688,-63.050278,0.957290,-2.000031,-0.620127
740,14.343481,68.482490,-45.227741,0.498787,-2.000031,-0.716075
741,-55.420768,-50.537881,-4.150454,0.147829,-1.985382,0.104372
742,-59.815366,-126.710918,25.146868,-0.037232,-1.158221,0.442023
743,-183.352407,-134.828717,-18.738079,0.804211,-2.000031,-0.305425
744,-204.409857,-91.493095,5.249104,-0.609995,-0.870741,1.184588
745,-132.021057,-43.640803,14.770733,-0.891249,0.868910,1.977203
746,-127.382315,-50.232700,13.733120,-1.051652,0.790295,1.144793
747,-222.293431,-67.811093,58.960861,-0.649180,0.134401,-0.226688
748,-279.362173,-73.975738,83.680476,0.159182,-0.414923,0.020874
749,-318.547341,-48.157473,85.877775,1.223163,-0.112428,1.999969
750,-274.601358,-16.601816,61.402304,1.702785,-0.161868,1.999969
751,-172.060731,4.150454,5.493248,1.449607,-0.095827,1.999969
752,-148.500801,22.278172,-21.484703,-0.229007,-0.085573,1.958282
753,-160.219730,-9.094377,9.399557,-1.990997,-0.841444,1.999969
754,-85.877775,-82.703899,44.434272,-1.191913,-0.573495,0.511604
755,-91.615167,-135.439078,50.110628,1.237568,0.445930,1.999969
756,-73.060197,-80.811780,20.263981,1.686061,0.097292,1.999969
757,-46.936751,-7.141222,9.704738,-0.674327,0.020508,1.296162
758,-49.927520,-46.265354,13.733120,-0.336065,0.047486,1.068864
759,-41.748684,-49.622339,-1.159686,0.676402,0.136110,1.508202
760,-42.420081,-12.939651,0.976577,0.053223,-0.039429,1.198749
761,-33.386740,-14.221408,0.244144,-0.114137,-0.031250,1.177996
762,-13.733120,-16.479744,-3.845274,0.177127,0.124514,1.077287
763,-25.574121,-4.333562,-0.976577,0.024048,-0.009766,1.057145
764,-18.432898,-1.831083,1.220722,0.055299,0.007691,1.096330
765,-14.892805,4.089418,-0.793469,0.087892,0.020996,1.004532
766,-17.578393,8.239872,3.906310,0.070924,-0.005005,1.064958
767,-13.000687,12.146181,4.211490,0.025879,-0.035767,1.047745
768,-12.939651,13.244831,5.798428,0.041016,0.015137,1.037491
769,-10.925460,13.916228,5.371176,0.007446,0.031617,1.001602
770,-12.146181,13.550011,4.943923,-0.001343,0.048096,0.926406
771,-15.381094,11.657893,4.211490,-0.026612,0.056153,0.979629
772,-16.357671,7.995727,4.699779,-0.021241,0.108888,0.987442
773,-14.831769,6.530861,3.662165,-0.016358,0.000977,1.009049
774,-11.902037,5.981537,3.112840,-0.005127,-0.001465,1.036515
775,-10.559243,5.188067,2.990768,-0.016602,-0.011231,0.991714
776,-8.850233,3.967346,2.685588,-0.017578,0.000610,0.995987
777,-8.606088,2.319371,2.380407,-0.017090,0.009155,0.995377
778,-8.911269,0.854505,2.136263,-0.021851,0.007568,0.982559
779,-9.765774,-0.976577,1.342794,-0.026490,0.018189,1.009293
780,-9.704738,-1.586938,0.732433,-0.007080,-0.009033,0.974136
781,-9.277485,-1.464866,0.305180,-0.073121,0.045289,1.118914
782,-8.239872,-2.929732,1.342794,0.028565,0.019776,0.919203
783,-12.756542,-2.502480,1.098650,-0.008301,-0.033692,0.969863
784,-10.742351,-2.258335,1.159686,-0.010010,-0.023926,1.021500
785,-8.972305,-2.380407,0.976577,-0.005249,-0.002319,0.976577
786,-12.695506,-3.662165,1.647974,-0.001099,-0.008545,0.975113
787,-13.855192,-4.516670,1.525902,-0.006348,-0.014893,0.999161
788,-14.526589,-5.249104,1.342794,-0.014527,0.000977,1.009171
789,-12.939651,-6.286717,1.709010,0.044678,0.044312,0.885267
790,-15.442130,-5.065995,0.671397,-0.006226,-0.038453,0.909438
791,-18.799115,-6.103609,1.342794,-0.000122,-0.016724,0.953384
792,-21.911955,-7.080186,1.159686,-0.030396,0.000000,0.953750
793,-26.977951,-7.995727,2.075227,0.019776,-0.011109,0.981949
794,-29.114214,-7.385367,2.380407,-0.022339,-0.034058,1.003799
795,-29.419394,-7.507439,2.807660,0.022217,-0.047364,0.997452
796,-30.823224,-7.141222,2.868696,0.009400,-0.036378,0.999039
797,-30.395972,-6.897078,1.403830,-0.001709,-0.045167,1.011002
798,-28.747997,-7.385367,-0.183108,0.002075,-0.031006,1.000992
799,-29.541466,-7.690547,-2.441444,0.003540,-0.020996,0.991958
800,-33.142596,-8.178836,-3.051804,0.027955,-0.021607,0.926284
801,-41.748684,-7.690547,-1.281758,0.010864,-0.072267,0.985977
802,-40.283818,-6.469825,1.709010,-0.002808,-0.085206,0.992691
803,-39.551385,-4.394598,4.577707,0.071778,-0.128786,1.028214
804,-38.086519,-1.770047,5.432212,-0.012451,-0.094850,1.026383
805,-33.325704,-0.915541,3.662165,0.024414,-0.104982,1.036027
806,-34.180209,0.671397,0.366217,-0.007813,-0.122560,0.936049
807,-33.691920,-0.244144,-1.525902,-0.082521,-0.001831,0.986709
808,-29.602502,-2.563516,-12.634470,-0.026490,-0.195560,0.885634
809,-40.100710,-5.676356,-22.827497,-0.059449,0.018921,0.990127
810,-74.830243,-1.403830,-44.312200,-0.022095,-0.129519,1.024186
811,-79.896239,-4.150454,-37.415122,0.124514,-0.326055,1.059953
812,-56.336309,-14.526589,-13.488975,0.005371,-0.153933,0.908705
813,-62.134737,-14.465553,-24.109255,0.052491,0.053223,1.023819
814,-78.858625,-11.902037,-35.706111,0.200198,0.155886,0.912123
815,-119.203479,-5.127031,-26.245518,0.048096,0.335943,0.755383
816,-158.388647,-4.577707,-30.273899,0.123171,0.437018,0.850111
817,-231.082628,-6.042573,-38.269627,0.034424,0.748302,1.234394
818,-436.835279,-2.624552,-54.505226,0.167117,0.954726,0.967178
819,-664.682994,-13.794156,-7.324331,-0.156985,0.274052,1.904326
820,-751.354238,-54.139010,30.151827,0.121950,0.178103,1.349386
821,-826.977951,-60.364691,15.503166,-0.172000,-0.298222,0.795544
822,-920.180057,-93.934539,43.030442,0.009644,-2.000031,1.999969
823,-822.644389,-43.396658,123.659113,-1.685084,-1.103655,1.999969
824,24.902724,-62.195773,-27.405203,-0.961929,-0.588144,1.999969
825,309.697108,-44.312200,-4.516670,-0.960952,0.820569,1.999969
826,112.123293,-29.968719,12.390326,-0.346197,0.685801,1.710842
827,-35.217823,-80.201419,93.385214,-0.519539,0.631968,1.182391
828,5.981537,-80.140383,94.544900,-0.022339,0.262455,1.222675
829,136.354620,-45.899138,55.359731,0.031128,0.425422,0.666392
830,115.724422,-43.152514,43.579767,0.225956,0.585336,0.550912
831,80.750744,-33.203632,35.217823,0.291264,0.445930,0.796277
832,122.987716,-11.902037,9.826810,0.282597,0.421027,0.876600
833,146.730755,-2.197299,-10.131991,0.243778,0.471565,0.797742
834,146.913863,-3.234913,-21.118486,0.132815,0.367926,0.829847
835,169.863432,-5.493248,-29.907683,0.029053,0.307988,0.902724
836,188.540475,-9.948882,-33.936065,-0.055177,0.292363,1.013443
837,203.006027,-12.634470,-34.058137,-0.113771,0.233280,1.171038
838,226.016632,-8.361944,-34.424353,-0.144289,0.187991,1.253681
839,247.379263,2.868696,-34.790570,-0.158816,0.106081,1.234760
840,262.394141,15.625238,-33.203632,-0.198856,0.016846,1.175677
841,275.028611,23.987182,-29.053178,-0.205814,-0.066407,1.078386
842,284.489204,24.414435,-23.743038,-0.190921,-0.102296,1.012955
843,288.578622,17.456321,-17.761501,-0.112795,-0.075074,1.096086
844,291.264210,11.413748,-15.930419,0.004639,-0.084352,1.216571
845,294.987411,12.390326,-19.226368,0.114992,-0.090089,1.380026
846,297.428855,22.949569,-28.442817,0.198611,-0.159792,1.388205
847,294.621195,41.443503,-39.307240,0.198367,-0.266484,1.356588
848,282.841230,63.050278,-48.645762,0.197391,-0.407477,1.222431
849,270.817121,70.191501,-53.406577,0.184451,-0.432990,1.252338
850,254.581521,57.495995,-54.627298,0.217655,-0.378790,1.369284
851,244.632639,41.443503,-60.181582,0.269047,-0.326299,1.648463
852,234.988937,45.899138,-67.505913,0.257450,-0.306401,1.999969
853,225.650416,62.745098,-72.755016,0.158572,-0.352667,1.999969
854,235.172045,73.548486,-74.464027,0.058228,-0.477913,1.999969
855,267.277028,74.708171,-73.853666,0.037476,-0.621836,1.999969
856,298.832685,73.243305,-75.074388,0.168948,-0.691539,1.999969
857,294.682231,77.698940,-79.530022,0.360845,-0.730236,1.768704
858,273.868925,89.662013,-87.647822,0.476448,-0.742321,1.592187
859,252.994583,102.479591,-96.986343,0.445930,-0.776257,1.628931
860,235.355154,112.672618,-100.892653,0.306035,-0.895521,1.651759
861,219.974060,117.433433,-95.460441,0.091920,-1.105730,1.687160
862,203.555352,112.977798,-80.811780,-0.089967,-1.473411,1.567529
863,187.502861,107.240406,-58.899825,-0.064942,-1.965118,1.391257
864,149.294270,108.644236,-32.776379,0.271611,-2.000031,1.373434
865,82.764935,123.598077,-12.390326,0.542977,-2.000031,1.216815
866,85.084306,159.426261,-11.535821,0.500130,-2.000031,0.429084
867,161.257343,176.516365,-9.399557,0.168704,-2.000031,-0.935805
868,66.895552,108.644236,8.850233,-0.392950,-2.000031,-2.000031
869,-190.127413,-117.555505,107.118334,-0.029175,-2.000031,-2.000031
870,-314.518959,-263.736934,156.496529,1.063127,-1.949981,0.424811
871,-203.311208,-201.907378,93.324178,0.838392,-0.086549,1.999969
872,-101.564050,-99.977111,65.308614,0.017945,0.909560,1.999969
873,-124.818799,-84.046693,82.764935,0.355840,0.553964,0.354986
874,-230.106050,-121.400778,87.769894,1.531762,0.141360,-0.608042
875,-306.889448,-66.285191,69.825284,1.719387,-0.027100,0.733532
876,-329.045548,-46.448463,42.359045,1.756252,0.006348,1.999969
877,-232.608530,8.972305,7.263294,1.094987,-0.505379,1.999969
878,-98.756390,17.944610,-31.616693,-1.136004,-0.083619,1.999969
879,-125.917449,-37.781338,17.517357,-2.000031,-0.828504,1.133074
880,-81.361105,-136.903944,56.763561,-0.592905,-0.147829,0.663218
881,-99.122606,-150.392920,54.077974,1.999969,0.413825,1.999969
882,-80.323491,-44.861524,12.268254,1.345357,-0.140749,1.999969
883,-44.312200,-4.089418,5.615320,-1.194598,0.010254,1.028824
884,-54.871443,-67.505913,15.442130,-0.140383,0.138796,1.150286
885,-39.490349,-57.801175,1.220722,0.854994,0.103883,1.473655
886,-39.185168,-14.404517,-0.427253,-0.057374,-0.066529,1.388693
887,-19.348440,-19.653620,2.441444,-0.092653,-0.077638,1.089372
888,-2.136263,-20.630198,-1.586938,0.116701,0.091920,0.939223
889,-20.935378,-16.968032,1.586938,-0.009522,0.053956,0.947524
890,-18.860151,-16.601816,3.418021,0.077394,-0.005249,1.028580
891,-16.784924,-8.545052,3.906310,0.115358,0.046998,1.112078
892,-17.456321,-2.441444,6.347753,0.055055,0.003662,1.060563
893,-11.657893,-0.061036,6.042573,0.045777,0.020630,1.011002
894,-15.381094,1.342794,6.103609,0.048096,0.052613,0.984390
895,-19.653620,1.281758,5.920500,0.008789,0.032227,1.000259
896,-17.639429,-0.061036,6.042573,0.028199,0.016236,0.989883
897,-14.709697,-1.098650,4.028382,-0.026734,0.046876,0.938979
898,-21.179522,-5.249104,2.868696,-0.024414,0.022950,1.011856
899,-16.357671,-6.897078,1.709010,0.016846,-0.022217,1.029557
900,-11.657893,-5.859464,0.976577,0.034546,0.005982,1.018814
901,-12.695506,-5.676356,1.220722,0.022461,-0.002930,1.014542
902,-10.131991,-5.432212,0.976577,0.021607,0.030518,0.986343
903,-13.611048,-5.554284,1.098650,0.038453,0.032105,0.991958
904,-15.991455,-5.065995,1.098650,0.038453,0.006836,1.004532
905,-15.869383,-5.004959,0.427253,0.033814,-0.010620,0.943252
906,-19.348440,-6.042573,-0.122072,0.034546,-0.016480,0.955581
907,-20.874342,-6.347753,-0.244144,0.018799,-0.022339,0.955947
908,-22.461280,-7.751583,-0.427253,0.026368,0.000855,1.000992
909,-24.292363,-8.239872,-0.244144,0.021363,0.001709,1.011368
910,-25.268940,-8.789197,-0.305180,0.035157,-0.023438,0.970718
911,-25.635157,-8.606088,-0.427253,0.051514,-0.033692,0.985245
912,-26.306554,-8.300908,-0.366217,0.043580,-0.048707,1.003677
913,-23.132677,-7.629511,-0.244144,0.049928,-0.042359,1.007095
914,-22.034028,-7.263294,0.427253,0.053834,-0.038819,1.007462
915,-21.667811,-7.202258,0.915541,0.045045,-0.031983,0.965469
916,-23.620966,-7.751583,0.976577,0.046265,-0.041016,0.961074
917,-24.170291,-9.094377,2.014191,0.052125,-0.033570,1.054582
918,-26.062409,-5.554284,1.098650,0.083375,-0.063111,1.081437
919,-25.085832,-2.624552,1.525902,0.055543,-0.072389,1.051408
920,-22.339208,-1.770047,2.014191,0.064210,-0.059449,1.024674
921,-24.109255,-1.159686,1.770047,0.049683,-0.052247,1.008316
922,-24.353399,-0.915541,0.549325,0.045045,-0.045167,0.994034
923,-31.921874,1.525902,0.305180,0.010742,-0.101198,0.979629
924,-37.842374,0.305180,-1.770047,0.072389,-0.025635,1.052384
925,-42.359045,3.051804,-2.136263,0.023926,-0.082277,0.970596
926,-42.725261,1.770047,-0.793469,0.045045,-0.063722,0.996719
927,-43.884947,2.685588,-1.281758,0.058473,-0.070558,1.002823
928,-48.340581,3.845274,-1.342794,0.032227,-0.089845,0.983536
929,-50.110628,4.089418,0.488289,0.038331,-0.126101,1.102190
930,-41.260395,5.615320,-2.929732,-0.005371,-0.144778,0.965835
931,-32.227054,3.967346,-11.352712,-0.011719,-0.179080,0.985977
932,-28.686961,1.098650,-13.794156,-0.033326,-0.133181,1.058366
933,-39.612421,0.183108,-27.283131,-0.027955,-0.103517,0.958755
934,-44.251164,-3.967346,-34.668498,0.115724,-0.295048,1.021500
935,-23.559930,-6.225681,-21.301595,0.193484,-0.211429,0.996109
936,-18.616007,-4.089418,-4.638743,0.149416,-0.091066,1.141131
937,-50.354772,9.094377,-9.033341,0.130495,0.030152,1.018692
938,-77.882048,20.141909,-14.953841,0.093019,0.133425,0.985245
939,-104.127565,23.865110,-14.343481,-0.048829,0.332525,0.829725
940,-181.216144,17.822538,-23.865110,-0.119875,0.403449,0.650767
941,-176.516365,-32.043946,6.286717,-0.298222,0.128298,0.822034
942,-253.788052,-56.641489,-1.342794,-0.170657,0.838636,1.115740
943,-429.266804,-116.090639,-35.034714,-0.271489,0.097292,1.026139
944,-615.182727,-225.101091,35.217823,-0.463752,0.035889,1.454978
945,-771.313039,-278.446632,77.576867,0.014893,0.174807,1.414694
946,-872.755016,-264.408331,102.662699,0.358038,0.005493,1.188006
947,-1080.216678,-255.985351,168.886854,1.468162,-2.000031,1.999969
948,-529.549096,-68.360418,190.859846,-0.226444,-0.451789,1.999969
949,278.324559,49.134051,-93.507286,0.408942,0.637705,1.999969
950,424.383917,77.271687,-100.160220,-0.173220,1.620508,1.670802
951,221.683070,52.735180,-113.282979,-0.290288,0.763073,0.544320
952,16.052491,-16.296635,-15.625238,-0.520150,0.388312,-0.082521
953,-63.233387,-51.453422,15.991455,-0.308232,0.440925,0.246952
954,21.301595,-25.391012,11.718929,-0.245121,0.264408,0.410163
955,100.709545,-2.563516,-6.286717,-0.107179,0.389776,0.454231
956,73.731594,6.347753,-3.479057,-0.093263,0.482307,0.659556
957,47.730220,5.432212,1.709010,-0.064454,0.403204,1.037613
958,93.995575,10.193027,-1.770047,-0.031617,0.412116,1.275532
959,136.842908,9.155413,-5.981537,0.010620,0.508553,1.390890
960,151.979858,5.676356,-8.300908,0.040040,0.485725,1.497704
961,183.535515,13.550011,-14.648661,0.057862,0.387091,1.522606
962,218.753338,30.579080,-22.583352,0.050172,0.306035,1.414939
963,237.064164,44.373236,-27.527276,0.021241,0.182010,1.298116
964,252.445258,54.993515,-28.992142,-0.007080,0.041871,1.167620
965,268.253605,61.829557,-28.137636,-0.007080,-0.040406,1.068009
966,275.150683,60.608835,-24.902724,0.020874,-0.097292,1.007950
967,278.568704,52.674144,-21.484703,0.092287,-0.094240,1.178485
968,283.695735,43.701839,-20.508125,0.203006,-0.071168,1.389303
969,292.545968,41.870756,-24.536507,0.363409,-0.098634,1.521752
970,300.236515,50.049592,-34.607462,0.426520,-0.230594,1.358175
971,297.611963,63.660639,-45.777066,0.446296,-0.398322,1.102068
972,286.076143,74.708171,-53.406577,0.458503,-0.416266,1.025772
973,266.361486,75.989929,-59.693294,0.439338,-0.394537,1.037736
974,251.590753,69.153887,-66.590372,0.471687,-0.324590,1.213031
975,231.326772,67.322805,-73.121233,0.460945,-0.265385,1.605493
976,213.199054,68.299382,-77.943084,0.436896,-0.303227,1.999969
977,218.753338,70.252537,-83.558404,0.332280,-0.488899,1.999969
978,246.158541,75.196460,-88.258183,0.283085,-0.652476,1.999969
979,258.670939,83.680476,-88.746471,0.221439,-0.703502,1.999969
980,247.745480,84.962234,-84.351873,0.219486,-0.773449,1.999969
981,255.191882,87.037461,-79.285878,0.239506,-0.892836,1.999969
982,274.418250,96.192874,-75.684749,0.257939,-1.013931,1.999969
983,270.634012,105.409323,-65.430686,0.172488,-1.167987,1.794705
984,257.145037,106.324865,-48.889906,0.104738,-1.353414,1.487816
985,240.115969,100.953689,-31.128405,0.075929,-1.502953,1.383444
986,217.410544,95.460441,-12.207218,0.080201,-1.668482,1.328878
987,197.634852,89.051652,3.112840,0.144411,-1.870146,1.292012
988,177.615015,84.168765,17.883574,0.348028,-2.000031,1.166033
989,151.796750,82.154574,18.432898,0.638804,-2.000031,0.909071
990,128.358892,95.460441,2.441444,0.727672,-2.000031,0.573251
991,104.737926,117.250324,-9.704738,0.585092,-2.000031,0.103761
992,56.458381,117.677577,-0.549325,0.316167,-2.000031,-0.210208
993,7.019150,77.454795,21.911955,0.145266,-2.000031,-0.233890
994,-25.574121,9.887846,48.340581,0.152712,-1.590967,0.038209
995,-150.820172,-72.388800,49.988556,0.510140,-2.000031,-1.384909
996,-279.728389,-150.392920,84.779126,0.576913,-0.864637,0.313970
997,-139.650568,-88.563363,53.040360,0.396368,0.415045,1.999969
998,-136.171511,-47.425040,38.269627,0.095216,1.315816,1.421775
999,-285.343709,-92.835889,59.327077,0.265019,0.250858,0.125978
1000,-330.571450,-83.436332,66.651408,0.392096,-0.709606,0.855726
1001,-291.203174,-61.463340,61.280232,0.874891,-0.401617,1.999969
1002,-254.520485,-40.772107,46.509499,1.302998,-0.223270,1.999969
1003,-142.336156,2.868696,14.099336,0.775891,-0.305303,1.999969
1004,-94.361791,1.281758,6.958114,-0.618173,0.172976,1.999969
1005,-120.729381,-26.123445,30.029755,-1.236347,-0.471321,1.222797
1006,-70.313573,-78.492409,32.532235,0.079103,0.066163,1.448753
1007,-85.999847,-84.229801,21.667811,1.214252,0.287236,1.999969
1008,-63.233387,-31.311513,9.399557,0.079713,-0.034668,1.358907
1009,-63.233387,-39.917601,7.629511,-0.512459,-0.061769,1.209735
1010,-58.106355,-62.623026,10.376135,0.292485,0.052979,1.238422
1011,-47.669184,-38.513771,-0.488289,0.422858,0.110964,1.469383
1012,-56.885634,-23.376822,2.319371,-0.029541,-0.111940,1.115618
1013,-24.963760,-25.146868,-1.220722,-0.031006,-0.027466,1.137713
1014,-23.498894,-23.315785,0.976577,0.191897,0.064698,1.141985
1015,-29.175250,-14.221408,0.854505,0.066163,-0.081544,1.069596
1016,-11.841001,-11.474784,1.770047,0.090944,-0.014038,1.064958
1017,-15.808347,-8.361944,2.746624,0.069947,0.006104,1.019181
1018,-15.564202,-6.408789,3.784237,0.043702,0.002930,0.967056
1019,-19.470512,-4.394598,4.028382,0.092042,0.067140,1.021622
1020,-26.245518,-3.112840,4.577707,0.032471,0.007935,1.074846
1021,-15.930419,-1.403830,2.929732,0.028321,0.002197,0.991592
1022,-16.845960,-1.709010,2.929732,0.057984,0.024903,1.015152
1023,-21.179522,-2.380407,2.136263,0.010864,-0.032593,1.041276
1024,-12.146181,-2.807660,1.647974,0.034668,-0.031617,1.040177
1025,-10.620279,-2.868696,0.427253,0.066285,-0.064210,0.943496
1026,-10.986496,-2.014191,0.976577,0.045289,-0.022950,1.058976
1027,-5.981537,-1.403830,1.586938,0.041749,-0.036133,1.002823
1028,-6.713970,-0.976577,1.159686,0.034302,0.028931,1.025284
1029,-6.775006,-0.976577,0.976577,0.054200,-0.055665,0.958022
1030,-6.836042,-1.342794,0.427253,0.025269,-0.002930,0.986831
1031,-9.643702,-2.624552,0.671397,0.042481,0.051514,1.025406
1032,-9.582666,-2.746624,0.671397,0.031739,0.006470,1.011368
1033,-9.582666,-3.173877,0.000000,0.020874,0.032349,0.997940
1034,-14.831769,-4.882887,0.061036,0.037842,-0.018677,0.974746
1035,-14.953841,-5.493248,-0.305180,0.042237,-0.012451,0.994522
1036,-14.282444,-5.249104,-0.732433,0.050294,-0.036378,1.003799
1037,-13.794156,-4.333562,0.000000,0.061280,-0.017334,1.014664
1038,-16.540780,-3.723201,1.037613,0.068116,-0.027710,0.997696
1039,-15.259022,-3.234913,0.976577,0.051514,-0.042603,0.985122
1040,-15.991455,-3.356985,1.159686,0.059327,-0.043214,0.990738
1041,-16.418708,-3.540093,1.403830,0.050660,-0.057862,0.992691
1042,-13.305867,-3.540093,1.709010,0.045655,-0.029908,0.981827
1043,-13.550011,-4.028382,2.197299,0.063600,-0.040406,0.918349
1044,-14.221408,-4.089418,1.586938,0.065431,-0.033082,0.967788
1045,-17.151141,-4.211490,1.892119,0.055909,-0.040528,1.011490
1046,-18.493935,-2.502480,1.098650,0.055543,-0.056031,0.987686
1047,-17.273213,-2.136263,0.671397,0.049317,-0.027955,0.977798
1048,-22.400244,-1.953155,-0.366217,0.060304,-0.014893,1.001358
1049,-30.518044,-1.953155,-1.647974,0.042115,-0.034302,0.992691
1050,-31.982910,-0.061036,-2.685588,0.164431,0.165286,0.901259
1051,-38.879988,0.183108,-4.211490,0.089967,0.018189,0.998062
1052,-34.546426,0.000000,-4.211490,0.037232,-0.056397,0.936538
1053,-40.039673,0.305180,-5.554284,0.053712,-0.017578,0.984512
1054,-44.922560,3.418021,-0.244144,0.096437,-0.047486,1.009415
1055,-63.294423,6.530861,1.770047,0.073121,-0.161990,0.999161
1056,-53.772793,7.202258,7.263294,0.072267,-0.170535,1.086442
1057,-40.711070,10.131991,8.300908,0.045045,-0.167483,1.037125
1058,-30.273899,9.094377,6.469825,-0.006836,-0.072145,1.011124
1059,-28.564889,7.995727,-2.014191,-0.006958,-0.130617,0.974380
1060,-28.137636,8.178836,-4.943923,0.001953,-0.186893,1.029679
1061,-42.298009,8.117800,-27.161059,-0.028565,-0.098512,0.973526
1062,-39.673457,3.662165,-34.729534,0.054444,-0.185916,1.020768
1063,-17.639429,-2.197299,-25.207904,0.129274,-0.295659,1.102068
1064,-12.085145,-1.525902,-3.356985,0.152956,-0.129519,1.073381
1065,-31.433585,4.821851,5.065995,0.086671,0.113649,1.001480
1066,-74.219883,17.639429,-11.169604,0.149416,0.080934,0.969253
1067,-105.653468,28.564889,-5.859464,0.047730,0.354498,0.872572
1068,-177.004654,31.250477,-15.747311,-0.205692,0.870375,0.760876
1069,-230.533303,-18.677043,-27.466239,-0.555550,0.207279,0.789563
1070,-328.252079,-54.688334,13.550011,-0.172366,1.287251,1.999969
1071,-587.350271,-156.618601,-6.591897,-0.862562,0.052857,1.556542
1072,-789.990082,-228.946365,73.426413,0.041993,0.397345,1.199481
1073,-900.038148,-214.053559,107.301442,0.435065,0.036378,0.819959
1074,-1068.253605,-193.728542,152.834363,1.766140,-2.000031,1.999969
1075,-721.751736,-57.862211,199.160754,-0.485481,-0.868177,1.999969
1076,221.560998,23.132677,-79.713130,0.227176,0.295415,1.999969
1077,415.960937,48.523690,-94.850080,-0.667857,1.047501,1.999969
1078,181.094072,27.405203,-98.268101,-0.439094,0.768811,0.733776
1079,-7.995727,-54.627298,-0.854505,-0.487068,0.379156,-0.143069
1080,-62.134737,-86.366064,21.423667,-0.163455,0.241459,0.265629
1081,32.166018,-51.270314,-8.911269,-0.167117,0.133059,0.769299
1082,91.554131,-15.686275,-19.714656,-0.058961,0.493172,0.814710
1083,60.181582,2.685588,-20.263981,-0.130739,0.488411,0.945205
1084,75.684749,9.033341,-21.667811,-0.206912,0.354986,1.110613
1085,128.053712,10.742351,-22.583352,-0.189822,0.398810,1.050065
1086,144.411383,5.127031,-19.714656,-0.128542,0.424933,1.061295
1087,159.975586,5.432212,-19.897765,-0.059205,0.353033,1.140154
1088,192.202640,17.639429,-25.207904,-0.006836,0.310552,1.096452
1089,208.865492,30.823224,-30.029755,0.017700,0.260868,0.958389
1090,217.410544,39.612421,-33.020523,0.021485,0.165042,0.893080
1091,229.129473,44.251164,-34.180209,0.020752,0.107790,0.846082
1092,234.378576,42.236973,-33.508812,0.046143,0.114015,0.992569
1093,238.223850,37.598230,-32.410163,0.086915,0.093141,1.212543
1094,254.825666,37.170977,-33.386740,0.138552,0.065553,1.376486
1095,274.235142,39.917601,-36.743725,0.196414,0.039551,1.413230
1096,287.785153,46.692607,-41.870756,0.252567,-0.016114,1.343893
1097,292.607004,54.871443,-47.730220,0.272587,-0.115846,1.225605
1098,291.752499,64.332036,-52.552071,0.255497,-0.213504,1.119402
1099,280.399786,70.923934,-55.115587,0.266484,-0.257206,1.256733
1100,271.061265,76.905470,-56.092164,0.304082,-0.306035,1.410300
1101,275.333791,80.872816,-60.181582,0.388190,-0.312383,1.349020
1102,269.962615,80.262455,-66.834516,0.447517,-0.247440,1.299336
1103,247.867552,79.774166,-73.365377,0.437263,-0.240970,1.460472
1104,227.359426,80.506600,-77.637903,0.378302,-0.244511,1.999969
1105,222.903792,79.346914,-80.079347,0.307500,-0.279911,1.999969
1106,246.768902,79.041733,-81.055924,0.228275,-0.430060,1.999969
1107,290.104524,83.192187,-81.361105,0.207889,-0.554452,1.999969
1108,305.180438,85.755703,-79.468986,0.222538,-0.660044,1.999969
1109,297.245747,91.065843,-76.234073,0.291020,-0.773693,1.920806
1110,281.681544,96.925307,-73.304341,0.267582,-0.819959,1.905180
1111,264.591440,95.338369,-67.444877,0.162234,-0.956191,1.933989
1112,259.647517,92.530709,-58.289464,0.123537,-1.142962,1.839506
1113,246.402686,93.751431,-45.899138,0.060670,-1.369528,1.598901
1114,224.673838,95.033188,-31.189441,0.072511,-1.686915,1.269795
1115,191.775387,98.329137,-17.151141,0.272831,-2.000031,0.944717
1116,141.603723,104.127565,-5.127031,0.663951,-2.000031,0.729747
1117,91.554131,126.527810,-23.132677,0.856703,-2.000031,0.710704
1118,69.947356,160.891127,-36.499580,0.617441,-2.000031,0.538216
1119,60.303655,159.548333,-20.874342,0.243290,-2.000031,-0.082155
1120,15.686275,92.042420,15.197986,-0.063355,-2.000031,-0.369757
1121,-37.659266,-2.014191,58.777752,-0.098146,-1.731472,0.019165
1122,-67.200732,-61.402304,90.516518,-0.033692,-1.337179,0.765515
1123,-105.958648,-91.920348,91.004807,0.063478,-2.000031,-1.573632
1124,-228.397040,-116.151675,125.978485,0.227298,0.248051,0.661997
1125,-167.788205,-86.366064,97.474632,0.374640,-0.040772,1.503929
1126,-103.822385,-39.978637,88.990616,0.380865,1.148455,0.963272
1127,-221.560998,-95.887694,86.915389,1.033219,0.529671,-0.185550
1128,-310.551614,-88.746471,76.905470,1.482444,-0.039673,0.417731
1129,-330.693523,-50.965133,51.575494,1.430442,-0.247318,1.999969
1130,-280.888075,-20.019837,24.658579,1.116350,-0.334844,1.999969
1131,-162.417029,16.601816,-7.812619,0.260624,-0.423957,1.999969
1132,-133.302815,17.517357,-5.676356,-0.793713,-0.198367,1.816556
1133,-146.791791,-8.056764,33.813993,-1.432273,-0.107668,1.999969
1134,-112.611582,-65.003433,50.476844,-0.542245,-0.400519,1.101823
1135,-71.778439,-95.094224,45.166705,0.808850,0.292485,1.507469
1136,-95.582513,-76.783398,26.489662,1.260883,-0.034546,1.999969
1137,-41.443503,-19.043259,3.234913,-0.041993,-0.170657,1.472190
1138,-30.334936,-38.269627,2.136263,-0.490486,0.005127,1.115251
1139,-52.674144,-56.885634,7.263294,0.507454,0.121340,1.418723
1140,-33.752956,-21.972992,2.685588,0.223392,0.065064,1.319722
1141,-36.682689,-13.305867,4.150454,-0.191165,0.103395,1.021866
1142,-33.081559,-20.996414,-0.488289,0.046876,0.061036,1.141131
1143,-24.841688,-15.442130,-5.004959,0.114504,0.064332,1.037491
1144,-32.959487,-9.521630,-2.441444,0.014405,-0.018189,1.124407
1145,-19.653620,-6.652934,-2.746624,0.089845,-0.013428,1.094621
1146,-16.479744,-1.342794,-0.183108,0.045899,0.002808,1.015274
1147,-16.052491,-1.831083,3.051804,0.013306,0.012696,0.965225
1148,-17.761501,-2.502480,4.028382,0.049561,0.045289,0.987320
1149,-21.850919,-2.136263,4.394598,0.005859,-0.056519,0.975845
1150,-14.892805,-2.929732,3.540093,0.001587,-0.019898,1.026871
1151,-15.747311,-3.112840,3.051804,0.028565,0.043091,0.951308
1152,-21.545739,-4.455634,2.136263,-0.028687,0.018433,0.958999
1153,-21.911955,-6.836042,1.525902,0.007080,0.013794,1.003677
1154,-21.789883,-6.225681,0.732433,0.041749,-0.012573,1.044572
1155,-18.005646,-4.333562,0.671397,0.030274,-0.021973,1.061662
1156,-14.221408,-2.868696,1.037613,0.045777,-0.016358,1.023819
1157,-12.390326,-1.647974,1.159686,0.034791,-0.013428,1.022477
1158,-11.902037,-0.305180,1.342794,0.043702,-0.017212,1.005875
1159,-12.085145,0.244144,1.464866,0.024659,-0.022827,0.999283
1160,-11.963073,-0.366217,1.159686,0.017456,-0.009522,0.997452
1161,-12.207218,-0.976577,0.854505,0.023804,-0.023194,0.991226
1162,-12.024109,-1.709010,0.549325,0.014405,-0.030396,0.978042
1163,-12.268254,-2.990768,0.488289,0.000122,-0.022461,0.994278
1164,-12.695506,-3.967346,-0.122072,0.016968,-0.053101,0.947524
1165,-12.756542,-4.882887,0.366217,0.016724,-0.063111,0.996597
1166,-11.779965,-5.371176,0.488289,0.032837,-0.062013,1.002823
1167,-11.902037,-5.554284,0.244144,0.040040,-0.061402,0.976089
1168,-12.146181,-4.882887,0.427253,0.059571,-0.037476,0.983658
1169,-10.376135,-4.882887,0.671397,0.034424,-0.051392,1.018082
1170,-8.606088,-4.943923,0.000000,0.038087,-0.025391,0.972305
1171,-11.474784,-5.249104,-0.305180,0.030152,-0.029419,0.977798
1172,-12.695506,-5.493248,-0.305180,0.025269,-0.039673,0.983047
1173,-13.366903,-5.615320,0.122072,0.039429,-0.035279,0.983780
1174,-14.831769,-5.188067,0.732433,0.018799,-0.013672,0.965591
1175,-18.799115,-5.798428,1.098650,0.031250,-0.013550,0.958755
1176,-23.437858,-6.225681,2.014191,0.043091,-0.019654,0.984756
1177,-23.987182,-6.164645,1.709010,0.031006,-0.047730,0.875013
1178,-28.015564,-6.652934,1.159686,0.047974,-0.009644,0.944594
1179,-35.034714,-7.690547,0.976577,0.017700,-0.049928,1.097917
1180,-34.912642,-4.699779,0.183108,0.025513,-0.101564,0.972305
1181,-30.090791,-4.455634,0.549325,0.046387,-0.056764,1.022232
1182,-32.593271,-2.685588,1.831083,0.068971,-0.015991,0.989761
1183,-40.161746,2.319371,6.103609,0.081544,-0.044190,1.033951
1184,-52.246891,3.051804,9.582666,0.035523,-0.146242,0.999649
1185,-36.804761,5.310140,9.399557,0.034302,-0.069093,0.960220
1186,-39.734493,5.981537,4.943923,0.001709,-0.047242,0.985977
1187,-48.767834,1.281758,-0.305180,-0.050660,-0.043946,1.020279
1188,-48.523690,-1.159686,-10.254063,-0.022705,-0.089845,1.010758
1189,-52.674144,0.244144,-20.874342,-0.026490,-0.019776,1.053239
1190,-61.463340,10.559243,-44.739452,0.067628,-0.255497,0.907240
1191,-46.448463,3.601129,-37.048905,0.168582,-0.320317,1.063005
1192,-23.743038,-3.295949,-10.986496,0.177127,-0.272221,1.104875
1193,-22.278172,2.929732,0.244144,0.076539,0.017090,1.044694
1194,-52.613108,14.343481,-16.784924,0.166629,0.162722,0.980728
1195,-95.460441,28.870069,-22.339208,0.112184,0.352789,0.790295
1196,-151.979858,35.217823,-23.315785,-0.069093,0.620737,0.544442
1197,-202.090486,-3.418021,-26.672770,-0.281987,0.227176,0.745739
1198,-272.709239,-31.067369,-7.385367,0.072511,1.174334,0.883070
1199,-511.177234,-42.298009,-60.425727,-0.182986,0.121462,1.360494
1200,-680.674449,-138.857099,21.972992,-0.339971,0.109255,1.272724
1201,-826.611734,-208.072023,56.275273,0.010376,0.042481,1.261494
1202,-925.429160,-200.808728,85.145342,0.334844,-0.233036,1.465599
1203,-1250.324254,-226.443885,202.151522,-0.792126,-0.192996,1.999969
1204,-373.113603,-112.611582,86.305028,-1.093400,-1.200458,1.999969
1205,387.762264,-4.760815,-50.110628,-0.253300,1.214130,1.999969
1206,397.650111,35.645075,-48.584726,-0.628061,1.536156,1.981964
1207,153.261616,37.598230,-38.208591,-0.537728,0.905409,0.726085
1208,10.864424,-14.404517,35.889220,-0.308843,0.343389,-0.424567
1209,-24.414435,-36.560616,41.504540,0.045289,0.208743,-0.133303
1210,54.505226,-26.062409,11.596857,0.089357,0.236576,0.364874
1211,95.948730,-15.014878,-7.751583,0.215091,0.515877,0.447761
1212,66.163119,-10.925460,-19.043259,0.210819,0.553719,0.769543
1213,77.393759,-1.831083,-32.043946,0.130617,0.486580,1.096452
1214,125.551232,4.577707,-46.265354,0.068971,0.499641,1.113298
1215,149.843595,3.356985,-53.772793,0.010254,0.500374,1.120256
1216,165.163653,1.464866,-57.373922,-0.033936,0.401984,1.212055
1217,196.841382,6.836042,-61.768521,-0.073976,0.318364,1.233295
1218,223.025864,17.395285,-64.209964,-0.117800,0.229374,1.169696
1219,237.674525,27.649348,-62.928206,-0.138064,0.128786,1.087419
1220,253.604944,34.912642,-60.059510,-0.147707,0.044800,1.028336
1221,264.896620,36.072328,-55.725948,-0.111086,0.000000,1.041398
1222,272.465095,34.485389,-51.941711,-0.061769,-0.012696,1.081071
1223,279.972534,33.081559,-50.965133,0.005737,-0.008545,1.171038
1224,285.465782,36.621653,-52.857252,0.059449,-0.001221,1.344381
1225,290.043488,45.777066,-57.434958,0.101686,-0.062379,1.370016
1226,292.912184,60.608835,-64.759289,0.094972,-0.266361,1.163348
1227,284.916457,79.835203,-67.139696,0.039551,-0.431403,0.951919
1228,261.844816,94.117647,-64.026856,0.042237,-0.479622,1.041154
1229,243.900206,100.404364,-61.158160,0.147707,-0.349248,1.314473
1230,232.303349,101.319905,-61.097124,0.176272,-0.266972,1.822538
1231,223.636225,107.179370,-59.205005,0.103883,-0.329229,1.999969
1232,234.683757,117.982757,-53.894865,0.010742,-0.476081,1.999969
1233,260.807202,121.950103,-44.007019,0.013916,-0.576791,1.999969
1234,273.136492,117.067216,-32.715343,0.072267,-0.613169,1.999969
1235,276.432441,104.982071,-21.667811,0.137087,-0.698985,1.999969
1236,299.504082,100.282292,-15.075914,0.232547,-0.822034,1.999969
1237,317.143511,106.080720,-13.366903,0.330083,-0.872572,1.999969
1238,307.194629,111.757076,-11.108568,0.518196,-0.897963,1.850126
1239,291.020066,109.742885,-12.512398,0.464607,-0.963149,1.780789
1240,276.188296,94.666972,-11.963073,0.368536,-1.084367,1.806424
1241,264.225223,85.084306,-10.070954,0.226444,-1.320577,1.785428
1242,246.097505,88.197147,-4.821851,0.121218,-1.684230,1.542382
1243,215.945678,101.930266,2.868696,0.139895,-2.000031,1.154192
1244,167.666133,123.476005,6.225681,0.449226,-2.000031,0.742809
1245,113.649195,149.721523,-3.662165,0.814710,-2.000031,0.263310
1246,85.572595,162.844282,-17.334249,0.886854,-2.000031,-0.142458
1247,57.007706,133.607996,-7.202258,0.655039,-2.000031,-0.584726
1248,-9.033341,49.500267,22.095064,0.013062,-2.000031,-2.000031
1249,-151.003281,-126.832990,80.262455,0.296757,-2.000031,-1.188373
1250,-268.131533,-239.993896,100.587472,0.925673,-2.000031,0.265873
1251,-190.066377,-154.238193,82.948043,0.572885,-0.395636,1.999969
1252,-117.189288,-80.262455,62.989242,-0.061280,0.894057,1.999969
1253,-154.543374,-96.986343,72.449836,0.277348,0.992447,0.891615
1254,-284.794385,-120.485237,75.379568,0.876234,-0.000366,0.294804
1255,-300.114443,-78.431373,67.261769,0.891249,-0.393439,1.305440
1256,-280.338750,-65.980011,55.176623,1.183368,-0.139284,1.999969
1257,-200.259403,-23.926146,27.893492,1.132586,-0.122927,1.999969
1258,-107.301442,12.695506,-7.141222,0.355718,-0.165774,1.497948
1259,-129.335470,12.329290,-4.211490,-0.518318,0.026856,1.200946
1260,-154.360266,1.037613,21.240558,-1.244526,-0.283452,1.120134
1261,-144.716564,-73.365377,46.265354,-0.922255,-0.548836,1.421653
1262,-93.080034,-120.119020,44.251164,0.749523,0.224002,1.999969
1263,-84.107729,-88.014038,8.178836,1.816434,-0.070558,1.999969
1264,-21.667811,-5.371176,-11.413748,-0.053712,0.116823,1.118303
1265,-67.444877,-34.241245,2.319371,-0.653696,-0.166384,1.000381
1266,-46.448463,-57.495995,1.647974,0.643687,0.056031,1.689357
1267,-27.222095,-19.043259,-6.408789,0.383185,0.001465,1.086076
1268,-36.377508,-5.432212,1.525902,-0.181521,-0.064576,1.233051
1269,-11.596857,-18.616007,1.525902,0.046509,0.001709,1.069963
1270,-10.070954,-14.648661,-1.831083,0.147219,0.036622,1.086198
1271,-14.526589,-5.615320,0.305180,0.072389,-0.025147,1.014786
1272,-5.188067,-3.356985,1.220722,0.068727,0.061402,1.015274
1273,-12.878614,0.305180,2.563516,0.091432,0.027100,1.013931
1274,-11.657893,5.737392,4.455634,0.081056,-0.040040,1.079973
1275,-7.995727,8.667124,5.432212,0.051270,0.006226,0.997940
1276,-14.282444,7.995727,5.798428,0.039185,0.096559,1.016373
1277,-15.625238,6.836042,6.042573,0.047364,0.012696,1.030655
1278,-12.329290,7.324331,4.150454,0.025635,0.016846,0.995132
1279,-12.085145,6.408789,3.234913,0.015869,0.022705,0.980240
1280,-13.855192,4.638743,1.831083,0.013550,-0.007080,0.990982
1281,-11.352712,3.356985,2.136263,0.019776,0.001953,1.010758
1282,-12.207218,4.150454,1.525902,0.025025,0.014893,0.933974
1283,-17.395285,3.601129,2.868696,0.027832,-0.002686,1.028702
1284,-12.695506,4.516670,2.502480,0.036744,-0.006104,1.032120
1285,-11.657893,5.432212,2.136263,0.027832,0.000244,0.982681
1286,-12.451362,5.432212,2.441444,0.019776,-0.004517,0.984878
1287,-13.611048,3.479057,2.319371,0.002808,-0.000366,0.990127
1288,-12.878614,1.281758,1.464866,0.019532,-0.016114,0.996353
1289,-12.817578,-0.061036,0.732433,0.010010,-0.014649,0.987930
1290,-12.390326,-1.464866,0.366217,0.020874,-0.017945,0.990127
1291,-13.427939,-2.746624,0.549325,0.014893,-0.011597,0.978775
1292,-15.381094,-3.967346,0.671397,0.020264,0.003052,0.959609
1293,-17.517357,-3.967346,0.671397,0.044068,-0.045777,0.939467
1294,-20.447089,-4.638743,1.342794,0.011353,-0.009277,0.979019
1295,-20.263981,-4.760815,2.014191,0.036866,-0.008301,1.015763
1296,-22.156100,-4.455634,1.098650,0.037110,-0.042359,1.020157
1297,-18.799115,-3.845274,0.549325,0.042481,-0.045289,1.029923
1298,-17.334249,-2.685588,0.671397,0.039429,-0.036255,1.017105
1299,-15.686275,-2.380407,0.732433,0.022095,-0.044434,0.981582
1300,-16.357671,-2.685588,0.671397,0.042847,-0.036988,0.989639
1301,-18.127718,-2.075227,1.220722,0.038575,-0.043702,1.011734
1302,-19.592584,-1.525902,1.647974,0.038575,-0.040650,0.973648
1303,-20.569162,-2.075227,1.831083,0.029786,-0.016724,0.975967
1304,-25.207904,-2.563516,2.319371,0.045289,-0.029908,0.985367
1305,-28.442817,-2.075227,2.685588,0.043091,-0.061402,0.995010
1306,-27.344167,-2.075227,3.051804,0.052491,-0.076173,1.052384
1307,-28.809033,-1.159686,1.647974,0.059815,-0.074220,1.086931
1308,-26.794842,0.732433,0.305180,0.017090,-0.096437,1.001602
1309,-22.278172,0.671397,-1.220722,0.022827,-0.054810,0.977554
1310,-22.827497,1.525902,-1.342794,0.057740,-0.022950,0.976089
1311,-34.729534,2.136263,0.000000,0.009766,-0.081178,1.009903
1312,-32.532235,1.709010,-0.305180,0.041260,-0.069459,0.992935
1313,-32.043946,4.821851,0.061036,0.047364,-0.098146,1.025040
1314,-40.161746,5.859464,2.563516,0.042481,-0.123659,1.020645
1315,-35.706111,7.324331,2.868696,0.005249,-0.122438,1.028580
1316,-31.372549,8.117800,-2.136263,0.002686,-0.109377,0.998428
1317,-30.029755,6.042573,-6.836042,0.004273,-0.111086,0.986831
1318,-33.630884,4.394598,-13.794156,-0.035035,-0.096559,1.024796
1319,-45.960174,9.338521,-31.677729,-0.048341,-0.112673,1.041032
1320,-55.237659,11.657893,-38.696880,0.113649,-0.284794,1.136370
1321,-36.011292,5.981537,-17.517357,0.109865,-0.311284,1.035050
1322,-17.334249,-0.427253,-4.272526,0.009400,0.000977,1.014664
1323,-43.945983,7.446403,-18.188754,0.036133,0.182010,0.921279
1324,-83.375296,9.521630,-22.522316,0.176150,0.247684,0.870497
1325,-121.705959,17.151141,-14.465553,-0.025757,0.407233,0.569467
1326,-153.749905,-1.953155,-23.193713,0.019898,0.534676,0.627329
1327,-244.388495,-15.320058,-23.804074,0.133669,0.704234,0.935805
1328,-450.690471,-20.752270,-22.949569,0.097047,1.417136,1.216083
1329,-693.553063,-58.411536,-0.732433,-0.389410,0.171511,1.420310
1330,-858.655680,-152.101930,119.630732,-0.301396,-0.025513,1.452415
1331,-929.457542,-192.080568,118.104829,-0.051148,-0.055787,0.770397
1332,-1155.718319,-234.805829,152.712291,0.325811,-2.000031,1.999969
1333,-560.494392,-132.875563,167.727169,-1.382467,-1.666041,1.999969
1334,250.553140,-72.083619,-26.428626,-0.056519,0.735729,1.999969
1335,415.106432,-5.554284,-19.531548,-0.689586,1.182025,1.999969
1336,190.676738,41.382467,-39.185168,-0.273198,0.731212,1.037247
1337,44.739452,6.591897,43.945983,-0.377691,0.624277,-0.393194
1338,-31.311513,-25.818265,54.261082,-0.055665,0.460822,-0.074708
1339,22.339208,-21.728847,31.189441,0.004883,0.196902,0.121462
1340,86.060884,-16.906996,13.855192,0.133791,0.442390,0.224002
1341,62.867170,-22.095064,3.112840,0.207767,0.568490,0.543343
1342,63.050278,-19.714656,-10.254063,0.175540,0.515511,0.956680
1343,112.977798,-10.498207,-29.114214,0.157961,0.546517,1.115740
1344,146.486610,-4.760815,-44.434272,0.113771,0.548959,1.098039
1345,164.431220,-5.554284,-54.139010,-0.013306,0.438361,1.198871
1346,193.423362,-6.713970,-59.937438,-0.076051,0.319585,1.321431
1347,226.749065,-4.028382,-63.843748,-0.118410,0.217899,1.282612
1348,249.454490,0.671397,-64.881361,-0.185428,0.131228,1.317769
1349,266.178378,5.432212,-62.073701,-0.262333,0.009888,1.396750
1350,288.395514,11.841001,-56.763561,-0.317144,-0.138430,1.325826
1351,307.133593,18.127718,-49.073014,-0.322393,-0.243534,1.091081
1352,312.687877,18.738079,-39.856565,-0.278447,-0.271855,0.852918
1353,304.631113,18.371862,-33.691920,-0.191531,-0.285283,0.781018
1354,286.320287,28.137636,-33.325704,-0.051759,-0.373907,0.765393
1355,265.018692,56.153201,-37.842374,0.092287,-0.487922,0.797009
1356,243.045701,87.342641,-41.504540,0.109010,-0.411872,1.130877
1357,223.697261,94.972152,-44.678416,0.060426,-0.405524,1.425803
1358,230.045014,91.432059,-45.410849,0.020874,-0.412116,1.739406
1359,232.913710,88.868544,-40.772107,-0.015747,-0.473640,1.919951
1360,232.913710,86.427100,-32.715343,0.015381,-0.577035,1.915557
1361,242.435340,86.060884,-29.968719,0.136110,-0.603525,1.928008
1362,239.566644,84.596017,-29.846647,0.198001,-0.591928,1.999969
1363,234.988937,83.558404,-32.349126,0.274174,-0.741100,1.999969
1364,241.153582,95.765621,-40.588998,0.426764,-0.859510,1.618799
1365,222.598611,109.864958,-51.148241,0.447272,-0.839490,1.505882
1366,192.446784,113.099870,-56.946670,0.383429,-0.868299,1.649928
1367,187.075608,111.696040,-62.012665,0.365728,-0.851209,1.838651
1368,186.404211,105.897612,-63.782712,0.365484,-0.812879,1.963287
1369,191.531243,96.192874,-65.613794,0.362066,-0.845106,1.900420
1370,200.137331,90.028229,-67.444877,0.335454,-0.870130,1.779812
1371,195.132372,82.215610,-66.651408,0.274418,-0.946426,1.735256
1372,196.414130,73.792630,-64.637217,0.213748,-1.073625,1.647852
1373,199.343862,69.214923,-61.341268,0.143191,-1.202411,1.598779
1374,192.141604,66.285191,-52.491035,0.051881,-1.455344,1.441062
1375,188.418402,67.078660,-40.161746,-0.007935,-1.737331,1.229511
1376,173.525597,72.693980,-23.376822,-0.038087,-2.000031,0.886122
1377,146.852827,80.567636,0.427253,-0.043580,-2.000031,0.418341
1378,115.785458,87.647822,17.761501,-0.036988,-2.000031,-0.094728
1379,76.050965,80.201419,40.100710,-0.048219,-2.000031,-0.439704
1380,16.968032,46.570535,68.909743,-0.064454,-2.000031,-0.513069
1381,-94.239719,-58.472572,98.023957,0.176516,-2.000031,-2.000031
1382,-246.646830,-201.174945,134.340429,1.235370,-1.896880,-0.682261
1383,-193.545434,-196.231022,96.498054,1.681422,-0.101320,1.524315
1384,-97.108415,-114.198520,33.203632,0.709239,1.180194,1.999969
1385,-168.886854,-89.112688,40.894179,0.394537,1.161639,0.881361
1386,-302.922103,-113.893339,40.650034,0.395880,-0.047852,0.276371
1387,-313.054093,-67.322805,45.716030,0.241825,-0.603281,0.810315
1388,-298.466468,-71.656367,46.082246,0.722545,-0.232303,1.999969
1389,-270.817121,-22.034028,31.372549,0.798108,-0.404669,1.999969
1390,-169.741360,-25.024796,28.076600,-0.782849,-0.316045,1.999969
1391,-145.143816,-75.745785,37.476158,-0.724254,-0.646250,1.999969
1392,-53.650721,-114.320592,29.114214,0.793835,-0.172366,1.999969
1393,-14.587625,-54.749371,4.821851,1.303243,0.226810,1.631739
1394,-50.598917,-6.103609,8.361944,-0.169924,0.199832,1.057389
1395,-77.332723,-24.475471,15.991455,-0.272465,-0.059815,1.250629
1396,-35.034714,-30.762188,-0.427253,0.303716,0.020386,1.273701
1397,-41.626612,-14.465553,-3.112840,0.165286,0.005493,1.320821
1398,-33.325704,-9.948882,-2.380407,-0.124025,-0.109865,1.182147
1399,-9.948882,-14.038300,-5.065995,0.073121,0.025025,1.060075
1400,-17.944610,-9.643702,-2.197299,0.053468,-0.012818,1.101579
1401,-10.193027,-6.469825,-0.793469,0.005859,-0.014893,1.057389
1402,-5.127031,-5.371176,-0.549325,0.019165,0.045167,1.004044
1403,-12.512398,-2.624552,1.403830,0.057984,0.017823,1.046036
1404,-9.277485,0.671397,2.075227,0.027710,0.003296,1.018814
1405,-8.728161,1.831083,2.807660,0.032349,0.027100,0.998184
1406,-11.169604,2.624552,3.540093,0.022461,-0.002319,1.003799
1407,-8.117800,1.953155,3.356985,0.002808,0.010986,0.987686
1408,-9.643702,1.098650,2.136263,-0.013428,0.133913,1.200336
1409,-7.751583,-0.305180,3.784237,0.006714,-0.036744,1.005631
1410,-10.681315,-1.464866,4.028382,-0.005859,-0.002319,0.949233
1411,-11.841001,-1.403830,3.723201,0.007691,0.010986,1.008804
1412,-14.099336,-1.159686,3.784237,-0.001343,-0.001343,1.025772
1413,-12.146181,-1.159686,3.479057,0.004395,-0.004517,1.003189
1414,-11.841001,-1.098650,3.112840,0.011841,0.004517,1.016495
1415,-11.779965,-1.098650,2.685588,0.012940,-0.001953,0.992691
1416,-11.413748,-0.671397,2.258335,-0.001343,0.002441,1.000381
1417,-10.437171,-0.488289,1.647974,0.010620,-0.003296,0.996963
1418,-10.009918,1.098650,-1.037613,0.072877,-0.222416,0.723033
1419,-8.850233,-0.976577,0.183108,-0.002319,0.025391,1.025040
1420,-13.916228,-2.075227,1.342794,-0.013184,0.007080,0.969619
1421,-15.075914,-2.990768,1.037613,-0.003906,0.000000,0.951919
1422,-18.127718,-3.540093,1.037613,0.015869,-0.005859,0.984878
1423,-20.691234,-3.479057,1.037613,-0.002441,-0.028199,1.010025
1424,-18.616007,-3.784237,0.976577,0.005982,-0.028565,0.995254
1425,-18.982223,-4.699779,0.915541,0.003540,-0.023316,0.992569
1426,-19.714656,-5.249104,0.732433,0.017700,-0.056764,1.024674
1427,-16.479744,-4.211490,0.427253,0.017700,-0.057984,1.059342
1428,-12.756542,-2.441444,0.976577,0.040406,-0.022461,1.010391
1429,-10.986496,-1.831083,0.793469,0.007202,-0.033326,1.008438
1430,-10.315099,-1.953155,0.671397,0.009033,-0.037354,0.976944
1431,-12.390326,-2.929732,0.732433,0.014771,-0.034058,0.990860
1432,-14.404517,-3.173877,0.915541,0.015747,-0.034546,0.988418
1433,-14.831769,-2.746624,0.854505,0.020020,-0.041382,1.003189
1434,-16.296635,-2.136263,1.525902,0.022217,-0.066285,1.014786
1435,-13.916228,-1.647974,1.709010,0.007813,-0.049928,1.014298
1436,-14.038300,-1.770047,1.647974,0.015137,-0.056641,1.001846
1437,-15.136950,-1.709010,1.403830,0.028565,-0.058106,1.016007
1438,-12.512398,-1.037613,0.976577,0.021241,-0.051881,1.009903
1439,-14.282444,-0.976577,0.976577,0.018799,-0.048829,0.992203
1440,-15.136950,-2.014191,0.732433,0.009766,-0.054078,0.998306
1441,-15.991455,-2.502480,0.549325,-0.008423,-0.045533,0.974136
1442,-19.287404,-4.577707,0.549325,0.004761,-0.044068,0.961807
1443,-21.850919,-5.432212,0.488289,0.022217,-0.055421,0.989517
1444,-24.536507,-5.615320,0.793469,0.026246,-0.091432,1.016373
1445,-20.813306,-4.516670,2.014191,0.037354,-0.093263,1.017716
1446,-19.043259,-3.295949,3.112840,0.026001,-0.071168,0.990372
1447,-18.310826,-3.051804,6.469825,0.006226,-0.012207,1.028458
1448,-28.870069,-0.427253,4.882887,0.023804,-0.068482,0.952773
1449,-28.259709,0.366217,3.601129,0.018189,-0.040650,1.016129
1450,-32.959487,1.342794,2.258335,0.025635,-0.058228,1.022599
1451,-38.757916,2.319371,2.807660,0.015991,-0.075807,0.996353
1452,-37.781338,4.028382,2.319371,0.024659,-0.103761,1.057023
1453,-33.142596,6.775006,0.671397,0.004273,-0.096437,1.032975
1454,-30.823224,9.216449,-4.211490,-0.047120,-0.015747,1.028580
1455,-26.306554,10.681315,-11.352712,0.014893,-0.127321,0.947646
1456,-36.804761,8.422980,-17.029068,-0.060426,-0.065309,1.048112
1457,-62.439918,12.451362,-29.846647,0.004395,-0.122194,0.890883
1458,-55.664912,7.202258,-24.048219,0.126833,-0.289311,1.026993
1459,-32.104982,-2.258335,-13.672084,-0.029786,0.109743,0.883803
1460,-71.229114,-5.310140,-27.344167,-0.028565,0.410163,0.747082
1461,-134.645609,-10.315099,-34.546426,0.103517,0.217655,0.690318
1462,-195.132372,-2.502480,-10.986496,0.134401,-0.036744,0.881727
1463,-174.441138,-9.216449,-8.606088,0.028199,0.729870,1.075944
1464,-296.574350,-11.291676,-44.068055,-0.083009,0.576181,1.416037
1465,-446.784161,-28.015564,-10.742351,-0.471687,-0.038087,1.148089
1466,-544.136721,-92.164492,22.034028,-0.403815,-0.306035,1.041398
1467,-589.242390,-162.417029,36.560616,-0.193240,-0.336431,1.071305
1468,-636.484321,-210.757610,52.552071,0.133425,-0.253544,1.511986
1469,-696.482795,-204.409857,121.583886,-0.041749,-1.072526,1.999969
1470,-430.853742,-124.696727,85.145342,-0.429450,-0.499153,1.999969
1471,112.977798,-39.917601,-14.038300,-0.024292,0.461555,1.999969
1472,270.695048,36.987869,-50.293736,-0.211307,1.106828,1.748318
1473,145.021744,68.970779,-23.926146,-0.409430,0.740490,0.638926
1474,-12.939651,21.179522,11.718929,-0.324468,0.266117,0.081178
1475,-9.460594,10.681315,24.048219,-0.242557,0.067140,0.231205
1476,83.192187,11.841001,13.733120,-0.164553,0.175662,0.294438
1477,77.637903,1.647974,16.174563,-0.014282,0.414679,0.423346
1478,52.674144,-6.225681,16.662852,0.034424,0.352300,0.810071
1479,93.018997,1.342794,6.103609,0.113039,0.392950,1.020279
1480,121.339742,12.390326,-5.188067,0.080079,0.443244,1.014420
1481,128.725109,15.503166,-10.864424,0.025757,0.348028,1.070329
1482,154.787518,17.334249,-15.259022,-0.038697,0.262699,1.076310
1483,175.478752,16.418708,-17.151141,-0.070436,0.189212,1.037980
1484,187.624933,16.540780,-17.883574,-0.074342,0.077760,1.058000
1485,204.837110,22.705425,-19.409476,-0.117556,0.007691,1.141741
1486,220.706493,28.992142,-19.409476,-0.075807,-0.020264,1.194232
1487,231.021592,35.645075,-20.874342,0.036133,-0.084840,1.216205
1488,239.200427,45.410849,-25.452049,0.121950,-0.205447,1.172259
1489,246.036469,50.843061,-31.799802,0.131106,-0.308354,1.088151
1490,247.257191,49.134051,-36.926833,0.186648,-0.382818,1.028336
1491,240.787366,44.617380,-41.931792,0.245365,-0.430793,1.097429
1492,233.585107,42.542153,-48.096437,0.248417,-0.506844,1.164813
1493,230.228122,47.241932,-54.871443,0.223026,-0.580697,1.219623
1494,222.964828,58.045319,-59.449149,0.121096,-0.628305,1.226825
1495,212.344549,66.651408,-58.960861,-0.038087,-0.690440,1.202167
1496,201.541161,66.773480,-52.063783,-0.169314,-0.684092,1.305806
1497,190.493629,58.960861,-39.185168,-0.340581,-0.669810,1.526390
1498,186.587320,52.002747,-26.062409,-0.452888,-0.709117,1.846464
1499,197.878996,58.594644,-9.521630,-0.553964,-0.756725,1.999969
1500,208.255131,74.219883,8.911269,-0.432746,-0.814588,1.999969
1501,214.480812,95.887694,24.231327,-0.109621,-0.835462,1.845975
1502,215.579461,103.639277,32.654307,0.135256,-0.871107,1.594018
1503,211.673152,98.390173,36.865797,0.418708,-0.909071,1.350240
1504,197.146563,90.455482,37.293050,0.608286,-0.981582,1.238788
1505,177.676051,81.666285,33.752956,0.711803,-1.054582,1.219989
1506,166.140230,70.008392,26.916915,0.659922,-1.161028,1.183978
1507,152.773327,56.153201,20.202945,0.532723,-1.325216,1.000992
1508,135.378042,45.593957,13.672084,0.374640,-1.493797,0.823865
1509,111.818112,40.466926,7.812619,0.238163,-1.672755,0.679698
1510,84.779126,45.471885,3.112840,0.177005,-1.813993,0.529671
1511,54.322118,55.115587,-0.122072,0.166995,-1.900542,0.466926
1512,21.423667,64.209964,0.305180,0.153445,-1.934478,0.586191
1513,-2.868696,72.449836,5.432212,-0.080079,-2.000031,-0.106813
1514,-76.234073,-8.667124,37.048905,-0.055543,-2.000031,-0.690196
1515,-138.124666,-106.691081,64.881361,0.591073,-2.000031,-0.088624
1516,-71.168078,-75.196460,44.129091,0.601572,-0.105592,1.999969
1517,33.569848,-10.864424,-14.160372,0.024537,1.022110,1.892973
1518,-40.650034,-27.710384,23.620966,-0.278447,1.268086,0.775158
1519,-192.874037,-113.344015,39.673457,0.432380,0.323491,-0.401373
1520,-252.567330,-82.215610,44.800488,0.304814,-0.316045,0.111574
1521,-221.927214,-83.558404,27.649348,-0.143679,-0.469490,1.999969
1522,-279.301137,-136.232548,62.561990,-0.389288,-0.230350,1.999969
1523,-36.316472,-109.987030,65.918975,0.829847,-0.155520,1.999969
1524,84.229801,-41.138323,-34.851606,1.133074,0.359869,1.859892
1525,-75.318532,-5.371176,11.963073,-0.002075,0.269902,0.575937
1526,-121.400778,-13.427939,26.977951,-0.370733,0.033692,1.341085
1527,-40.833143,-18.982223,4.333562,0.061524,-0.024781,1.242329
1528,-41.992828,-10.681315,0.183108,0.224002,0.072999,1.079484
1529,-67.322805,-9.887846,5.615320,-0.200687,-0.051637,1.064103
1530,-41.931792,-21.057450,3.906310,-0.023560,-0.023072,1.150774
1531,-32.043946,-16.296635,0.061036,0.141604,-0.036500,1.083635
1532,-34.790570,-11.841001,-0.122072,-0.031373,-0.040284,1.071061
1533,-26.733806,-14.282444,1.159686,0.013062,-0.037110,1.062272
1534,-21.728847,-12.085145,1.525902,0.049805,-0.020142,1.068620
1535,-22.461280,-9.887846,2.075227,0.011719,-0.045289,1.055192
1536,-13.122759,-8.056764,2.136263,0.020142,-0.016358,1.007462
1537,-18.554971,-7.507439,1.831083,0.014649,-0.001831,0.998428
1538,-19.836728,-7.568475,0.305180,0.008667,-0.127077,0.906752
1539,-19.104295,-8.972305,0.244144,0.027955,-0.011475,1.027359
1540,-21.301595,-8.728161,0.671397,0.026490,-0.040772,1.040665
1541,-17.273213,-6.530861,0.366217,0.055055,-0.070436,1.010025
1542,-12.207218,-5.188067,0.305180,0.031006,-0.038941,1.031144
1543,-14.892805,-4.272526,0.671397,0.030030,-0.053468,1.040421
1544,-10.070954,-3.234913,0.793469,0.019532,-0.036988,0.998062
1545,-12.329290,-3.295949,0.549325,0.020874,-0.037110,0.984512
1546,-13.672084,-3.784237,0.671397,0.024537,-0.047486,1.002579
1547,-11.963073,-3.784237,0.244144,0.017212,-0.041871,0.988540
1548,-14.648661,-4.394598,0.244144,0.028687,-0.053468,1.017960
1549,-11.230640,-4.333562,0.000000,0.031861,-0.065675,1.024308
1550,-9.704738,-4.150454,0.000000,0.040040,-0.065431,1.008560
1551,-10.376135,-3.601129,0.122072,0.026490,-0.071534,1.014542
1552,-7.629511,-2.990768,0.366217,0.025391,-0.062623,1.012955
1553,-8.056764,-2.990768,0.366217,0.031983,-0.058717,1.017472
1554,-6.897078,-2.685588,0.183108,0.031739,-0.070314,1.014908
1555,-3.906310,-2.380407,0.061036,0.029297,-0.053346,0.985367
1556,-6.469825,-2.990768,-0.244144,0.022827,-0.057618,0.997208
1557,-6.408789,-3.234913,-0.793469,0.028809,-0.070314,1.010513
1558,-5.065995,-2.990768,-0.854505,0.040772,-0.064820,1.017838
1559,-4.699779,-2.075227,-0.610361,0.044923,-0.074830,1.022232
1560,-2.807660,-1.159686,-0.427253,0.040528,-0.076539,1.013443
1561,-2.197299,-0.549325,-0.183108,0.048707,-0.077028,1.013443
1562,-1.525902,0.244144,0.000000,0.047364,-0.084840,1.018326
1563,0.976577,1.342794,0.488289,0.040650,-0.066163,1.011368
1564,1.342794,1.403830,0.488289,0.031861,-0.059327,0.978286
1565,-0.854505,0.732433,0.427253,0.032593,-0.051148,0.979141
1566,-2.380407,0.183108,0.244144,0.025025,-0.048219,0.987198
1567,-4.577707,-0.366217,0.122072,0.033082,-0.058350,0.989273
1568,-5.065995,-0.366217,0.000000,0.038697,-0.070192,1.005753
1569,-4.577707,0.061036,0.183108,0.036622,-0.075563,1.014420
1570,-3.112840,0.732433,0.366217,0.039063,-0.070314,1.017838
1571,-2.136263,1.403830,0.732433,0.028931,-0.069947,1.009415
1572,-2.319371,0.976577,0.671397,0.012573,-0.053468,1.002579
1573,-3.051804,-0.427253,-0.793469,0.007935,-0.036133,0.986954
1574,-7.019150,-1.953155,-2.502480,0.029175,-0.067994,1.005142
1575,-5.554284,-1.770047,-3.234913,0.033326,-0.102174,1.033829
1576,-1.770047,-1.220722,-3.234913,0.040894,-0.090211,1.018570
1577,-1.586938,-0.671397,-3.112840,0.046265,-0.080201,1.023209
1578,-1.892119,0.122072,-2.624552,0.043946,-0.074342,1.013199
1579,0.732433,0.793469,-2.014191,0.028809,-0.063111,0.975723
1580,-3.540093,0.671397,-1.892119,0.025879,-0.081788,0.979019
1581,-2.075227,0.732433,-1.770047,0.043702,-0.093385,1.022843
1582,-0.427253,1.586938,-1.647974,0.037842,-0.090944,1.005875
1583,0.976577,2.319371,-1.342794,0.044434,-0.093141,1.019181
1584,3.051804,3.234913,-0.915541,0.041871,-0.097414,1.025162
1585,5.249104,4.028382,-0.305180,0.043702,-0.104860,1.032731
1586,9.155413,4.943923,0.488289,0.040040,-0.092897,1.026871
1587,10.376135,5.432212,0.732433,0.032471,-0.086915,1.015396
1588,12.207218,5.432212,0.671397,0.022827,-0.076295,0.999405
1589,14.343481,4.394598,0.549325,-0.003906,-0.030640,0.933852
1590,7.812619,2.441444,0.366217,0.009400,-0.011963,0.933852
1591,0.732433,1.037613,-0.183108,0.018311,-0.049805,0.977188
1592,1.464866,0.915541,-0.366217,0.032105,-0.065553,1.005386
1593,1.464866,1.647974,-0.122072,0.029053,-0.069947,1.005509
1594,1.403830,2.136263,0.183108,0.029175,-0.069459,1.000870
1595,2.502480,2.075227,0.305180,0.022217,-0.059449,1.006729
1596,2.563516,2.136263,0.244144,0.028199,-0.045289,1.000748
1597,0.244144,2.075227,-0.488289,0.023926,-0.069581,0.964004
1598,0.000000,1.403830,-0.793469,0.027466,-0.102419,1.031266
1599,6.958114,2.075227,-0.793469,0.032593,-0.079835,1.033463
1600,6.225681,2.319371,-0.427253,0.025147,-0.065919,1.010636
1601,6.469825,2.014191,-0.183108,0.029419,-0.072999,1.019181
1602,7.812619,2.380407,-0.122072,0.029786,-0.076417,1.020401
1603,8.728161,3.234913,0.000000,0.047120,-0.085573,1.053971
1604,13.000687,4.760815,0.183108,0.044068,-0.087160,1.046036
1605,15.991455,6.591897,0.122072,0.027100,-0.081788,1.051041
1606,18.799115,7.934691,0.244144,0.044556,-0.078614,1.040421
1607,22.278172,9.277485,0.366217,0.022217,-0.061891,1.015274
1608,23.559930,9.521630,0.305180,0.016358,-0.050782,0.990372
1609,22.461280,9.155413,0.183108,0.012818,-0.034302,0.985245
1610,22.156100,8.484016,0.061036,-0.000122,-0.026246,0.991348
1611,22.217136,7.507439,-0.244144,-0.012940,-0.006470,0.936538
1612,18.310826,5.249104,-0.305180,-0.025757,0.025513,0.902846
1613,9.521630,1.831083,-0.671397,-0.018677,0.030274,0.912612
1614,2.136263,0.000000,-0.915541,0.008057,-0.016724,0.988418
1615,2.990768,0.000000,-0.915541,0.021118,-0.041993,1.019669
1616,5.798428,0.671397,-0.732433,0.021241,-0.028077,1.015030
1617,5.371176,1.098650,-0.427253,0.021851,-0.035035,1.016983
1618,7.385367,1.892119,-0.488289,0.013794,-0.037964,1.024674
1619,9.582666,2.319371,-0.366217,0.025635,-0.035035,1.007218
1620,10.742351,2.807660,-0.305180,0.025391,-0.013672,0.999039
1621,9.948882,3.356985,-0.122072,0.013062,-0.001587,0.974990
1622,6.836042,3.356985,0.061036,0.018433,-0.002930,0.981216
1623,5.065995,3.418021,0.427253,0.018189,-0.008057,0.978775
1624,4.882887,4.028382,0.732433,0.011231,-0.011109,0.986099
1625,4.394598,4.089418,0.915541,0.013916,0.008057,0.964492
1626,0.427253,4.333562,0.671397,0.015747,0.014282,0.972427
1627,-4.211490,3.418021,0.671397,-0.010132,-0.043091,1.029557
1628,2.441444,3.112840,0.183108,0.010864,-0.024659,1.027115
1629,3.051804,3.540093,0.061036,0.011963,-0.017090,1.015640
1630,2.807660,3.723201,0.244144,-0.001831,-0.036255,1.032364
1631,7.019150,3.906310,0.122072,0.014282,-0.019776,1.008682
1632,5.920500,4.455634,0.427253,0.019776,-0.014038,0.998306
1633,6.713970,5.432212,0.793469,0.017334,0.010498,0.969375
1634,2.075227,6.225681,1.159686,0.013306,-0.005127,0.977432
1635,-0.122072,6.164645,2.014191,-0.003540,-0.038453,1.012711
1636,5.798428,5.798428,1.647974,-0.019165,-0.017212,0.973892
1637,3.356985,3.234913,1.464866,-0.040894,-0.005615,0.978408
1638,4.943923,-0.610361,-0.183108,-0.071412,0.003052,0.957046
1639,3.601129,-5.249104,-1.586938,-0.017456,0.031617,0.964858
1640,-0.366217,-6.958114,-2.563516,-0.007935,0.009766,0.971206
1641,-3.356985,-6.347753,-1.770047,0.050172,-0.047608,1.057145
1642,2.258335,-1.342794,0.000000,0.067628,-0.060426,1.070695
1643,4.882887,2.929732,2.197299,0.026246,-0.093751,1.112810
1644,19.531548,5.371176,2.563516,-0.027466,-0.004150,1.040543
1645,18.371862,3.051804,1.831083,-0.010742,0.036622,0.914321
1646,12.939651,0.061036,0.244144,-0.049317,0.093507,0.861952
1647,0.244144,-4.699779,-1.892119,-0.031373,0.128054,0.826307
1648,-18.432898,-10.498207,-3.173877,-0.028443,0.000122,0.976822
1649,-9.948882,-10.620279,-4.455634,0.040406,-0.025879,1.063737
1650,-9.338521,-7.568475,-3.234913,0.033570,-0.041138,1.072648
1651,-4.943923,-4.455634,-1.220722,0.041138,-0.053956,1.058000
1652,0.366217,-0.488289,-0.122072,0.041016,-0.004761,1.009903
1653,-5.554284,0.183108,1.098650,0.012818,-0.067140,1.056046
1654,7.141222,1.037613,0.793469,-0.011231,-0.016602,1.008804
1655,4.516670,-1.709010,0.061036,-0.025391,0.020264,0.968399
1656,2.197299,-4.699779,-1.220722,-0.013428,0.004761,0.973526
1657,2.258335,-6.652934,-2.380407,0.007813,0.039551,0.932387
1658,-4.577707,-7.446403,-2.746624,0.008423,0.039185,0.967910
1659,-8.300908,-6.836042,-2.624552,0.016114,0.036011,0.924697
1660,-16.235599,-5.065995,-2.685588,0.069093,-0.031983,0.904921
1661,-18.249790,-4.577707,-1.709010,-0.005127,-0.023194,1.050431
1662,-14.099336,-4.516670,-1.281758,0.026123,-0.068116,1.089982
1663,-5.127031,-3.540093,-1.098650,0.014771,-0.086671,1.080095
1664,4.028382,-2.197299,-0.854505,0.048829,-0.028931,1.029557
1665,2.929732,-0.610361,-0.244144,0.014527,-0.000855,0.977554
1666,-1.770047,-1.342794,0.122072,0.019409,-0.031739,1.011124
1667,3.662165,-0.854505,-0.183108,0.021363,-0.007935,0.973892
1668,0.122072,-0.915541,-0.183108,0.023316,0.011231,0.970718
1669,-4.516670,-0.976577,-0.183108,0.017823,-0.003296,0.985000
1670,-5.249104,-1.464866,-0.610361,-0.002808,-0.010132,0.985977
1671,-4.943923,-3.234913,-1.037613,0.007691,-0.028809,1.006851
1672,-3.540093,-3.601129,-1.586938,0.016114,-0.043946,1.033341
1673,0.305180,-3.234913,-1.464866,0.018433,-0.047364,1.042008
1674,3.173877,-2.319371,-1.220722,0.031006,-0.018555,1.012467
1675,1.831083,-1.831083,-0.915541,0.023194,-0.006470,0.989273
1676,0.183108,-1.953155,-1.098650,0.009888,-0.021363,0.997208
1677,0.854505,-2.990768,-1.647974,0.008057,-0.033204,1.022110
1678,2.868696,-3.173877,-1.770047,0.042725,-0.031861,1.040177
1679,6.164645,-1.525902,-1.770047,0.035157,-0.012451,0.995987
1680,3.967346,-0.732433,-1.586938,0.042481,-0.017578,1.010147
1681,4.577707,0.671397,-1.159686,0.025879,-0.031495,1.027359
1682,7.507439,1.220722,-1.098650,0.032715,-0.017823,1.005509
1683,6.897078,1.464866,-1.098650,0.018067,-0.021851,1.008682
1684,8.850233,2.014191,-1.037613,0.046632,-0.027710,1.023941
1685,11.291676,3.356985,-0.976577,0.022339,-0.005615,1.001602
1686,9.704738,3.356985,-0.610361,0.016968,0.012451,0.968154
1687,6.591897,2.502480,-0.671397,0.015625,0.009400,0.976455
1688,5.554284,2.258335,-0.610361,0.024292,0.003174,0.976699
1689,3.051804,2.990768,-0.305180,0.034546,0.003906,0.982071
1690,2.441444,3.906310,0.122072,0.028199,0.012207,0.975113
1691,-0.732433,4.150454,0.427253,0.011841,0.019165,0.971206
1692,-3.601129,2.685588,0.183108,0.003418,-0.024292,1.009293
1693,2.136263,1.892119,-0.427253,0.010254,-0.006958,1.000870
1694,0.183108,1.586938,-0.488289,0.028809,0.002197,0.997940
1695,0.183108,2.441444,-0.183108,0.013184,-0.007813,0.988418
1696,-0.305180,2.807660,0.000000,0.018189,-0.012573,0.986709
1697,-0.854505,2.441444,0.061036,0.010132,-0.003662,0.996353
1698,-2.807660,3.173877,-1.525902,0.015869,-0.010254,0.990860
1699,-4.394598,2.624552,-1.770047,0.017090,-0.000732,0.971695
1700,0.549325,3.906310,-3.662165,0.014527,0.052369,0.963394
1701,-8.056764,1.159686,-0.671397,-0.003784,0.000366,0.969009
1702,-2.685588,0.610361,-1.281758,0.011353,-0.025025,1.008804
1703,0.915541,0.854505,-1.709010,0.014405,-0.001709,0.989639
1704,-2.319371,0.488289,-0.732433,0.009644,-0.013428,1.005020
1705,-0.976577,0.244144,-0.183108,0.013916,-0.014282,0.997208
1706,-1.281758,-0.183108,-0.122072,0.009522,-0.009644,1.005386
1707,0.122072,0.061036,-0.122072,0.015259,-0.022705,1.009781
1708,0.793469,-0.244144,0.305180,0.011719,-0.016602,1.018082
1709,1.953155,-0.183108,0.793469,0.013428,-0.012329,1.000870
1710,3.906310,0.122072,1.098650,0.021363,-0.000610,0.985855
1711,1.586938,0.122072,1.342794,0.008423,0.005982,0.988174
1712,0.793469,-0.183108,1.342794,0.022217,-0.001709,1.011124
1713,-0.427253,0.000000,0.732433,0.015015,-0.007324,0.991104
1714,-1.098650,0.061036,0.366217,0.025757,-0.023072,1.012345
1715,-0.854505,0.427253,0.427253,0.015503,-0.008057,1.001846
1716,-2.197299,0.305180,0.061036,0.013916,-0.015381,1.007340
1717,-0.671397,0.244144,-0.122072,0.017456,-0.018555,1.010147
1718,0.061036,0.671397,-0.183108,0.011963,-0.016480,1.005020
1719,0.122072,0.671397,0.061036,0.015747,-0.023194,0.989883
1720,2.380407,0.671397,0.122072,0.008057,0.003174,0.969131
1721,-1.403830,0.122072,0.427253,0.009522,0.011475,0.973770
1722,-3.906310,-0.061036,0.244144,0.020020,0.003906,0.986709
1723,-5.554284,-0.366217,0.671397,0.018677,-0.024048,1.033219
1724,-0.854505,0.610361,0.793469,0.018677,-0.019043,1.008072
1725,-2.319371,0.854505,0.671397,0.019409,-0.024170,1.028214
1726,-0.183108,1.403830,0.549325,0.008301,-0.021363,1.008804
1727,0.000000,1.098650,0.366217,0.015503,-0.010010,1.006729
1728,0.183108,0.976577,0.305180,-0.001465,-0.006836,0.999771
1729,-0.122072,0.244144,0.061036,0.011719,-0.010742,0.993545
1730,-0.061036,0.122072,0.000000,0.017090,-0.015015,1.000870
1731,3.540093,-0.610361,1.159686,-0.000732,-0.031861,1.002090
1732,5.188067,-0.671397,0.854505,0.026246,0.001343,0.987320
1733,0.427253,-1.037613,1.342794,0.012696,-0.016236,1.002335
1734,0.915541,0.244144,1.403830,0.032959,-0.001587,1.004654
1735,-2.685588,0.915541,1.037613,0.016114,-0.012207,1.002701
1736,-2.014191,1.281758,0.732433,0.019532,-0.017700,0.999771
1737,-2.685588,1.342794,0.366217,0.015625,-0.011841,0.997818
1738,-3.845274,0.915541,0.061036,0.005005,-0.019898,1.006851
1739,-1.709010,0.610361,-0.305180,0.008179,-0.022583,1.010147
1740,1.709010,0.854505,-0.610361,0.014771,-0.028321,1.009415
1741,4.211490,1.220722,-0.549325,0.014893,-0.017578,1.002701
1742,3.356985,1.709010,-0.671397,0.012696,-0.016358,1.003067
1743,4.821851,1.770047,-0.915541,0.004639,-0.013062,0.996231
1744,5.004959,1.037613,-0.671397,0.005737,-0.004883,0.992935
1745,5.371176,0.427253,-0.976577,0.008057,-0.012573,0.995865
1746,5.554284,0.122072,-0.366217,0.015503,0.007324,0.994156
1747,1.281758,-0.122072,0.122072,0.020386,-0.003418,0.998306
1748,0.305180,0.244144,-0.122072,0.023926,-0.014282,1.001724
1749,1.159686,1.220722,-0.732433,0.005615,-0.016724,0.992569
