Packet number,Gyroscope X (deg/s),Gyroscope Y (deg/s),Gyroscope Z (deg/s),Accelerometer X (g),Accelerometer Y (g),Accelerometer Z (g)
0,-0.549325,0.122072,0.061036,0.002075,-0.005371,0.999893
2,-0.549325,0.122072,0.061036,0.0028079999999999997,-0.002441,0.9980620000000001
4,-1.2207219999999999,-0.061036,0.061036,-0.0028079999999999997,-0.0021969999999999997,1.003433
6,-0.854505,-0.061036,0.061036,-0.001343,-0.004639,0.996353
8,-0.427253,0.122072,0.061036,0.008545,0.002441,0.9983059999999999
10,-0.48828900000000003,0.061036,0.061036,-0.0058590000000000005,0.000244,0.9950100000000001
12,-0.793469,0.061036,0.122072,0.0,-0.0023190000000000003,1.002701
14,-0.671397,0.122072,0.061036,-0.0023190000000000003,-0.0037840000000000005,0.996597
16,-1.159686,0.427253,-0.122072,-0.0051270000000000005,0.0037840000000000005,0.99855
18,0.0,0.671397,0.0,-0.014038,0.00415,0.988174
20,-0.427253,0.48828900000000003,0.0,-0.0070799999999999995,0.003662,0.992569
22,-0.793469,0.061036,0.0,-0.000488,0.00293,1.00148
24,-0.854505,0.30518,0.061036,0.00061,-0.000244,0.997574
26,-0.9155409999999999,0.122072,0.061036,-0.002441,0.000977,1.00148
28,-0.976577,0.0,0.122072,-0.001709,-0.004883,0.9953770000000001
30,-0.549325,-0.244144,0.0,0.011475,0.000732,0.993057
32,-0.366217,-0.061036,0.061036,0.001953,0.005493,0.997086
34,-0.48828900000000003,0.061036,0.0,0.004273,0.005005,0.993301
36,-0.427253,0.122072,0.061036,0.001831,0.000244,1.000748
38,-0.671397,0.061036,0.183108,0.002564,-0.0015869999999999999,1.0031889999999999
40,-0.549325,0.122072,0.122072,-0.000122,0.005371,1.002579
42,-0.244144,0.122072,0.061036,-0.004639,-0.000488,0.9952540000000001
44,-0.244144,0.183108,0.122072,-0.003418,0.002686,0.995743
46,-0.366217,0.061036,0.122072,0.0035399999999999997,0.001221,1.000748
48,-0.6103609999999999,0.183108,0.061036,-0.000366,-0.000977,1.001236
50,0.0,0.549325,0.061036,-0.0051270000000000005,-0.000366,1.0040440000000002
52,0.122072,0.732433,0.122072,-0.000122,0.0063479999999999995,1.005875
54,0.549325,0.671397,0.0,0.0015869999999999999,0.009276999999999999,0.995132
56,-0.061036,0.244144,0.183108,0.003296,0.004883,0.995865
58,-0.549325,0.244144,0.122072,0.000366,0.006714,0.9909819999999999
60,-0.732433,0.48828900000000003,0.122072,-0.0063479999999999995,0.0035399999999999997,0.997818
62,-0.732433,0.48828900000000003,0.183108,0.001953,0.004639,0.996719
64,-0.244144,0.366217,0.061036,-0.000977,0.0037840000000000005,0.9948879999999999
66,-0.854505,0.427253,0.061036,-0.011353,-0.0031739999999999997,0.9945219999999999
68,-0.9155409999999999,0.183108,0.0,-0.004639,0.001709,1.0011139999999998
70,-0.732433,0.061036,0.0,-0.003906,0.007568000000000001,0.9909819999999999
72,-2.014191,-0.183108,0.0,0.001709,0.009276999999999999,0.997208
74,-2.075227,-0.061036,0.0,0.004028,-0.00061,0.9959870000000001
76,-1.7700470000000001,0.061036,0.061036,-0.004761,-0.001099,1.000992
78,-1.09865,0.183108,0.0,-0.001831,0.0008550000000000001,0.99379
80,-0.976577,-0.061036,0.0,-0.002686,0.005982,0.9914700000000001
82,-0.732433,-0.183108,0.0,-0.004883,0.007812999999999999,0.995865
84,-1.40383,-0.366217,0.0,-0.001465,0.0,1.000137
86,-1.2207219999999999,-0.183108,-0.122072,0.0031739999999999997,0.009766,0.9922030000000001
88,-1.2207219999999999,-0.061036,0.0,0.000977,0.001465,0.994034
90,-1.09865,0.122072,0.183108,0.0008550000000000001,0.007935,1.001236
92,-1.159686,-0.061036,0.183108,-0.004883,-0.003052,1.00148
94,-1.40383,-0.366217,0.061036,-0.007935,-0.00415,0.9980620000000001
96,-0.976577,-0.671397,0.0,-0.008301000000000001,0.003052,1.002579
98,-1.037613,-0.732433,-0.122072,-0.0035399999999999997,0.001831,0.988174
100,-0.9155409999999999,-0.793469,0.0,-0.0031739999999999997,-0.001465,0.9994049999999999
102,-1.2207219999999999,-0.976577,0.0,0.006226,0.0021969999999999997,1.000259
104,-1.09865,-0.732433,-0.122072,0.004639,0.007201999999999999,1.003433
106,0.671397,0.183108,-0.366217,-0.008057,0.001221,1.003922
108,1.647974,0.183108,-0.244144,-0.008301000000000001,0.0058590000000000005,0.980972
110,0.6103609999999999,-0.244144,-0.122072,0.002441,0.005737,1.00441
112,0.732433,-0.427253,0.183108,0.0094,0.009276999999999999,0.991958
114,0.854505,-0.9155409999999999,0.244144,0.014893,0.003906,1.009903
116,2.80766,-0.793469,0.366217,0.018921,-0.000122,1.017105
118,3.845274,-0.732433,0.183108,0.005493,0.009276999999999999,1.002945
120,3.173877,-0.732433,0.122072,0.017334,0.008179,1.02565
122,0.671397,-1.2207219999999999,0.244144,0.002564,0.011719,0.973159
124,1.70901,-0.793469,0.244144,0.005005,0.006714,0.997452
126,1.647974,-0.671397,0.48828900000000003,0.007201999999999999,0.012573,0.9994049999999999
128,1.70901,-0.30518,0.30518,-0.00293,0.015015,0.981949
130,0.366217,-0.671397,0.366217,-0.000244,0.018677000000000003,0.980484
132,-1.281758,-1.037613,0.183108,0.006104,0.010620000000000001,1.0008700000000001
134,0.0,-0.732433,0.244144,0.004639,0.009522,0.9980620000000001
136,0.122072,-0.671397,0.30518,0.0063479999999999995,0.013306,0.9942780000000001
138,0.0,-0.549325,0.30518,0.008789,0.016968,0.985611
140,0.427253,-0.183108,0.244144,0.012451,0.017578,1.005264
142,0.366217,0.183108,0.549325,0.006958,0.011353,0.995132
144,1.7700470000000001,0.854505,0.671397,0.0051270000000000005,0.008545,1.0036770000000002
146,2.014191,1.647974,0.793469,-0.004028,0.015259,0.9900049999999999
148,1.09865,0.671397,0.30518,-0.005005,0.036622,0.9716950000000001
150,-3.845274,-1.037613,-0.122072,-0.00061,0.027710000000000002,0.977432
152,-4.760815,-1.586938,-0.183108,0.016236,0.007812999999999999,1.010391
154,1.342794,0.48828900000000003,0.549325,0.015869,-0.004028,1.038224
156,5.493248,2.075227,0.793469,0.003662,0.018921,0.985
158,4.150454,1.342794,0.183108,-0.008789,0.034302,0.965225
160,0.732433,1.2207219999999999,0.0,-0.006592,0.029907999999999997,0.9793850000000001
162,-3.723201,0.0,0.0,-0.007691,0.029907999999999997,0.991836
164,-3.967346,-0.793469,0.30518,0.006104,0.014159999999999999,1.0057530000000001
166,-2.014191,-0.671397,0.48828900000000003,-0.0037840000000000005,0.01355,1.011124
168,-0.183108,-0.854505,0.48828900000000003,-0.0094,0.038452999999999994,0.964736
170,-5.737392,-2.380407,0.183108,0.007812999999999999,0.020630000000000003,0.9858549999999999
172,-6.042573,-1.647974,0.366217,0.014649,0.013184,0.9830469999999999
174,-7.6905470000000005,-1.40383,1.037613,0.0043950000000000005,0.006958,1.007218
176,-6.652933999999999,-0.976577,1.40383,0.008301000000000001,0.004883,1.010636
178,-5.493248,-0.6103609999999999,1.2207219999999999,-0.001343,0.013793999999999999,0.989395
180,-6.775005999999999,-2.075227,0.793469,-0.008789,0.027955,0.964981
182,-10.254063,-4.21149,0.549325,0.005005,0.000122,1.0037989999999999
184,-8.911269,-4.21149,0.427253,0.015015,0.006958,1.008316
186,-9.155413000000001,-3.90631,0.183108,0.014159999999999999,0.004028,0.9754790000000001
188,-14.770732999999998,-5.432212,0.854505,0.005615,0.004761,0.978042
190,-16.235599,-7.080186,1.2207219999999999,0.012085,-0.0031739999999999997,0.973037
192,-19.958801,-7.751583,1.464866,0.015625,-0.015991,1.001236
194,-17.639429,-6.042573,1.40383,0.012573,-0.011475,1.004166
196,-18.860151000000002,-5.493248,1.525902,0.02002,-0.009888,0.9790190000000001
198,-24.597542999999998,-4.760815,2.014191,0.007691,-0.034302,0.968765
200,-27.405203000000004,-5.981537,2.014191,0.023438,-0.039673,0.978775
202,-28.870069,-4.150454,3.479057,0.031617,-0.07800399999999999,1.039567
204,-22.1561,-0.549325,6.042573,0.0542,-0.039918,0.951675
206,-27.771420000000003,4.089418,7.141222,0.007812999999999999,-0.016236,1.005997
208,-31.128404999999997,2.868696,4.394598,0.020752,-0.029297000000000004,0.9705959999999999
210,-36.804761,3.479057,2.380407,0.011475,-0.06543099999999999,0.981216
212,-43.457694000000004,4.638743,-0.366217,0.036378,-0.046876,0.91725
214,-56.336309,4.21149,-0.793469,0.023804,-0.085939,0.9941559999999999
216,-60.791943,4.5166699999999995,-4.089418,0.018799,-0.195071,0.9979399999999999
218,-47.119859999999996,4.21149,-3.295949,0.082521,-0.201297,1.049699
220,-47.669184,7.751583,-3.6011290000000002,0.012818000000000001,-0.041871,0.949722
222,-70.435645,12.024109,-1.342794,-0.012451,0.039673,0.8208129999999999
224,-168.64271000000002,18.616007,-2.4414439999999997,0.12878599999999998,0.135988,0.968032
226,-400.09155400000003,36.804761,2.075227,0.328496,0.277958,1.349264
228,-506.78263499999997,84.71809,-14.892805,0.425666,-0.12036300000000001,1.952667
230,-614.084077,169.253071,16.906996,-0.255253,-1.272114,1.9999689999999999
232,-36.49958,19.592584,-45.593957,-0.8806290000000001,-0.668833,1.9999689999999999
234,-21.728847000000002,-47.974365,18.554971,-0.22302600000000003,0.717418,1.401389
236,70.55771700000001,-56.092164000000004,3.1128400000000003,0.5337,0.6358739999999999,0.611093
238,5.188067,-21.179522,-50.2327,0.388678,0.49121800000000004,0.775891
240,55.298694999999995,-7.751583,-83.92461999999999,-0.173587,0.457038,0.953994
242,98.512245,-32.654307,-68.116274,-0.49256099999999997,0.335088,1.28603
244,146.36453799999998,-36.316472,-39.30724,-0.5282060000000001,0.24329,1.117082
246,172.671092,-15.442129999999999,-13.794156,-0.48999799999999993,0.13586600000000001,0.9267719999999999
248,189.70016,3.1128400000000003,6.469825,-0.365118,0.087648,0.9637600000000001
250,206.485084,9.155413000000001,18.432898,-0.1084,0.092287,1.109392
252,221.805142,15.320058,11.841001,0.145754,0.079591,1.192157
254,230.41123100000002,30.640116,-2.136263,0.134157,-0.053223,1.135637
256,225.345235,37.048905,-6.591897,0.045655,-0.19409500000000002,1.157122
258,213.199054,40.833143,-6.71397,0.098878,-0.19861099999999998,1.199725
260,199.893187,29.724575,-12.756542,0.20923200000000003,-0.093385,1.929229
262,229.06843700000002,32.349126,-32.776379,0.25903699999999996,-0.269047,1.9999689999999999
264,238.040742,33.69192,-46.32639,-0.015991,-0.423835,1.9194630000000001
266,254.093233,26.916915000000003,-37.537194,-0.212772,-0.5302819999999999,1.9217819999999999
268,250.85832000000002,30.334936,-22.766461,-0.080323,-0.5785,1.541772
270,229.190509,39.063096,-14.892805,-0.007568000000000001,-0.63563,1.4409399999999999
272,203.860533,38.818952,-5.981537,-0.003052,-0.752941,1.162005
274,163.33257,27.161059,-2.4414439999999997,0.112673,-0.863661,1.304341
276,142.214084,25.513085,-20.019837,0.39966399999999996,-1.261616,1.191058
278,105.89761200000001,51.697565999999995,-54.322118,0.5138020000000001,-1.790921,0.63978
280,50.171664,52.246891,-50.659953,0.005493,-1.8874799999999998,0.020508000000000002
282,-91.73724,-72.51087199999999,-4.455634,-0.08191,-2.0000310000000003,-1.51809
284,-262.516213,-159.12108,15.075914000000001,0.5629970000000001,-2.0000310000000003,0.23389000000000001
286,-135.500114,-67.07866,4.089418,-0.376959,0.842664,1.9999689999999999
288,-237.369345,-75.379568,26.489662,-0.119997,-0.23047199999999998,0.303716
290,-265.140764,-38.757915999999994,46.143282,0.253544,-0.099367,1.9999689999999999
292,-85.08430600000001,-4.333562000000001,20.202945,-0.017823,-0.053223,1.1454030000000002
294,-178.042268,-24.658579,46.32639,-0.230594,-0.089479,1.987579
296,-30.151827,-69.642176,26.428626,0.46167700000000006,0.2262,1.9999689999999999
298,-12.695506,-6.530861,8.056764,-0.148928,0.14648699999999998,0.929824
300,-58.533607999999994,-34.607462,3.540093,0.276982,-0.010986,1.277363
302,-52.368963,-8.42298,1.342794,-0.177005,0.013793999999999999,1.037369
304,-27.527276,-11.779964999999999,-1.953155,0.09253099999999999,0.045533,1.124651
306,-26.123445,-3.845274,0.0,0.067506,-0.020386,1.1299
308,-20.019837,6.2867169999999994,1.70901,-0.005005,0.008301000000000001,1.036759
310,-15.13695,7.507439,2.563516,-0.058961,0.055665,1.1089040000000001
312,-14.526589000000001,6.408789,2.014191,-0.044433999999999994,-0.035644999999999996,0.995865
314,-10.925460000000001,3.479057,1.525902,-0.030396,0.003906,1.0046540000000002
316,-7.01915,0.48828900000000003,0.671397,-0.021363,-0.008545,1.021012
318,-2.4414439999999997,-0.366217,0.549325,-0.019287000000000002,-0.0070799999999999995,1.007462
320,-2.746624,-1.464866,0.427253,-0.037110000000000004,0.02356,0.97377
322,-3.173877,-2.2583349999999998,0.9155409999999999,-0.058227999999999995,0.099733,1.0560459999999998
324,-6.469825,-4.394598,0.671397,-0.01294,-0.000122,0.962173
326,-9.582666,-4.577707,0.976577,-0.019776,-0.001099,0.999283
328,-8.667124000000001,-3.784237,0.549325,-0.006714,-0.024659,1.029801
330,-6.164645,-1.159686,0.427253,-0.11303900000000001,0.15259,1.3930879999999999
332,-7.141222,-1.586938,0.732433,-0.004273,-0.039307,0.9107799999999999
334,-7.812619000000001,-1.586938,1.8310830000000002,-0.036866,0.009766,0.965591
336,-12.268253999999999,-5.188067,1.647974,-0.026001,-0.015381,0.9956209999999999
338,-15.747310999999998,-8.545052,1.40383,-0.022338999999999998,-0.019165,0.9751129999999999
340,-21.667811,-9.948882000000001,0.30518,-0.014649,-0.002564,0.9354389999999999
342,-34.058137,-8.789197,1.09865,0.028808999999999998,-0.009276999999999999,0.9950100000000001
344,-41.443503,-7.080186,1.40383,0.039796,0.002564,0.9557030000000001
346,-47.852292999999996,-2.197299,3.479057,0.005493,-0.10620299999999999,1.0352940000000002
348,-46.204318,1.586938,7.934691,0.034913,-0.128664,1.001724
350,-36.926833,3.173877,9.155413000000001,0.011840999999999999,-0.077394,1.076432
352,-42.603189,0.244144,4.699779,-0.031006,-0.033936,0.992569
354,-57.740139,-3.234913,-3.051804,-0.050172,-0.087404,0.9741360000000001
356,-74.464027,-6.897078,-10.803388,-0.012695999999999999,-0.21423699999999998,1.063859
358,-44.495308,-4.699779,-2.319371,0.029541,-0.21325999999999998,1.010513
360,-42.236973,-5.61532,-9.704738,0.024903,-0.134279,1.013687
362,-49.805446999999994,2.2583349999999998,-11.902037,-0.036622,0.276371,0.887709
364,-138.124666,-5.981537,-28.686961,0.157595,0.159304,0.689708
366,-391.180285,-20.325017000000003,-27.038987,-0.067384,0.9315329999999999,1.614771
368,-686.350805,-31.433584999999997,-9.643702000000001,-0.258183,0.186282,1.3827120000000002
370,-890.33341,-53.223468000000004,3.784237,-0.180667,-0.339239,0.701793
372,-264.10315099999997,-25.26894,62.867169999999994,-1.811795,-0.984512,1.9999689999999999
374,187.380789,-44.678416,-5.0049589999999995,-0.9323870000000001,1.503929,1.9999689999999999
376,50.049592,-46.509499,81.91043,-0.215824,0.199344,0.35108
378,66.956588,-47.364004,41.565576,0.240848,0.425055,0.249638
380,83.070115,2.685588,12.878614,0.21789899999999998,0.46497299999999997,0.928481
382,110.231174,-0.793469,-12.817578,-0.033082,0.43811700000000003,1.119402
384,174.56321100000002,-23.132676999999997,-21.362631,-0.155764,0.40271599999999996,1.328756
386,225.406271,-11.291675999999999,-27.038987,-0.17566199999999998,0.210208,1.4813459999999998
388,267.277028,19.409476,-27.527276,-0.23608800000000002,-0.040162,1.100847
390,280.33875,18.310826000000002,-16.418708,-0.16894800000000001,-0.15552,0.831312
392,278.995956,8.178836,-13.183795000000002,0.03772,-0.149783,1.053361
394,266.17837799999995,46.387427,-32.104982,0.19202,-0.36609400000000003,0.9611959999999999
396,238.406958,76.90547,-43.335622,0.065919,-0.382818,1.156268
398,223.27000800000002,73.670558,-36.49958,-0.24805100000000002,-0.380255,1.896025
400,233.829252,94.239719,-7.263294,-0.383307,-0.637827,1.9999689999999999
402,243.778134,100.526436,24.597542999999998,-0.257939,-0.7642939999999999,1.9999689999999999
404,255.92431499999998,88.746471,43.335622,0.105959,-0.888075,1.9706110000000001
406,247.135119,87.220569,40.466926,0.237064,-0.813489,1.970977
408,254.39841299999998,73.365377,27.893492,0.232425,-0.807874,1.772732
410,244.02227799999997,53.589684999999996,12.63447,0.212772,-0.922011,1.609277
412,222.96482799999998,42.847333,-5.859464,0.199222,-1.128923,1.367453
414,187.441825,36.926833,-27.466239,0.369268,-1.624048,1.3001909999999999
416,143.49584199999998,74.464027,-61.585412,0.532357,-2.0000310000000003,0.48511499999999996
418,72.3888,65.67483,-54.993515,0.155764,-2.0000310000000003,-0.8767219999999999
420,-57.49599499999999,-73.18226899999999,-12.695506,-0.038331,-1.786404,-0.032958999999999995
422,-232.91371,-232.79163799999998,25.696193,0.170535,-0.655283,0.518807
424,-135.317006,-135.62218700000003,30.823224,-1.012833,1.352926,1.9999689999999999
426,-286.381323,-131.593805,83.98565699999999,-0.449104,-0.537728,-0.428962
428,-340.154116,-85.450523,99.855039,1.540551,0.022827,1.9999689999999999
430,-123.414969,-6.775005999999999,-5.188067,1.245136,-0.07727200000000001,1.9999689999999999
432,-184.878309,-8.606088,33.752956,-1.426658,-0.733288,1.9999689999999999
434,-46.814679,-81.666285,0.9155409999999999,1.4104219999999998,0.08691499999999999,1.868681
436,-59.327077,-10.803388,11.718929,-0.753429,-0.05139199999999999,1.141497
438,-20.263981,-32.227053999999995,-2.929732,0.367437,0.088136,1.258442
440,-15.075914000000001,-20.019837,-0.549325,0.047608,-0.039185000000000005,1.046525
442,-27.405203000000004,-12.817578,2.014191,0.046387,-0.026612,1.15993
444,-6.469825,-0.061036,4.577707,0.09033300000000001,0.054810000000000005,1.038468
446,-6.042573,5.0049589999999995,5.065995,0.046508999999999995,0.030518,0.9786530000000001
448,-10.986496,7.446403,4.882887,0.0058590000000000005,0.016968,0.961685
450,-18.677042999999998,3.6011290000000002,3.418021,-0.01648,0.024048,0.94081
452,-26.062409,-0.061036,2.014191,-0.004517,-0.009522,1.026505
454,-15.259022,1.8310830000000002,1.464866,-0.014527000000000002,0.000122,1.178485
456,-20.569162,-0.061036,2.136263,0.025757,-0.013428,0.991226
458,-24.292363,-0.549325,1.40383,0.020752,-0.025635,0.986099
460,-25.574120999999998,0.9155409999999999,0.366217,0.009276999999999999,-0.015503,0.963149
462,-32.532235,2.4414439999999997,-0.6103609999999999,0.024903,-0.04419,1.013443
464,-34.912642,5.61532,-1.953155,-0.017823,-0.089601,1.032853
466,-32.349126,5.737392,0.30518,-0.009766,-0.09131,1.0914469999999998
468,-20.935378,6.408789,1.525902,0.010742,-0.110475,1.019303
470,-17.761501000000003,4.21149,2.319371,0.012818000000000001,-0.07055800000000001,0.997086
472,-19.65362,3.295949,1.70901,0.001831,-0.084596,1.003311
474,-20.141909,3.540093,1.09865,0.009155,-0.07715,0.9781639999999999
476,-28.686961,1.70901,1.159686,-0.023194,-0.086549,0.972305
478,-32.410163,1.342794,2.80766,-0.007935,-0.145266,0.984756
480,-33.508812,1.525902,3.6621650000000003,-0.021851,-0.10656900000000001,0.976699
482,-37.59823,-2.380407,2.014191,-0.016968,-0.112551,0.9664450000000001
484,-49.195087,-1.586938,4.577707,0.000488,-0.188602,1.0788739999999999
486,-33.142596000000005,4.394598,1.342794,-0.050538,-0.19836700000000002,1.171893
488,-32.593271,-1.2207219999999999,-2.2583349999999998,-0.061279999999999994,-0.133913,1.006241
490,-26.001373,-11.108568,-14.587625,-0.004517,-0.288457,1.099748
492,-21.911955,-9.399557000000001,-10.559242999999999,0.07800399999999999,-0.254398,1.087053
494,-9.52163,-4.394598,-1.037613,0.014771000000000001,-0.146609,1.029557
496,-15.503166,4.089418,1.40383,0.081666,-0.073854,0.980606
498,-55.786984,2.80766,-13.733120000000001,-0.003418,0.194949,0.8490120000000001
500,-155.764096,-7.385367,-36.621653,-0.034668,0.055909,0.666636
502,-575.3261620000001,0.854505,-17.151141,0.121218,0.226444,1.164202
504,-787.792783,-54.13901,-4.760815,0.11877599999999999,-0.228397,1.507469
506,-983.962768,-77.515831,49.195087,0.119753,-2.0000310000000003,1.9999689999999999
508,241.886015,-18.493935,-80.872816,-0.346929,0.356085,1.9999689999999999
510,83.436332,-50.904097,-21.667811,-0.536995,1.130632,1.722316
512,150.514992,-32.593271,13.672084,-0.240848,0.2262,0.670665
514,86.12191999999999,-19.714656,7.934691,-0.045899,0.354498,0.37219800000000003
516,148.439765,-5.7984279999999995,0.48828900000000003,-0.138674,0.363043,0.905531
518,166.079194,-26.367590000000003,1.09865,-0.197391,0.279179,1.042374
520,216.73914700000003,-21.789883,-4.760815,-0.21252800000000002,0.241215,0.9084610000000001
522,234.31753999999998,-1.525902,-5.127031,-0.358526,0.053101,1.144427
524,262.882429,10.070953999999999,4.577707,-0.386236,-0.06836,1.486839
526,302.861067,34.058137,14.770732999999998,-0.311894,-0.278447,1.423972
528,311.833371,50.965133,21.362631,-0.088746,-0.463996,0.839368
530,270.328832,56.153201,17.578393,0.187869,-0.54725,0.792493
532,236.881056,50.415808,-6.225681,0.36609400000000003,-0.303349,1.34902
534,212.16144,58.472572,-29.114214,0.266484,-0.33166999999999996,1.9999689999999999
536,277.409018,50.110628000000005,-55.420768,0.197391,-0.6837260000000001,1.86685
538,229.312581,57.190814,-59.082933,-0.12109600000000001,-0.776379,1.9999689999999999
540,263.309682,60.914015,-45.349813,-0.204715,-0.8524299999999999,1.9999689999999999
542,279.240101,70.37460899999999,-32.959487,0.045777,-0.88307,1.522118
544,240.48218500000002,73.12123299999999,-32.471199,0.203372,-0.877333,1.600366
546,229.373617,68.909743,-38.452735,0.211063,-1.010758,1.5564200000000001
548,192.20264,77.759976,-37.476158,0.14721900000000002,-1.4848860000000002,0.9990389999999999
550,116.823072,89.662013,-31.067369,0.410285,-2.0000310000000003,0.6607770000000001
552,77.210651,83.61944,-24.719615,0.46826899999999994,-2.0000310000000003,-0.205325
554,-26.001373,-28.992141999999998,0.0,0.47168699999999997,-1.439719,-0.079225
556,-68.787671,-92.530709,9.155413000000001,0.130129,-0.9028459999999999,1.3038530000000002
558,-249.027237,-213.199054,57.984283,-0.038209,-0.447883,0.456794
560,-81.78835699999999,-36.49958,56.153201,-0.7204699999999999,1.119524,1.654078
562,-329.655909,-112.79468999999999,92.530709,0.6989850000000001,-0.317021,-0.190433
564,-367.254139,-62.806134,56.153201,1.9999689999999999,-0.305669,1.9999689999999999
566,-94.605936,12.573433999999999,-28.931106,-0.995132,-0.24683000000000002,1.9999689999999999
568,-80.079347,-104.921035,57.679103000000005,-0.8072630000000001,-0.45972399999999997,0.8966200000000001
570,-52.491035,-29.297321999999998,-1.647974,1.4032200000000001,-0.290532,1.625025
572,-66.102083,-55.664912,5.7984279999999995,-0.011475,-0.046143,0.9788969999999999
574,-48.645762,1.281758,3.234913,-0.114626,-0.057008,1.284565
576,-6.71397,-10.498207,-4.089418,0.23193699999999998,0.080323,1.0954760000000001
578,-6.408789,4.882887,0.732433,0.057374,0.034913,1.034806
580,-18.860151000000002,17.822538,2.563516,0.026368,0.003052,1.033097
582,-11.291675999999999,18.310826000000002,3.356985,0.0542,0.021606999999999998,1.023941
584,-10.437171000000001,17.578393,4.272526,-0.028321,0.041749,0.9476459999999999
586,-15.686275,12.695506,4.394598,-0.028076999999999998,-0.011231,1.004166
588,-10.070953999999999,5.371176,3.356985,-0.027587999999999998,0.014405000000000001,0.964736
590,-9.887846000000001,-2.624552,2.380407,-0.038697,0.007201999999999999,0.9660790000000001
592,-11.718929,-7.080186,1.40383,-0.024537,0.006226,0.9758450000000001
594,-13.733120000000001,-7.446403,1.037613,-0.04773,0.088136,1.179217
596,-19.34844,-10.254063,2.197299,0.005493,-0.019165,0.918715
598,-20.752270000000003,-12.756542,2.4414439999999997,-0.014893,-0.006104,1.013809
600,-18.982223,-12.878614,1.09865,0.015137000000000001,0.020996,1.090959
602,-21.301595000000002,-12.207218,0.244144,0.026368,-0.026978,0.9941559999999999
604,-18.860151000000002,-8.361944,-0.122072,0.023072,-0.041016000000000004,1.032609
606,-15.442129999999999,-5.676356,0.183108,0.027832,-0.044433999999999994,1.021256
608,-17.517357,-5.493248,0.183108,0.013428,-0.030762,0.989517
610,-19.470512,-6.652933999999999,-0.549325,0.029053,-0.030883999999999998,0.986099
612,-24.536507,-6.2867169999999994,-1.7700470000000001,0.041138,-0.05774,1.011124
614,-20.386053,-4.699779,-0.671397,0.032593000000000004,-0.071412,1.02443
616,-18.738079,-4.455634,0.366217,0.000732,-0.05005,0.961074
618,-29.724575,-7.751583,2.2583349999999998,0.031495,0.042481,0.8548709999999999
620,-57.984283,2.075227,6.836042,0.020142,-0.105592,0.966934
622,-62.439918000000006,7.080186,10.620279,0.045288999999999996,-0.08447400000000001,1.007462
624,-67.383841,8.178836,9.277485,0.0271,-0.134157,0.918715
626,-74.464027,7.9957270000000005,4.577707,-0.02417,-0.250492,1.0053860000000001
628,-32.410163,-5.432212,-15.686275,0.010864,-0.173709,1.026261
630,-27.954528000000003,1.281758,1.037613,0.057252,-0.150515,1.002701
632,-38.025483,3.540093,-8.056764,0.105226,0.182498,0.9149309999999999
634,-133.424887,0.122072,-34.668498,-0.132204,0.141726,0.695567
636,-320.378424,-41.626612,-9.033341,-0.11926500000000001,0.83534,1.207904
638,-663.889525,-116.823072,33.569848,-0.26269899999999996,0.21265,1.7470970000000001
640,-873.060197,-150.148775,37.90341,0.18298599999999998,-0.102174,0.972305
642,-546.6392,-40.955215,176.699474,-0.918227,-0.7957890000000001,1.9999689999999999
644,349.00434900000005,34.546426000000004,-83.741512,-0.235233,1.2152290000000001,1.649805
646,-28.198672,-7.446403,23.926146,-0.47303,0.15967,0.168826
648,125.246052,-18.860151000000002,22.705425,-0.219608,0.47778999999999994,0.072755
650,50.2327,-0.549325,19.592584,0.041138,0.344854,0.8016479999999999
652,112.79468999999999,12.939651,-0.122072,-0.185916,0.48963100000000004,1.169574
654,180.422675,4.21149,3.1128400000000003,-0.313481,0.26453000000000004,1.2442819999999999
656,212.222477,14.282444,10.193027,-0.268925,0.10144199999999999,0.997208
658,233.768215,38.941024,15.442129999999999,-0.16430899999999998,-0.026368,1.150896
660,259.037156,49.744411,19.65362,0.009033,-0.11548,1.105486
662,263.981079,36.682689,9.399557000000001,0.38110900000000003,-0.251225,1.1692069999999999
664,272.40405899999996,41.931792,-21.240558,0.505257,-0.280034,1.246357
666,264.46936800000003,43.457694000000004,-46.448463000000004,0.32800799999999997,-0.43665200000000004,1.3829559999999999
668,263.431754,35.88922,-47.42504,-0.06640700000000001,-0.494148,1.719509
670,270.08468799999997,42.90837,-32.471199,-0.181399,-0.543709,1.8971240000000003
672,270.51194,60.730906999999995,-17.395285,-0.06482,-0.598398,1.9361869999999999
674,269.53536299999996,64.759289,-8.545052,0.153445,-0.621958,1.711818
676,255.863279,45.288777,-10.864424,0.348394,-0.572763,1.578149
678,235.17204500000003,30.884259999999998,-26.794842,0.333623,-0.5250319999999999,1.697414
680,219.05851800000002,32.166018,-47.486076000000004,0.16907,-0.634409,1.76321
682,194.583047,51.575494,-68.23834599999999,0.224613,-1.049332,1.559472
684,158.022431,82.581827,-99.732967,0.606943,-1.719875,1.106096
686,84.840162,134.279393,-118.28793799999998,0.38196399999999997,-2.0000310000000003,0.7855340000000001
688,70.618753,99.24467800000001,-70.313573,-0.125612,-2.0000310000000003,-0.542367
690,-51.575494,-73.731594,5.9205,-0.290532,-2.0000310000000003,-0.62562
692,-258.18265099999996,-282.475013,56.275273,0.5544520000000001,-1.08925,0.857801
694,-120.79041699999999,-75.013352,58.716716000000005,-0.7234,1.3346149999999999,1.9999689999999999
696,-272.64820299999997,-126.58884599999999,81.605249,0.890272,-0.493904,-0.154055
698,-322.331579,-61.158159999999995,50.354772,1.696925,0.094606,1.9999689999999999
700,-87.586786,11.535821,-15.625238000000001,-0.756603,-0.266361,1.216449
702,-146.18143,-117.00618,60.547799,-0.41199399999999997,-0.40943,1.935332
704,-29.846646999999997,-16.906996,0.732433,0.7900510000000001,0.0448,1.422385
706,-68.17730999999999,-60.364691,6.591897,0.184695,-0.02002,1.183124
708,-47.364004,-0.244144,3.418021,-0.343511,-0.05712999999999999,1.200336
710,-29.114214,-14.526589000000001,0.30518,0.198978,0.033814,1.17055
712,-12.878614,-7.01915,1.8921189999999999,0.076051,0.011963,1.012589
714,-19.65362,1.647974,4.699779,0.013793999999999999,-0.009276999999999999,1.042985
716,-15.320058,4.638743,4.455634,0.028443,-0.007691,1.02565
718,-15.625238000000001,5.554284,3.479057,0.003418,0.002564,0.9871979999999999
720,-16.540779999999998,2.80766,3.356985,0.026856,-0.032105,1.022843
722,-11.535821,0.9155409999999999,2.990768,-0.008301000000000001,-0.007568000000000001,0.9870760000000001
724,-10.925460000000001,-1.70901,2.014191,0.01709,-0.036744,1.036027
726,-7.568475,-2.014191,0.793469,0.019653999999999998,-0.040772,0.9914700000000001
728,-7.629511,-3.356985,0.732433,-0.0031739999999999997,-0.004517,0.968643
730,-10.009917999999999,-4.699779,1.037613,0.013793999999999999,-0.038331,1.014054
732,-9.704738,-4.882887,0.793469,0.014771000000000001,-0.020996,0.9826809999999999
734,-14.221407999999998,-7.141222,-0.366217,0.017823,-0.021118,0.9740139999999999
736,-16.479744,-7.385367,-0.854505,0.028443,-0.035157,0.980606
738,-22.644388,-6.347753,-0.30518,0.028199000000000002,-0.037842,0.994034
740,-24.231327,-4.5166699999999995,0.0,0.044677999999999995,-0.053223,0.983658
742,-23.498894,-3.051804,-0.244144,0.035644999999999996,-0.051637,0.997086
744,-27.832456,-3.295949,-0.732433,0.034058,-0.076661,0.993301
746,-28.625925,-0.671397,-0.122072,0.033569999999999996,-0.067018,0.992325
748,-33.203632,-0.48828900000000003,-0.244144,0.009644,-0.044068,0.9542379999999999
750,-49.561303,1.525902,-0.793469,0.042969,-0.081788,0.976822
752,-65.06446899999999,7.9957270000000005,2.868696,0.019776,-0.102907,0.9945219999999999
754,-57.679103000000005,9.765774,6.225681,0.01355,-0.17993399999999998,1.0584879999999999
756,-44.800488,13.672084,10.498207,-0.010620000000000001,-0.18823499999999999,1.006729
758,-38.513771000000006,12.024109,11.291675999999999,-0.055787,-0.165774,1.001602
760,-35.339895,2.685588,-6.71397,-0.045288999999999996,-0.235843,0.996719
762,-10.803388,-8.056764,-15.197985999999998,0.048585,-0.21118499999999998,1.026505
764,-14.892805,0.427253,1.40383,0.055299,-0.135134,1.040665
766,-33.997101,11.779964999999999,-7.568475,0.14721900000000002,-0.12732100000000002,0.945693
768,-60.914015,8.239872,-17.395285,-0.021363,0.327764,0.797131
770,-167.788205,-17.212177,-20.019837,-0.23474499999999998,0.071778,0.7577020000000001
772,-580.4531929999999,-42.725260999999996,27.893492,-0.16968,0.340826,1.250385
774,-774.792096,-114.01541200000001,38.69688,0.21338200000000002,-0.057862000000000004,1.250629
776,-989.39498,-104.066529,104.859998,0.680674,-2.0000310000000003,1.9999689999999999
778,321.35500099999996,-40.222782,-77.943084,-0.39758899999999997,1.2485540000000002,1.9999689999999999
780,106.752117,-88.441291,-41.626612,-0.56434,0.8719620000000001,1.140032
782,139.284352,-93.202106,-3.479057,-0.275395,0.24438800000000002,0.079957
784,75.074388,-54.44419,-16.174563,-0.11523599999999999,0.35657300000000003,0.521614
786,133.30281499999998,-6.164645,-31.494621000000002,-0.285893,0.42639799999999994,1.2331729999999999
788,178.957809,-19.409476,-26.245518,-0.46338599999999996,0.298711,1.301289
790,230.16708599999998,-5.737392,-16.906996,-0.464729,0.15600799999999998,1.003311
792,244.632639,26.428626,-4.577707,-0.529305,-0.043213999999999995,0.9392229999999999
794,252.87251099999997,48.584726,17.090104999999998,-0.409918,-0.136233,1.025895
796,267.09391899999997,67.07866,26.550697999999997,0.035523,-0.096193,1.228168
798,265.262837,86.30502800000001,11.596857,0.336919,-0.31299299999999997,1.228901
800,262.821393,89.051652,-1.525902,0.49817700000000004,-0.363775,1.362203
802,261.356527,63.050278000000006,-28.442816999999998,0.667247,-0.407111,1.0677649999999999
804,204.226749,63.477531000000006,-47.180896000000004,0.401984,-0.405158,1.636622
806,208.43823899999998,59.266041,-57.06874200000001,0.098024,-0.579721,1.9999689999999999
808,231.143664,80.872816,-50.049592,-0.191531,-0.763439,1.993439
810,233.890288,61.707485,-21.545739,-0.19263,-0.7651479999999999,1.9999689999999999
812,254.64255699999998,51.514458000000005,-13.061722999999999,0.1991,-0.715953,1.8661169999999998
814,245.18196400000002,65.430686,-30.273899,0.373053,-0.715953,1.574487
816,225.10109100000003,77.515831,-49.988556,0.363043,-0.802136,1.474266
818,202.88395500000001,82.337682,-52.368963,0.17810299999999998,-1.102068,1.125505
820,157.289998,72.3888,-33.508812,0.017823,-1.5912110000000002,0.759899
822,89.600977,78.00412,-4.089418,0.029419,-2.0000310000000003,0.5240560000000001
824,41.80972,48.706798,34.485389,-0.005615,-1.9139700000000002,0.211917
826,-19.226368,-18.799115,69.58114,0.28455,-1.107317,0.204715
828,-54.871443000000006,-83.92461999999999,72.755016,0.822522,-0.370733,1.151873
830,-210.14725,-110.96360700000001,2.685588,1.237201,-0.937026,-0.10009900000000001
832,-99.916075,-98.75639,-20.813306,0.07849199999999999,0.7600210000000001,1.9194630000000001
834,-379.278248,-39.246204,9.948882000000001,-0.783459,0.11230599999999999,0.733532
836,-276.859693,-32.837415,19.775692000000003,0.602304,-0.605966,1.9999689999999999
838,-111.26878799999999,12.939651,17.090104999999998,-0.638193,0.165042,1.9999689999999999
840,-115.053025,-53.589684999999996,52.124819,-0.347173,-0.220829,1.090837
842,-73.243305,-66.346227,19.409476,0.766735,-0.07727200000000001,1.869413
844,-63.965819999999994,-53.77279300000001,10.070953999999999,0.058717,0.190555,1.173846
846,-51.270314,-16.540779999999998,0.061036,0.039063,-0.041260000000000005,1.118914
848,-40.283818,-11.841001,0.122072,0.136721,-0.08716,1.1497979999999999
850,-23.437858,-0.183108,3.479057,0.015137000000000001,-0.022216999999999997,1.1030440000000001
852,-18.677042999999998,4.333562000000001,3.051804,0.006836,0.006226,1.029191
854,-14.160372,3.479057,2.136263,0.046021,0.020996,1.010513
856,-15.13695,5.065995,2.990768,-0.009033,0.012329000000000001,1.001846
858,-17.395285,3.418021,3.723201,-0.0177,0.008545,1.001602
860,-16.296635000000002,2.4414439999999997,3.1128400000000003,-0.056641,0.185306,1.454124
862,-15.991454999999998,-0.976577,2.746624,-0.023316,-0.055665,0.9131
864,-13.672084,-3.1128400000000003,2.929732,-0.032958999999999995,-0.000977,1.0080719999999999
866,-13.977264000000002,-4.5166699999999995,-0.854505,0.092042,-0.23743000000000003,0.622202
868,-14.831769,-7.446403,2.014191,-0.02002,-0.009888,0.970352
870,-14.831769,-7.873655,1.8310830000000002,-0.018189,-0.012329000000000001,0.989029
872,-12.817578,-8.056764,1.40383,0.02356,-0.010742,1.01857
874,-12.756542,-8.361944,0.30518,0.013062,-0.059204999999999994,1.0011139999999998
876,-13.183795000000002,-7.934691,1.40383,0.019532,-0.026001,1.0215
878,-13.550010999999998,-5.7984279999999995,-0.549325,0.078737,-0.13086099999999998,0.886122
880,-15.320058,-6.164645,0.48828900000000003,0.009644,-0.049439,1.014908
882,-14.343481,-4.699779,0.30518,0.028931000000000002,-0.050294,1.006729
884,-14.221407999999998,-3.173877,1.2207219999999999,0.019898,-0.054932,0.9410540000000001
886,-24.780652,-3.784237,2.746624,0.013793999999999999,-0.019532,0.9633940000000001
888,-38.269627,-1.70901,5.127031,-0.005249,-0.059937,0.964981
890,-46.997787,-1.525902,6.347753,-0.005982,-0.037598,0.960464
892,-51.819638,1.037613,7.385367,0.072999,-0.121584,1.105852
894,-46.509499,4.882887,9.52163,0.0094,-0.127443,1.022965
896,-50.598917,10.315099,5.7984279999999995,-0.08777,-0.161379,1.171283
898,-58.899825,0.48828900000000003,-3.051804,-0.029053,-0.087404,0.992569
900,-49.744411,-1.09865,-5.859464,0.041627,-0.218509,0.9952540000000001
902,-32.104982,-5.432212,-5.859464,0.058473000000000004,-0.210575,1.057755
904,-34.302281,0.0,-2.50248,-0.000122,-0.105715,0.950332
906,-41.260395,3.356985,-8.850233,-0.011597,0.34876,0.8610969999999999
908,-137.75845,-1.586938,-32.654307,0.16894800000000001,0.16931400000000002,0.706676
910,-487.006943,-4.089418,-16.052491,0.15698499999999999,1.333761,1.5016100000000001
912,-864.576181,-23.071641,19.226368,0.424201,-0.391852,1.499657
914,-971.267262,1.037613,206.912337,-1.109026,-0.9077290000000001,1.9999689999999999
916,373.296712,-13.061722999999999,-75.44060400000001,-0.064454,0.708873,1.9999689999999999
918,-58.838788,-20.813306,7.934691,-0.11230599999999999,0.579843,-0.107179
920,33.875029,-13.672084,6.469825,-0.022461000000000002,0.33411199999999996,0.514778
922,12.32929,-11.718929,-4.577707,0.11303900000000001,0.548104,0.975601
924,95.155261,-8.972305,-26.733806,0.019776,0.664439,0.977798
926,141.176471,-11.291675999999999,-34.79057,-0.098268,0.526375,1.249897
928,199.404898,-7.507439,-36.316472,-0.12903,0.333135,1.07277
930,228.336004,0.732433,-33.325703999999995,-0.126589,0.16858199999999998,0.8211799999999999
932,242.252232,2.990768,-28.809033000000003,-0.106081,0.11120799999999999,0.892592
934,257.81643399999996,6.958114,-28.137635999999997,-0.034546,0.087037,1.277852
936,278.507668,31.189441,-33.936065,-0.037476,-0.116823,1.085588
938,265.079728,50.598917,-30.762188000000002,-0.122072,-0.26306599999999997,1.068376
940,250.125887,57.434957999999995,-20.508125,-0.056275,-0.18396300000000002,1.66067
942,257.81643399999996,63.050278000000006,-11.779964999999999,-0.061402,-0.24622,1.9999689999999999
944,286.381323,60.18158199999999,-5.371176,-0.055299,-0.322515,1.9999689999999999
946,311.100938,62.867169999999994,-3.418021,-0.035279000000000005,-0.650034,1.9999689999999999
948,281.74258,67.322805,1.342794,-0.012451,-0.621225,1.9999689999999999
950,297.917144,72.755016,-9.643702000000001,0.32898499999999997,-0.61268,1.9999689999999999
952,284.24506,75.013352,-24.597542999999998,0.45191099999999995,-0.8410770000000001,1.8653849999999998
954,240.238041,66.956588,-33.38674,0.26001399999999997,-1.5511709999999999,1.401389
956,150.6981,71.656367,-49.561303,0.495857,-2.0000310000000003,1.0036770000000002
958,82.52079,163.698787,-81.300069,0.361334,-2.0000310000000003,0.303593
960,16.113526999999998,33.508812,-12.207218,-0.45728199999999997,-2.0000310000000003,-1.097917
962,-225.223163,-207.034409,66.65140799999999,0.404425,-1.432273,-0.081178
964,-158.266575,-117.43343300000001,56.702525,-0.544076,0.282475,1.9999689999999999
966,-221.560998,-108.5832,80.140383,0.188357,0.45093500000000003,-0.178836
968,-367.315175,-75.928893,70.98496999999999,1.7221939999999998,-0.276371,1.9999689999999999
970,-207.156481,-2.624552,-14.953841,1.119768,-0.328252,1.9999689999999999
972,-189.150835,3.356985,27.466239,-2.0000310000000003,-0.521004,1.9999689999999999
974,-53.955901000000004,-149.78255900000002,21.789883,1.9999689999999999,0.6201270000000001,1.9999689999999999
976,-14.770732999999998,27.649348,14.648660999999999,-1.365133,0.157595,0.8298469999999999
978,-24.292363,-51.819638,-7.507439,0.9633940000000001,0.193118,1.72842
980,-22.888533,-19.65362,2.868696,-0.138918,-0.10009900000000001,1.159442
982,-25.940337,-13.122759,1.464866,0.031495,-0.021729,1.124407
984,-6.652933999999999,-8.545052,0.793469,0.103273,0.102296,0.936416
986,-11.902037,-2.4414439999999997,2.685588,0.06652899999999999,0.009522,0.999527
988,-18.616007,2.50248,2.990768,0.042725,-0.012085,1.038712
990,-16.723888,4.5166699999999995,2.990768,0.0028079999999999997,-0.013672,1.006119
992,-16.357671,0.732433,2.4414439999999997,0.005982,-0.001465,0.9959870000000001
994,-18.066682,-4.394598,1.09865,0.03125,0.019287000000000002,0.996719
996,-19.165332,-4.21149,0.549325,0.032593000000000004,-0.049194999999999996,0.980972
998,-20.447089000000002,-4.5166699999999995,0.244144,0.026978,-0.021973,0.984878
1000,-23.315785,-4.760815,-0.122072,0.028931000000000002,-0.030639999999999997,1.019547
1002,-21.667811,-3.6621650000000003,-0.183108,0.020874,-0.04065,1.000137
1004,-24.536507,-4.272526,-0.732433,0.031983,-0.017212,0.9749899999999999
1006,-29.907683000000002,-3.6621650000000003,-0.976577,0.041993,-0.054565999999999996,1.005264
1008,-31.128404999999997,-3.234913,-0.366217,0.043946,-0.077638,1.001602
1010,-28.625925,-1.159686,1.342794,0.036866,-0.10132000000000001,0.9935450000000001
1012,-24.780652,2.624552,3.234913,0.041016000000000004,-0.074586,1.0121
1014,-26.428626,2.380407,2.929732,0.022705,-0.09057799999999999,0.978775
1016,-27.588312,1.647974,1.037613,0.02417,-0.07019199999999999,0.980972
1018,-35.645075,5.371176,3.051804,0.047242,-0.099001,1.010758
1020,-43.640803000000005,8.42298,4.577707,0.025757,-0.040772,1.015152
1022,-57.862211,9.216449,5.065995,0.039673,-0.143679,1.1386889999999998
1024,-40.466926,12.32929,8.850233,0.045777,-0.18701500000000001,1.055558
1026,-37.659265999999995,11.902037,8.911269,-0.04004,-0.18323,0.977676
1028,-28.259709,-0.30518,-7.629511,0.010620000000000001,-0.25037,1.014298
1030,-12.451362,-4.5166699999999995,-9.82681,0.016724,-0.163577,1.0091709999999998
1032,-18.738079,0.427253,-1.8310830000000002,0.067506,-0.17663800000000002,1.0477450000000001
1034,-35.461967,4.760815,-6.958114,0.10669100000000001,-0.08520599999999999,0.913588
1036,-45.471885,7.9957270000000005,-17.273213000000002,0.023438,0.321294,0.74464
1038,-157.106889,-12.63447,-37.59823,-0.14648699999999998,0.131106,0.794934
1040,-506.29434699999996,-32.715343,-16.601816,-0.08569500000000001,0.490486,1.918975
1042,-750.133516,-128.23682,5.371176,0.18115499999999998,-0.222538,1.181292
1044,-938.612955,-69.58114,110.29221000000001,0.559701,-2.0000310000000003,1.9999689999999999
1046,333.012894,15.625238000000001,-84.534981,-0.059937,1.159442,1.9999689999999999
1048,105.958648,-21.423667000000002,-35.88922,-0.510506,0.936416,0.263676
1050,65.980011,-35.156786,6.836042,-0.202029,0.143679,0.189212
1052,34.729534,-12.878614,-3.845274,0.026368,0.459846,0.680064
1054,110.231174,1.8310830000000002,-19.592584,-0.205814,0.502083,1.116716
1056,150.514992,-18.860151000000002,-10.681315,-0.323857,0.329961,1.167376
1058,192.813001,-0.122072,-5.188067,-0.258549,0.215702,0.9553370000000001
1060,212.77180099999998,39.00206,-0.427253,-0.190066,0.056275,0.9275040000000001
1062,227.96978700000003,42.053864000000004,12.756542,-0.153811,-0.043946,0.9461809999999999
1064,243.106737,31.067369,22.766461,0.084108,-0.041016000000000004,1.141375
1066,257.81643399999996,34.607462,14.099336,0.33264699999999997,-0.090822,1.355245
1068,276.371405,37.59823,-4.943923000000001,0.315312,-0.174807,1.39675
1070,277.164874,42.90837,-17.273213000000002,0.22803099999999998,-0.336919,1.349508
1072,256.35156800000004,59.815366000000004,-22.46128,0.126345,-0.390875,1.175555
1074,219.668879,50.354772,-17.212177,0.12842,-0.27393,1.9999689999999999
1076,249.088273,30.884259999999998,-26.916915000000003,0.261357,-0.338994,1.9999689999999999
1078,293.156329,40.71107,-48.584726,0.135744,-0.476448,1.9999689999999999
1080,283.512627,51.941711,-55.115587,0.026489999999999996,-0.650401,1.8093540000000001
1082,254.64255699999998,66.407263,-55.970092,0.120119,-0.75465,1.768215
1084,222.96482799999998,82.398718,-57.557031,0.228275,-0.944839,1.5793700000000002
1086,182.192721,71.351186,-60.24261800000001,0.330327,-1.662623,1.5992680000000001
1088,116.700999,131.471733,-67.139696,0.57789,-2.0000310000000003,1.174823
1090,131.227588,158.388647,-41.016251000000004,-0.015747,-2.0000310000000003,-1.3496299999999999
1092,-84.657053,-67.017624,49.92752,-0.101564,-1.759426,-0.317632
1094,-116.273747,-117.43343300000001,71.778439,0.31751,-1.268818,-2.0000310000000003
1096,-223.57518900000002,-137.453269,65.735866,-0.25708400000000003,-0.274418,1.1192799999999998
1098,-281.864652,-105.714504,86.12191999999999,0.36792600000000003,0.574228,0.515023
1100,-324.65095,-69.153887,59.63225799999999,1.738674,-0.291142,1.9999689999999999
1102,-241.886015,15.381094000000001,-9.216449,0.681285,-0.535409,1.9999689999999999
1104,-175.47875200000001,-33.630884,33.020523,-2.0000310000000003,-0.825818,1.894682
1106,-59.571220999999994,-121.70595900000001,16.113526999999998,1.9999689999999999,0.473396,1.9999689999999999
1108,-47.852292999999996,4.394598,14.404517000000002,-1.240009,0.08691499999999999,0.93666
1110,-35.584039000000004,-47.852292999999996,-4.333562000000001,0.7889520000000001,0.12378099999999999,1.7315939999999999
1112,-13.244831,-29.236286,-1.342794,-0.002686,-0.001465,1.106584
1114,-41.260395,-14.404517000000002,0.854505,0.00293,-0.10351700000000001,1.148455
1116,-12.085144999999999,-8.545052,1.8310830000000002,0.110475,0.055787,0.973526
1118,-13.488975,-3.051804,3.1128400000000003,0.051881,-0.009522,1.024186
1120,-15.808347,1.281758,3.540093,0.055665,-0.022705,1.0486
1122,-13.550010999999998,0.6103609999999999,2.136263,0.027587999999999998,-0.016968,0.9698629999999999
1124,-15.075914000000001,-2.075227,1.342794,0.045045,-0.002075,0.984512
1126,-16.723888,-1.8921189999999999,1.586938,0.024537,-0.058473000000000004,1.007095
1128,-13.855192,-0.30518,2.075227,0.047242,-0.017823,1.008316
1130,-15.014878,0.061036,1.7700470000000001,0.048829000000000004,-0.021729,0.9939120000000001
1132,-21.972992,-0.183108,0.793469,0.037110000000000004,-0.01001,0.961807
1134,-28.259709,-1.159686,0.427253,0.021973,-0.053712,1.0196690000000002
1136,-27.710384,0.671397,0.854505,0.040772,-0.069459,1.017838
1138,-21.972992,3.173877,0.427253,0.070924,-0.078248,1.0213780000000001
1140,-20.996414,7.751583,2.4414439999999997,0.052003,-0.08618300000000001,1.018692
1142,-17.151141,5.859464,2.685588,0.025879000000000003,-0.068971,0.969253
1144,-15.259022,4.272526,2.319371,0.038087,-0.07715,0.997452
1146,-19.287404000000002,3.356985,1.8310830000000002,0.028808999999999998,-0.083619,0.9748680000000001
1148,-19.287404000000002,5.188067,2.136263,0.041749,-0.10388299999999999,1.0042879999999998
1150,-19.958801,5.065995,2.075227,0.023072,-0.068605,0.9745020000000001
1152,-24.902724,5.432212,2.685588,0.032105,-0.089601,0.975723
1154,-31.982909999999997,6.408789,2.929732,0.011719,-0.097536,1.0095370000000001
1156,-36.438544,6.652933999999999,4.455634,0.014282,-0.098146,0.95021
1158,-47.302968,10.559242999999999,8.300908,-0.0037840000000000005,-0.180911,0.969619
1160,-46.448463000000004,10.803388,10.193027,-0.000977,-0.16858199999999998,1.005264
1162,-41.992828,4.943923000000001,0.061036,-0.061402,-0.108644,0.967666
1164,-38.025483,-0.854505,-9.82681,0.030518,-0.242191,1.014176
1166,-25.635157,-4.577707,-8.789197,0.06421,-0.26038,1.088151
1168,-18.921187,-0.6103609999999999,-3.295949,-0.022216999999999997,-0.120974,0.9817040000000001
1170,-24.536507,4.394598,-2.685588,-0.0043950000000000005,-0.032105,0.898695
1172,-74.586099,6.775005999999999,-10.498207,0.000488,0.446906,0.690929
1174,-197.451743,-17.456321,1.464866,0.172,0.810681,0.8365610000000001
1176,-665.598535,-11.413748,45.838102,-0.357794,0.49951899999999994,1.47512
1178,-841.077287,-39.734493,48.218509000000005,0.071534,-0.194827,1.132097
1180,-724.071107,-5.065995,168.764782,-0.7898069999999999,-1.377584,1.9999689999999999
1182,309.514,15.564201999999998,-83.98565699999999,0.051881,0.589975,1.9999689999999999
1184,-25.391012,-56.94667,-4.333562000000001,-0.082277,0.36694899999999997,0.23071599999999998
1186,82.093538,-40.222782,-18.24979,0.002686,0.5199050000000001,0.243046
1188,37.537194,-12.32929,-29.968719,-0.058595,0.411627,0.870375
1190,106.87418899999999,-38.269627,-31.555657,-0.38464899999999996,0.516121,1.285664
1192,183.65758799999998,-52.491035,-20.630198,-0.455451,0.363653,1.525292
1194,233.340963,-15.747310999999998,-8.911269,-0.570809,0.062013,1.208148
1196,260.563058,20.752270000000003,9.82681,-0.43653000000000003,-0.174197,0.677134
1198,253.055619,31.128404999999997,26.489662,-0.22717600000000002,-0.23486700000000002,0.6920270000000001
1200,249.027237,30.518044,31.250477000000004,0.107912,-0.194339,1.150774
1202,259.220264,38.025483,12.390326,0.43665200000000004,-0.190555,1.551415
1204,279.056992,48.340581,-21.301595000000002,0.462898,-0.387701,1.680323
1206,282.475013,52.918288000000004,-38.452735,0.104372,-0.655406,1.678981
1208,283.634699,44.92256,-26.123445,-0.24243499999999998,-0.7744260000000001,1.348775
1210,253.54390800000002,30.334936,-7.263294,-0.196414,-0.664683,1.214862
1212,216.67811099999997,42.1149,-3.356985,-0.100832,-0.489509,1.511742
1214,211.42900699999998,46.997787,-3.051804,-0.017578,-0.39453699999999997,1.9999689999999999
1216,230.716411,44.373236,-9.765774,0.169558,-0.396368,1.9421680000000001
1218,229.73983399999997,56.519417000000004,-29.358358000000003,0.25403200000000004,-0.48462700000000003,1.725734
1220,213.504234,64.209964,-52.979324,0.353643,-0.5706869999999999,1.6189209999999998
1222,187.014572,76.661326,-82.093538,0.407233,-1.06276,1.419211
1224,130.861372,85.450523,-91.126879,0.19324000000000002,-2.0000310000000003,1.353048
1226,91.859312,114.259556,-63.111315000000005,0.162722,-2.0000310000000003,0.614267
1228,54.810407,51.514458000000005,4.089418,-0.017945,-2.0000310000000003,-1.259785
1230,-195.071336,-202.090486,30.762188000000002,0.984756,-2.0000310000000003,-1.2728469999999998
1232,-144.71656399999998,-126.71091799999999,13.611048,-0.12780999999999998,0.724254,1.9999689999999999
1234,-269.718471,-98.329137,39.063096,-0.711925,0.183719,-0.123903
1236,-350.71335899999997,-90.02822900000001,80.018311,0.7495229999999999,-0.385992,1.9999689999999999
1238,-173.76974099999998,3.967346,18.371862,1.432517,-0.23352399999999998,1.9999689999999999
1240,-190.371557,50.354772,23.743038000000002,-1.364279,0.158328,1.9999689999999999
1242,-23.498894,-88.258183,29.846646999999997,0.725475,0.218387,1.9999689999999999
1244,-12.146181,34.302281,6.347753,-0.419318,0.14257999999999998,0.8213020000000001
1246,-40.40589,-39.429313,3.6621650000000003,0.5125810000000001,0.051148,1.4920879999999999
1248,-34.119172999999996,-2.50248,2.929732,-0.374029,-0.039429,0.9240860000000001
1250,-12.268253999999999,-8.239872,1.342794,0.089601,0.036866,1.116716
1252,-8.911269,-7.568475,2.685588,0.060303999999999996,0.030151999999999998,1.081071
1254,-10.803388,-1.40383,2.2583349999999998,-0.032227,0.043824,0.9747459999999999
1256,-11.718929,1.953155,2.136263,-0.002075,0.02356,1.011368
1258,-12.390326,0.6103609999999999,2.197299,-0.024537,0.035889,0.981094
1260,-14.160372,-0.366217,2.2583349999999998,-0.036988,0.035644999999999996,0.960952
1262,-13.916228,-4.394598,1.40383,-0.008911,-0.044556,0.8601209999999999
1264,-19.104295,-9.033341,0.9155409999999999,-0.027222000000000003,-0.000732,1.036759
1266,-17.883574,-7.873655,0.30518,-0.088258,0.22790900000000003,1.511986
1268,-19.409476,-5.9205,1.525902,-0.012329000000000001,-0.031983,0.9553370000000001
1270,-15.442129999999999,-3.845274,2.319371,-0.014527000000000002,-0.0094,1.027726
1272,-13.305867000000001,-4.577707,1.7700470000000001,-0.012329000000000001,-0.02295,1.01735
1274,-9.948882000000001,-4.638743,1.70901,-0.017945,-0.019043,0.9901270000000001
1276,-13.122759,-6.897078,1.342794,-0.0074459999999999995,-0.0070799999999999995,0.9897610000000001
1278,-11.352712,-5.065995,0.9155409999999999,-0.005493,-0.041993,1.087053
1280,-13.672084,-6.408789,2.136263,-0.02002,-0.018677000000000003,0.964126
1282,-16.968032,-7.2022580000000005,1.647974,0.025269,-0.043824,1.045182
1284,-15.075914000000001,-4.5166699999999995,1.342794,0.001709,-0.015747,0.9979399999999999
1286,-25.146867999999998,-4.455634,1.7700470000000001,-0.004028,-0.002441,0.971817
1288,-32.959487,-2.990768,2.50248,0.015503,-0.044312,0.9959870000000001
1290,-34.180209000000005,-1.586938,3.1128400000000003,-0.000122,-0.0542,0.977554
1292,-46.509499,-0.30518,4.943923000000001,-0.009766,-0.048463,0.9831690000000001
1294,-47.180896000000004,-3.90631,5.0049589999999995,0.030274000000000002,-0.064088,1.014176
1296,-48.035401,2.2583349999999998,7.141222,0.022827,-0.139895,0.969009
1298,-55.542840000000005,2.746624,5.371176,-0.011353,-0.064332,0.991958
1300,-75.44060400000001,4.21149,1.8310830000000002,-0.094606,-0.133913,1.159686
1302,-69.336996,-0.48828900000000003,-5.981537,0.033814,-0.306279,1.057145
1304,-31.738766,-4.21149,-6.836042,0.0365,-0.214725,1.117693
1306,-32.532235,0.9155409999999999,-0.793469,-0.004883,-0.123171,1.009903
1308,-34.485389,4.943923000000001,-10.193027,-0.037842,0.366217,0.8684209999999999
1310,-136.04943899999998,-1.525902,-39.429313,0.200443,0.364508,0.5186850000000001
1312,-473.579004,3.356985,-28.0766,0.24585300000000002,1.084001,1.59646
1314,-794.0795,-10.254063,-11.413748,0.12182799999999999,-0.29370599999999997,1.352926
1316,-951.979858,-3.6621650000000003,96.49805400000001,-0.57496,-2.0000310000000003,1.9999689999999999
1318,138.79606299999998,-70.37460899999999,-35.461967,-0.733654,0.169192,1.9999689999999999
1320,14.0383,-89.295796,22.583351999999998,-0.392828,0.905409,1.9999689999999999
1322,87.403677,-34.302281,49.683375,0.146609,0.41272600000000004,0.9239639999999999
1324,80.262455,4.882887,4.394598,0.401862,0.5299149999999999,0.729137
1326,135.378042,18.860151000000002,-19.592584,0.149538,0.374517,0.71107
1328,142.27512,-27.771420000000003,-18.066682,-0.08691499999999999,0.26746,0.778332
1330,190.188449,-51.148241,-17.212177,-0.073732,0.309575,1.06154
1332,227.054246,-30.762188000000002,-25.146867999999998,-0.100954,0.191897,1.289693
1334,260.502022,-6.103609,-27.038987,-0.223514,-0.008057,1.041764
1336,277.653162,4.8218510000000006,-15.747310999999998,-0.24438800000000002,-0.084108,1.113787
1338,297.001602,9.399557000000001,-7.446403,-0.040772,-0.129519,1.471214
1340,325.13923900000003,12.085144999999999,-22.705425,0.281498,-0.348882,0.933486
1342,278.263523,49.378195,-51.819638,0.34473200000000004,-0.49817700000000004,0.5787439999999999
1344,225.833524,35.034714,-65.125505,0.09668099999999999,-0.325933,1.569116
1346,228.45807599999998,44.190127000000004,-65.247578,-0.18262,-0.401495,1.9999689999999999
1348,273.56374500000004,68.055238,-51.880674,-0.29749000000000003,-0.638437,1.9999689999999999
1350,302.43381400000004,57.06874200000001,-24.96376,-0.14636500000000002,-0.8191039999999999,1.9999689999999999
1352,339.848936,66.65140799999999,-24.597542999999998,0.26099,-0.8802620000000001,1.7879909999999999
1354,290.287633,67.689021,-40.833143,0.406989,-0.911269,1.702907
1356,256.961929,67.139696,-57.007706000000006,0.303105,-1.1975280000000001,1.720119
1358,205.93576000000002,70.55771700000001,-64.69825300000001,0.40271599999999996,-2.0000310000000003,1.115129
1360,89.17372399999999,123.53704099999999,-81.849393,0.791028,-2.0000310000000003,0.339971
1362,60.486763,90.45548199999999,-65.857939,0.013184,-2.0000310000000003,-1.160906
1364,-136.781872,-124.269474,21.972992,-0.484016,-2.0000310000000003,-2.0000310000000003
1366,-178.103304,-193.545434,54.261081999999995,0.20019800000000001,-0.143801,1.9999689999999999
1368,-142.458228,-95.094224,67.322805,-0.472786,0.812634,0.333013
1370,-313.17616499999997,-102.052338,81.300069,0.738537,-0.273198,0.434943
1372,-300.84687599999995,-63.355458999999996,60.608835,1.143572,-0.310185,1.9999689999999999
1374,-132.265202,-18.738079,18.554971,-0.11645699999999999,0.034546,1.652613
1376,-149.111162,-58.167391,54.322118,-0.646983,-0.071778,1.892729
1378,-80.5066,-70.801862,-4.150454,1.615381,-0.374029,1.9999689999999999
1380,-79.89623900000001,-15.442129999999999,11.047532,-0.566537,0.099733,1.0992600000000001
1382,-22.217136,-21.850919,-7.263294,0.416022,0.024781,1.34548
1384,-21.972992,-15.991454999999998,-0.793469,-0.000366,0.036255,1.039811
1386,-28.0766,-5.554284,1.342794,0.049683,-0.038331,1.0788739999999999
1388,-23.254749,-2.563516,3.784237,0.074464,0.0023190000000000003,1.028214
1390,-20.447089000000002,0.6103609999999999,4.150454,0.059204999999999994,0.036866,1.0112459999999999
1392,-18.005646,-1.8921189999999999,3.1128400000000003,0.030396,-0.001221,1.022477
1394,-16.113526999999998,0.0,2.563516,0.01709,-0.001221,0.9952540000000001
1396,-17.883574,-0.6103609999999999,2.563516,0.023681999999999998,0.0035399999999999997,0.977554
1398,-20.691233999999998,-2.014191,1.525902,0.051637,-0.029419,1.019425
1400,-16.540779999999998,-2.563516,1.037613,0.019287000000000002,-0.011719,0.979507
1402,-20.141909,-5.554284,-0.30518,0.032715,-0.041382,1.009659
1404,-17.334249,-5.249104,-0.427253,0.030274000000000002,-0.054565999999999996,1.026749
1406,-14.953841,-4.577707,-0.244144,0.055299,-0.059204999999999994,1.023819
1408,-10.254063,-3.6011290000000002,-0.30518,0.033326,-0.043946,1.012833
1410,-11.108568,-4.333562000000001,-0.671397,0.033326,-0.042359,0.965347
1412,-16.968032,-4.882887,-0.9155409999999999,0.048463,-0.054077999999999994,1.0040440000000002
1414,-17.090104999999998,-4.577707,-0.244144,0.052490999999999996,-0.0542,0.9945219999999999
1416,-14.587625,-3.540093,0.854505,0.060182000000000006,-0.07800399999999999,1.014176
1418,-14.587625,-1.464866,1.159686,0.088869,-0.053834,1.050065
1420,-15.075914000000001,1.281758,1.40383,0.062013,-0.05835,0.9851219999999999
1422,-23.254749,2.2583349999999998,1.586938,0.035279000000000005,-0.052613,0.975723
1424,-29.602502,1.8310830000000002,1.586938,0.040894,-0.067018,0.9719389999999999
1426,-36.316472,2.624552,1.7700470000000001,0.019532,-0.082643,1.007584
1428,-44.983596999999996,9.460594,5.249104,0.003906,-0.069703,0.997452
1430,-44.92256,11.779964999999999,10.070953999999999,0.057862000000000004,-0.098024,1.001846
1432,-56.885633999999996,14.343481,12.085144999999999,0.025391,-0.126345,1.030167
1434,-38.269627,7.873655,6.042573,-0.000488,-0.11230599999999999,0.965591
1436,-48.279545,5.737392,-4.150454,-0.046632,-0.19617,0.996353
1438,-23.254749,-7.446403,-22.827497,0.089723,-0.181643,0.979751
1440,-23.926146,4.5166699999999995,2.380407,0.138674,-0.137209,1.07985
1442,-47.547112,21.606775,-10.925460000000001,0.073732,0.066041,0.8115359999999999
1444,-132.692454,12.207218,-25.452049,-0.163577,0.193851,0.52845
1446,-343.389029,-51.087205,0.122072,-0.095583,1.14992,1.222919
1448,-669.199664,-165.712978,45.227740999999995,-0.14905,-0.22180500000000003,1.929961
1450,-815.625238,-170.229648,65.125505,0.34668499999999997,-0.060426,1.002213
1452,-440.61951600000003,-40.833143,158.754864,-0.582284,0.024291999999999998,1.9999689999999999
1454,256.229496,17.090104999999998,-88.50232700000001,-0.452766,1.417136,1.9999689999999999
1456,-21.301595000000002,-28.259709,8.056764,-0.546517,0.23450100000000001,0.674205
1458,139.650568,-24.475471,14.648660999999999,-0.265019,0.498299,0.384283
1460,78.61448100000001,10.864424,11.963073,-0.154543,0.19409500000000002,0.992447
1462,151.30846100000002,22.888533,5.7984279999999995,-0.17688299999999998,0.311284,1.0486
1464,200.686656,18.860151000000002,2.685588,-0.076295,0.214969,1.034928
1466,224.49072999999999,26.428626,-3.1128400000000003,-0.042237000000000004,0.095338,1.140642
1468,256.839857,45.532921,-5.3101400000000005,-0.04358,-0.076905,1.058366
1470,268.436713,52.552071,0.30518,0.09424,-0.205325,1.009049
1472,276.920729,55.786984,-9.765774,0.46204300000000004,-0.196902,1.301534
1474,277.775235,52.429999,-35.88922,0.554208,-0.38233,1.46157
1476,289.677272,38.818952,-60.852979000000005,0.43201300000000004,-0.5659270000000001,1.4813459999999998
1478,283.390555,35.950256,-66.71244399999999,0.054565999999999996,-0.676768,1.498436
1480,266.605631,37.109941,-51.087205,-0.18323,-0.651621,1.5671629999999999
1482,247.98962400000002,56.824597999999995,-32.654307,-0.11084200000000001,-0.58265,1.721584
1484,239.200427,73.18226899999999,-19.226368,-0.017456,-0.5872890000000001,1.8522009999999998
1486,234.195468,75.745785,-12.878614,0.15246800000000002,-0.588144,1.8074009999999998
1488,221.92721400000002,78.370336,-15.991454999999998,0.183841,-0.62562,1.572168
1490,197.02449099999998,69.703212,-18.616007,0.125246,-0.738537,1.536889
1492,175.173571,69.153887,-19.226368,0.188968,-1.120256,1.383932
1494,138.124666,80.445563,-27.222095,0.44934799999999997,-1.704738,1.007095
1496,87.220569,102.662699,-36.743725,0.388067,-2.0000310000000003,0.628305
1498,50.537881,43.884947,-7.568475,0.153079,-1.8484169999999998,-0.298222
1500,-38.879988,-77.271687,30.212863,0.176761,-1.853788,-1.348531
1502,-276.676585,-200.381476,23.987182,0.522225,-1.2873729999999999,0.12219400000000001
1504,-154.421302,-83.863584,28.747996999999998,-0.588266,1.275166,1.9999689999999999
1506,-321.35500099999996,-100.953689,60.364691,-0.353277,-0.59144,0.5343100000000001
1508,-279.301137,-44.861523999999996,69.88632,1.2213319999999999,-0.084352,1.9999689999999999
1510,-136.232548,16.479744,1.342794,0.808606,-0.07849199999999999,1.923491
1512,-170.534829,-14.709697,36.377508,-1.354147,-0.5684899999999999,1.685084
1514,-64.759289,-76.84443399999999,2.80766,1.485496,-0.057008,1.9461970000000002
1516,-82.093538,-13.061722999999999,15.869383,-0.7307239999999999,-0.012695999999999999,0.8061649999999999
1518,-49.195087,-35.034714,-4.028382,0.19677999999999998,-0.11926500000000001,1.116594
1520,-40.527962,-30.395971999999997,-2.929732,0.148318,-0.040894,1.116472
1522,-32.349126,-14.160372,2.685588,0.023804,-0.055421000000000005,1.090471
1524,-31.250477000000004,-7.263294,3.234913,0.08215499999999999,-0.042359,1.0466469999999999
1526,-23.437858,-2.746624,3.6011290000000002,0.064332,-0.046508999999999995,1.064469
1528,-16.113526999999998,-0.061036,2.746624,0.048585,-0.014527000000000002,1.00734
1530,-24.292363,1.586938,1.525902,-0.00293,0.00061,1.068864
1532,-20.080873,5.3101400000000005,2.075227,0.018067,-0.072267,1.037125
1534,-15.503166,5.065995,2.319371,0.018799,-0.061769000000000004,1.007095
1536,-14.465553,5.0049589999999995,2.2583349999999998,-0.029907999999999997,-0.055299,1.0804610000000001
1538,-20.569162,4.638743,1.09865,0.014527000000000002,-0.053101,0.9602200000000001
1540,-24.109254999999997,3.173877,1.159686,0.020263999999999997,-0.06421,1.014664
1542,-21.240558,3.723201,2.014191,-0.0008550000000000001,-0.103029,1.029313
1544,-16.479744,2.2583349999999998,1.525902,0.009033,-0.102052,1.025406
1546,-8.972305,0.244144,0.671397,0.006714,-0.1178,1.015518
1548,-8.545052,-2.197299,-0.122072,0.0037840000000000005,-0.083131,0.980484
1550,-9.033341,-2.746624,-0.671397,0.025147,-0.091554,0.980972
1552,-12.024109,-0.6103609999999999,0.549325,0.027466,-0.106081,1.014176
1554,-10.437171000000001,1.953155,1.586938,0.023926,-0.12378099999999999,1.019181
1556,-9.338521,1.953155,1.70901,0.014893,-0.10192999999999999,0.9896389999999999
1558,-8.789197,1.037613,1.40383,0.002564,-0.10669100000000001,0.9980620000000001
1560,-9.277485,0.122072,1.09865,-0.000732,-0.107301,0.992691
1562,-9.82681,-0.671397,0.30518,0.033326,-0.10925499999999999,1.002579
1564,-15.13695,1.342794,-0.48828900000000003,0.034058,-0.153445,1.024674
1566,-4.5166699999999995,5.432212,4.333562000000001,0.032715,-0.120729,1.011368
1568,-9.399557000000001,5.432212,5.249104,0.006592,-0.098024,0.977066
1570,-15.381094000000001,3.723201,3.90631,-0.005493,-0.078859,0.9713280000000001
1572,-26.123445,1.40383,2.014191,-0.009888,-0.086427,0.9751129999999999
1574,-35.523003,0.48828900000000003,0.854505,0.018555000000000002,-0.12732100000000002,1.002945
1576,-35.767146999999994,3.967346,2.4414439999999997,0.022583000000000002,-0.187137,0.9983059999999999
1578,-31.555657,4.638743,4.394598,-0.0177,-0.188602,0.92958
1580,-27.100022999999997,8.239872,3.479057,0.001343,-0.18616,0.989883
1582,-23.86511,3.356985,-2.746624,-0.015015,-0.20691199999999998,0.997086
1584,-16.601816,-2.075227,-9.277485,0.016236,-0.177127,1.025528
1586,-23.193713,2.197299,-5.371176,-0.022827,-0.109377,0.970352
1588,-52.613108,-0.732433,-14.465553,0.040406,-0.010864,0.921767
1590,-120.363165,-4.089418,-36.011292,0.053346000000000005,0.116701,0.840101
1592,-277.653162,-6.897078,-37.476158,-0.065675,0.327153,1.140764
1594,-504.890517,-19.65362,14.892805,-0.176028,-0.140871,1.6069579999999999
1596,-592.172122,-93.507286,42.359045,-0.156497,-0.250004,0.913588
1598,-641.7944610000001,-89.295796,156.92378100000002,-0.830335,-0.183108,1.9999689999999999
1600,213.26009,-54.749371,-28.381781,0.060792,0.749035,1.9999689999999999
1602,2.4414439999999997,15.869383,12.085144999999999,-0.067872,0.40369299999999997,0.653208
1604,110.414282,28.259709,-7.080186,-0.05005,0.004883,-0.07800399999999999
1606,42.481117,-14.648660999999999,-1.525902,-0.089479,-0.082521,0.427253
1608,90.150301,-35.461967,-7.812619000000001,-0.126101,0.104372,0.8960100000000001
1610,136.842908,-8.42298,-17.94461,-0.20556999999999997,-0.072999,0.893202
1612,154.787518,19.958801,-15.075914000000001,-0.316777,-0.279667,0.77467
1614,185.85488700000002,23.498894,-1.8921189999999999,-0.22998400000000002,-0.306523,0.996719
1616,216.06775,48.767834,2.990768,-0.096559,-0.473152,0.846326
1618,220.767529,69.947356,11.291675999999999,-0.11816600000000001,-0.639536,0.564706
1620,208.499275,62.378882,31.860838,-0.059327,-0.684337,0.8331430000000001
1622,213.68734300000003,42.481117,50.415808,0.057984,-0.7149770000000001,1.140764
1624,217.288472,35.584039000000004,57.129778,0.22034,-0.723766,1.553368
1626,238.712139,38.086519,50.659953,0.318486,-1.01796,1.380148
1628,225.528344,25.26894,42.664225,0.404059,-1.127459,0.816541
1630,180.605783,0.0,32.227053999999995,0.373297,-0.9626610000000001,0.759045
1632,135.378042,-16.662851999999997,16.968032,0.213993,-0.681163,0.9194479999999999
1634,102.113375,-24.109254999999997,2.380407,-0.042359,-0.544564,1.1970399999999999
1636,77.45479499999999,-20.752270000000003,-10.925460000000001,-0.09131,-0.874891,1.097795
1638,35.950256,3.479057,-26.794842,-0.163699,-1.195453,0.646738
1640,-202.456703,-100.4654,31.982909999999997,-1.23537,-1.910063,0.447395
1642,58.04531899999999,13.183795000000002,3.356985,0.5282060000000001,-1.444358,1.9999689999999999
1644,93.507286,4.882887,-1.70901,-0.46216499999999994,1.4779280000000001,-0.86244
1646,-173.647669,-18.066682,21.240558,0.15893800000000002,-0.239017,1.702174
1648,8.1178,-13.000687,-1.2207219999999999,0.08142200000000001,-0.065675,1.187152
1650,-27.771420000000003,-1.09865,5.0049589999999995,-0.125246,0.134524,0.824842
1652,-38.452735,-17.029068,0.30518,0.022216999999999997,-0.026612,1.1932559999999999
1654,-23.620966,-8.239872,1.037613,0.012206999999999999,-0.018799,1.043351
1656,-22.1561,-8.42298,0.0,-0.020996,-0.000732,1.001602
1658,-16.296635000000002,-7.080186,0.366217,0.044923000000000005,-0.043458,1.066423
1660,-10.986496,-3.356985,0.9155409999999999,0.012206999999999999,-0.019409,1.026017
1662,-7.751583,-1.159686,0.854505,0.018555000000000002,-0.04712,1.04799
1664,-6.591897,-1.2207219999999999,1.159686,-0.007812999999999999,0.018921,0.924208
1666,-17.578393,-4.882887,0.9155409999999999,0.011475,-0.021851,0.98854
1668,-15.869383,-4.882887,0.671397,0.02417,-0.034791,1.012467
1670,-14.160372,-4.333562000000001,0.061036,0.032349,-0.046998000000000005,1.0196690000000002
1672,-9.765774,-3.1128400000000003,0.122072,0.032105,-0.068605,1.059464
1674,-1.8921189999999999,-2.2583349999999998,0.183108,0.010864,-0.01001,0.9434959999999999
1676,-13.244831,-5.249104,-0.122072,0.014649,-0.040772,0.988907
1678,-13.000687,-4.760815,-0.6103609999999999,0.026856,-0.066163,1.0251620000000001
1680,-7.080186,-2.319371,-0.48828900000000003,0.033936,-0.058106,1.030411
1682,-3.051804,0.0,-0.122072,0.038331,-0.07067999999999999,1.0393219999999999
1684,2.197299,1.40383,-0.30518,0.023194,-0.056886,1.000748
1686,0.549325,0.9155409999999999,-0.122072,0.013428,-0.047242,0.981094
1688,-2.197299,-0.183108,-0.183108,0.018799,-0.049805,0.992813
1690,-1.8921189999999999,-0.366217,-0.122072,0.026612,-0.051026,1.003067
1692,-1.037613,0.0,-0.366217,0.024048,-0.0542,1.001724
1694,0.0,0.793469,0.061036,0.021363,-0.061279999999999994,1.008682
1696,0.48828900000000003,0.854505,0.244144,0.02002,-0.049561,1.006851
1698,0.671397,0.549325,0.30518,0.019165,-0.040527999999999995,0.982193
1700,-2.2583349999999998,-0.549325,0.122072,0.030639999999999997,-0.051881,0.997086
1702,-2.2583349999999998,-0.183108,0.183108,0.021729,-0.049561,0.9983059999999999
1704,-0.976577,0.30518,0.183108,0.026123,-0.054322,1.01088
1706,0.122072,0.549325,0.244144,0.021606999999999998,-0.055665,1.003555
1708,0.427253,0.854505,0.30518,0.024413999999999998,-0.054932,1.003922
1710,0.976577,1.40383,0.122072,0.029297000000000004,-0.046876,1.0091709999999998
1712,2.4414439999999997,2.014191,0.183108,0.018677000000000003,-0.040527999999999995,0.993423
1714,1.037613,1.586938,0.183108,0.018311,-0.043458,0.989029
1716,-0.6103609999999999,1.281758,0.244144,0.011109,-0.052125,1.003922
1718,-0.30518,0.9155409999999999,0.122072,0.021729,-0.053467999999999995,1.002579
1720,1.159686,0.976577,0.0,0.019287000000000002,-0.043336,1.004532
1722,0.976577,1.037613,0.0,0.02002,-0.051514,1.006119
1724,2.075227,1.342794,-0.122072,0.014771000000000001,-0.046265,0.9858549999999999
1726,-0.793469,0.48828900000000003,0.122072,0.012085,-0.041138,0.9939120000000001
1728,-1.525902,-0.061036,0.0,0.021851,-0.043458,0.992325
1730,-0.30518,0.0,0.0,0.019898,-0.04712,1.003555
1732,-0.854505,-0.061036,-0.122072,0.020386,-0.048951,1.012345
1734,0.366217,0.244144,-0.183108,0.018555000000000002,-0.043336,1.007706
1736,0.854505,0.427253,-0.183108,0.020996,-0.043702,1.007706
1738,1.525902,0.671397,0.0,0.01355,-0.04065,0.991592
1740,0.061036,0.183108,0.122072,0.018555000000000002,-0.037842,0.998917
1742,-0.6103609999999999,-0.366217,0.061036,0.021363,-0.041749,1.000626
1744,-0.427253,-0.183108,-0.183108,0.018677000000000003,-0.047974,1.024186
1746,1.2207219999999999,0.671397,-0.244144,0.022583000000000002,-0.039063,1.009903
1748,2.4414439999999997,1.342794,-0.427253,0.018921,-0.043091000000000004,1.005631
1750,3.051804,1.342794,-0.427253,0.012695999999999999,-0.042847,1.000748
1752,2.380407,1.09865,-0.549325,0.018799,-0.031861,0.9948879999999999
1754,2.380407,1.7700470000000001,-0.183108,0.011840999999999999,-0.031617,1.0048979999999998
1756,2.075227,1.342794,0.0,0.012329000000000001,-0.038697,1.008682
1758,2.685588,0.671397,-0.427253,0.011231,-0.033082,1.001846
1760,3.234913,0.793469,-0.854505,0.021606999999999998,-0.033814,1.0036770000000002
1762,4.577707,1.7700470000000001,-0.793469,0.018799,-0.040772,1.006607
1764,4.577707,1.70901,-0.671397,0.006592,-0.030274000000000002,0.991836
1766,4.028382,0.9155409999999999,-0.854505,0.008301000000000001,-0.02356,0.9911040000000001
1768,4.028382,0.244144,-1.281758,0.013672,-0.027222000000000003,1.005875
1770,4.028382,1.037613,-1.281758,0.016602000000000002,-0.033448,1.016617
1772,6.958114,2.746624,-0.732433,0.012085,-0.026856,1.009293
1774,7.507439,3.234913,-0.427253,0.009155,-0.020996,1.003433
1776,7.507439,2.685588,-0.366217,0.009276999999999999,-0.016968,1.005142
1778,7.934691,2.50248,-0.427253,0.0070799999999999995,-0.01001,0.9948879999999999
1780,6.103609,2.075227,-0.122072,-0.000244,0.00061,0.972671
1782,4.8218510000000006,1.037613,-0.244144,0.010131999999999999,-0.012206999999999999,1.002945
1784,5.432212,1.70901,-0.549325,0.014405000000000001,-0.012329000000000001,1.016251
1786,7.629511,4.272526,0.48828900000000003,0.015137000000000001,-0.013916,1.01442
1788,10.070953999999999,4.028382,0.122072,0.004517,0.004273,1.006485
1790,9.582666,3.356985,-0.366217,-0.008423,0.02002,0.926284
1792,-0.732433,1.281758,-0.366217,-0.0008550000000000001,0.021485,0.966934
1794,-5.9205,-1.70901,-1.342794,0.010742,0.0070799999999999995,0.997086
1796,3.1128400000000003,3.234913,-0.183108,0.036866,-0.025025,1.051652
1798,5.249104,3.723201,0.366217,-0.041505,0.017212,0.9392229999999999
1800,-0.061036,-2.136263,-0.9155409999999999,-0.015137000000000001,0.028321,0.942641
1802,-8.178836,-5.981537,-1.7700470000000001,0.032958999999999995,0.010742,0.9709620000000001
1804,-7.2022580000000005,-1.037613,-0.549325,0.041627,0.010376,0.9983059999999999
1806,-9.704738,2.746624,1.8921189999999999,-0.014159999999999999,-0.014771000000000001,0.998917
1808,-8.178836,0.732433,2.380407,0.038209,0.014893,1.075334
1810,-2.80766,0.122072,1.342794,-0.008423,-0.040284,1.014664
1812,-2.075227,-1.70901,0.30518,-0.017456,0.00415,0.9788969999999999
1814,1.281758,-0.6103609999999999,-0.549325,0.012206999999999999,0.004028,1.030045
1816,4.8218510000000006,0.427253,-0.366217,0.009888,-0.015625,1.027726
1818,3.90631,1.342794,-0.9155409999999999,0.008057,0.001953,1.006851
1820,0.30518,1.342794,-2.2583349999999998,0.00061,0.003418,0.9956209999999999
1822,-0.671397,0.244144,-2.014191,-0.023194,0.027710000000000002,0.9399559999999999
1824,-1.464866,-3.1128400000000003,-2.319371,0.003418,-0.002686,1.010147
1826,4.699779,-4.21149,-1.281758,0.061036,-0.032958999999999995,1.065324
1828,11.841001,0.244144,0.0,-0.002441,0.030883999999999998,0.9627829999999999
1830,5.493248,0.366217,0.0,0.023804,-0.004028,1.012589
1832,6.2867169999999994,1.2207219999999999,0.854505,-0.034424,0.021363,0.9657129999999999
1834,6.530861,-0.793469,1.464866,-0.028687,0.020508000000000002,0.9707180000000001
1836,2.380407,-8.056764,-1.09865,-0.032471,0.036744,0.9474020000000001
1838,3.967346,-14.648660999999999,-3.90631,0.053101,0.007568000000000001,1.007584
1840,0.854505,-5.432212,-2.50248,0.076783,0.012329000000000001,1.031876
1842,1.525902,2.319371,0.671397,0.01648,0.042237000000000004,0.988174
1844,-0.061036,-0.366217,-0.854505,-0.000122,0.056397,0.961563
1846,-9.277485,-7.385367,-5.127031,0.017945,0.020386,1.0202790000000002
1848,-4.638743,-5.61532,-4.333562000000001,0.057374,-0.014282,1.0309
1850,-0.48828900000000003,0.0,-1.464866,0.033692,0.016846,1.0204010000000001
1852,-1.525902,3.295949,-0.854505,0.023316,0.013793999999999999,0.998917
1854,0.183108,4.882887,0.9155409999999999,0.0058590000000000005,0.016968,0.968521
1856,1.40383,4.272526,0.793469,0.002075,0.01001,0.9830469999999999
1858,1.7700470000000001,1.70901,-1.159686,0.0031739999999999997,0.021851,0.989151
1860,2.136263,-0.976577,-6.958114,0.0043950000000000005,0.046754000000000004,0.985733
1862,1.342794,-0.671397,-5.737392,0.028076999999999998,0.0035399999999999997,1.011368
1864,-0.549325,0.671397,0.48828900000000003,0.003052,0.0063479999999999995,0.9781639999999999
1866,4.21149,-0.732433,0.366217,-0.013428,0.039429,0.9681540000000001
1868,-2.075227,-6.164645,-3.418021,0.003418,0.027222000000000003,0.9909819999999999
1870,-1.7700470000000001,-7.629511,-7.385367,0.019165,0.02002,0.9950100000000001
1872,-4.638743,-2.4414439999999997,-2.197299,0.022216999999999997,0.005615,1.009659
1874,-2.197299,1.037613,1.7700470000000001,0.020874,0.023804,1.00502
1876,0.0,1.525902,2.563516,0.020142,0.000488,0.9834129999999999
1878,24.902724,4.577707,8.850233,0.011597,0.087892,0.9643700000000001
1880,13.183795000000002,0.732433,5.371176,0.000977,0.038575,0.9790190000000001
1882,7.01915,2.014191,5.432212,0.008667,0.037354000000000005,0.978042
1884,2.197299,0.732433,2.014191,0.013916,0.059449,0.999771
1886,-1.647974,0.122072,0.9155409999999999,0.021485,0.035401,1.002945
1888,-7.01915,1.281758,0.671397,0.016236,0.035644999999999996,1.018936
1890,-12.939651,2.136263,0.244144,0.002441,0.037354000000000005,0.9946440000000001
1892,-13.305867000000001,1.953155,-0.244144,0.016724,0.028687,0.995132
1894,-14.099336,2.4414439999999997,-0.122072,0.024781,0.0035399999999999997,1.010513
1896,-7.2022580000000005,3.295949,0.0,0.009888,0.033692,0.9914700000000001
1898,-6.103609,3.6011290000000002,-0.732433,0.072511,-0.00647,0.961563
1900,-1.647974,2.624552,-0.244144,-0.000366,0.045655,1.0112459999999999
1902,-3.173877,1.953155,-0.48828900000000003,0.035279000000000005,-0.052369000000000006,0.925307
1904,-4.638743,0.366217,2.014191,0.028443,-0.005737,0.969619
1906,-7.934691,-3.479057,-0.732433,0.043458,0.021118,0.952651
1908,0.0,1.586938,1.8310830000000002,-0.020386,0.018677000000000003,0.985
1910,-3.6011290000000002,0.6103609999999999,0.122072,0.002075,0.017212,0.985733
1912,-3.479057,-0.30518,-0.122072,0.001221,0.010131999999999999,0.992447
1914,-2.563516,-0.9155409999999999,-0.366217,0.021363,0.03125,0.997574
1916,-0.061036,-0.427253,-0.48828900000000003,0.01001,0.016114,0.993179
1918,2.685588,0.061036,-0.122072,0.0031739999999999997,0.018433,1.005875
1920,2.4414439999999997,1.159686,-0.671397,0.001465,0.026978,0.981827
1922,-0.366217,1.281758,-1.037613,0.010498,0.021485,0.998917
1924,-0.183108,1.525902,-0.976577,0.01294,0.0094,1.010758
1926,2.4414439999999997,1.70901,-0.366217,0.010376,0.014282,1.005509
1928,1.7700470000000001,1.40383,-0.427253,0.004639,0.016358,0.989517
1930,1.2207219999999999,1.342794,-0.6103609999999999,0.002564,0.025147,0.992569
1932,4.760815,1.2207219999999999,-1.464866,0.009522,0.027710000000000002,0.967666
1934,1.8310830000000002,1.2207219999999999,-2.624552,0.002564,0.015259,0.9875639999999999
1936,0.366217,0.732433,-3.051804,0.014159999999999999,0.013428,1.01149
1938,1.8921189999999999,1.342794,-1.525902,0.008179,0.025025,0.983658
1940,2.136263,1.159686,-1.281758,0.000366,0.019898,0.9952540000000001
1942,1.40383,0.671397,-0.854505,0.003296,0.025147,0.984268
1944,1.09865,0.48828900000000003,1.09865,-0.032715,0.048829000000000004,0.8879530000000001
1946,-0.427253,0.183108,0.30518,-0.022827,0.014038,0.976455
1948,-1.586938,0.122072,-0.732433,-0.007324,0.019043,1.00734
1950,1.40383,-0.244144,-1.342794,-0.001221,0.019532,1.0091709999999998
1952,3.234913,0.122072,-1.525902,0.011231,0.032715,0.9969629999999999
1954,2.868696,0.122072,-3.051804,-0.003418,0.029419,1.006119
1956,0.976577,-0.122072,-1.8921189999999999,0.0058590000000000005,0.040894,0.99379
1958,2.075227,-0.366217,-1.8310830000000002,-0.00293,0.028808999999999998,0.9758450000000001
1960,4.028382,0.0,-1.647974,-0.005249,0.041260000000000005,0.9911040000000001
1962,1.525902,-0.183108,-0.976577,0.015259,0.033326,0.997818
1964,1.525902,-0.30518,-2.136263,0.000244,0.042847,0.9952540000000001
1966,6.897078,-0.183108,-3.90631,0.010742,0.23987199999999997,1.082048
1968,1.8310830000000002,-0.854505,-6.775005999999999,-0.001099,0.041505,0.9902489999999999
1970,1.525902,-0.48828900000000003,-7.01915,0.012573,0.023804,0.978042
1972,0.9155409999999999,-0.366217,-4.8218510000000006,0.0063479999999999995,0.042481,0.9935450000000001
1974,2.4414439999999997,-0.48828900000000003,-2.4414439999999997,-0.011231,0.045045,0.989395
1976,6.103609,-0.122072,-2.624552,0.016724,0.036011,1.001236
1978,6.71397,0.244144,-5.737392,0.005249,0.055787,1.001724
1980,3.90631,0.0,-4.943923000000001,0.006958,0.06543099999999999,0.9862209999999999
1982,2.929732,-0.427253,-4.272526,-0.002686,0.04773,0.992569
1984,6.042573,0.122072,-3.418021,0.0015869999999999999,0.05285700000000001,0.9834129999999999
1986,14.526589000000001,1.464866,-8.789197,0.001221,0.041016000000000004,1.027726
1988,13.977264000000002,2.746624,-17.517357,-0.005615,0.07019199999999999,0.985977
1990,-7.080186,-3.234913,-16.723888,0.022095,0.16968,0.965957
1992,-32.288090000000004,-16.052491,-114.19852,-0.531258,-0.34912600000000005,1.341207
1994,-10.498207,0.854505,-10.376135000000001,-0.028321,0.058717,1.039811
1996,1.037613,0.183108,-2.075227,0.014282,0.063111,1.0042879999999998
1998,7.934691,2.685588,-3.173877,-0.006592,0.059815,0.98146
2000,-0.976577,0.9155409999999999,-2.136263,0.004883,0.085451,0.967666
2002,-13.488975,-0.793469,-3.784237,0.001221,0.053834,0.984512
2004,-14.648660999999999,-0.9155409999999999,-3.295949,-0.015503,0.05139199999999999,0.992325
2006,-21.911955,-2.319371,2.014191,-0.006592,0.033569999999999996,0.980484
2008,-22.522316,-3.723201,6.164645,-0.013428,0.026978,0.999649
2010,-21.545739,-3.6011290000000002,10.864424,-0.0094,0.0043950000000000005,0.985733
2012,-19.775692000000003,-3.90631,9.82681,-0.025025,0.031127999999999996,1.060807
2014,-11.352712,-2.2583349999999998,3.723201,0.022216999999999997,0.029541,0.9851219999999999
2016,-8.850233,-0.732433,2.50248,0.013062,-0.006714,1.016861
2018,2.685588,0.30518,12.512398,-0.010131999999999999,0.022827,0.9909819999999999
2020,-0.48828900000000003,-0.427253,7.141222,-0.004883,-0.021606999999999998,1.0160069999999999
2022,0.671397,-1.586938,12.512398,-0.10351700000000001,-0.065187,1.183368
2024,5.9205,1.159686,7.812619000000001,0.017945,0.032105,0.9748680000000001
2026,4.272526,0.122072,8.056764,0.034058,0.044556,0.9851219999999999
2028,-0.549325,-0.854505,13.611048,-0.068116,-0.007568000000000001,1.048234
2030,1.586938,7.812619000000001,45.532921,0.069703,0.159548,0.9560690000000001
2032,8.911269,0.9155409999999999,-0.793469,-0.004517,0.009766,1.023087
2034,5.9205,1.342794,-1.09865,0.009522,0.032593000000000004,0.993301
2036,-2.868696,-0.366217,-7.812619000000001,0.073121,0.044068,0.98146
2038,-4.028382,-1.525902,-2.990768,0.059204999999999994,0.027222000000000003,1.0040440000000002
2040,0.30518,-0.122072,0.183108,0.003418,0.0023190000000000003,1.008194
2042,-0.854505,0.122072,1.2207219999999999,0.013672,0.030639999999999997,0.994766
2044,-3.418021,-0.183108,0.122072,0.01355,0.029907999999999997,0.9851219999999999
2046,-7.568475,-0.244144,-1.281758,0.021241,0.055299,0.929091
2048,-4.8218510000000006,-0.244144,-2.685588,-0.000122,0.008301000000000001,1.003922
2050,1.40383,-0.30518,1.2207219999999999,0.009522,0.0,0.984512
2052,-2.990768,1.7700470000000001,0.671397,-0.02002,0.025879000000000003,0.984268
2054,-1.647974,0.48828900000000003,-0.6103609999999999,0.014405000000000001,0.023681999999999998,0.9747459999999999
2056,-7.141222,0.061036,-3.051804,0.016846,0.032349,0.952285
2058,-3.967346,-0.976577,-8.667124000000001,0.0031739999999999997,0.014527000000000002,0.9969629999999999
2060,0.427253,0.0,-1.09865,-0.031006,-0.114748,1.083513
2062,-5.432212,0.122072,1.525902,0.014282,0.023072,0.9038219999999999
2064,-2.563516,-0.427253,0.48828900000000003,0.021241,0.008423,1.017716
2066,-0.976577,-0.549325,0.854505,0.014771000000000001,0.015503,0.993179
2068,-1.40383,-0.6103609999999999,1.70901,0.006104,0.012451,0.9909819999999999
2070,-0.549325,-0.48828900000000003,2.929732,0.0043950000000000005,0.008423,0.991714
2072,1.09865,-0.732433,2.685588,-0.033936,0.0031739999999999997,0.992447
2074,1.586938,-1.037613,1.8310830000000002,0.010376,0.011475,1.002457
2076,2.014191,0.366217,3.1128400000000003,0.022095,0.020752,0.995743
2078,0.9155409999999999,0.183108,2.136263,0.001709,0.019043,0.9782860000000001
2080,-2.990768,-0.183108,0.244144,0.007324,0.007935,1.0040440000000002
2082,-3.479057,-0.854505,0.0,0.004517,0.013672,0.993668
2084,-1.7700470000000001,0.122072,-1.40383,0.016602000000000002,0.022095,0.9834129999999999
2086,-2.197299,0.671397,-1.159686,0.011475,0.011597,1.01442
2088,-1.40383,1.09865,-1.464866,0.0031739999999999997,0.009644,0.992569
2090,-2.4414439999999997,0.671397,-2.380407,-0.003906,0.013916,0.9865870000000001
2092,-1.7700470000000001,0.122072,-1.70901,0.008667,0.0043950000000000005,0.9945219999999999
2094,-2.197299,0.30518,-1.2207219999999999,-0.000366,0.0094,0.988296
2096,-1.342794,-0.366217,-0.30518,0.006958,0.001465,1.0046540000000002
2098,1.525902,0.0,0.549325,0.017823,-0.0015869999999999999,1.0089270000000001
2100,6.225681,0.671397,1.037613,-0.013062,0.053834,0.949233
2102,3.173877,-0.30518,1.342794,0.011719,-0.004639,1.047135
2104,0.976577,-1.525902,3.90631,0.050294,0.043213999999999995,0.9875639999999999
2106,1.8921189999999999,1.342794,-0.183108,0.002564,0.039550999999999996,0.9629049999999999
2108,-1.281758,-0.244144,-1.464866,0.024659,0.018677000000000003,1.01442
2110,1.40383,-0.671397,-1.525902,0.07483,0.042237000000000004,0.9550930000000001
2112,-2.80766,0.854505,-2.319371,0.022461000000000002,0.038209,1.0205229999999998
2114,-3.540093,-0.854505,-0.671397,0.019653999999999998,0.001343,0.995499
2116,-2.4414439999999997,-0.732433,0.244144,0.014649,0.020386,1.0042879999999998
2118,-1.2207219999999999,-1.70901,0.793469,0.010620000000000001,0.014527000000000002,1.0078280000000002
2120,1.09865,-1.159686,0.976577,0.016114,0.0271,0.9984280000000001
2122,0.427253,0.061036,0.366217,0.014282,0.018067,0.9953770000000001
2124,-1.281758,0.061036,-0.366217,0.000366,0.01709,0.996597
2126,-0.9155409999999999,-0.366217,-0.549325,0.006226,0.018921,0.993301
2128,-0.976577,-0.366217,-1.281758,0.001953,0.008789,1.008438
2130,1.464866,0.061036,-0.48828900000000003,-0.004883,0.016724,0.991714
2132,0.183108,-0.48828900000000003,-0.183108,0.010254000000000001,0.024537,0.98854
2134,-0.671397,-0.976577,-0.9155409999999999,-0.010498,0.019287000000000002,0.981582
2136,0.671397,-1.70901,0.183108,-0.0008550000000000001,0.011231,0.992447
2138,0.976577,-1.953155,1.09865,0.010620000000000001,0.021851,1.0091709999999998
2140,0.854505,-1.525902,1.70901,0.015991,0.014038,1.007584
2142,-0.30518,0.30518,3.723201,0.007324,0.018189,0.991348
2144,-10.742351,3.295949,1.2207219999999999,0.041382,-0.010620000000000001,1.0053860000000001
2146,-8.972305,0.48828900000000003,4.699779,0.001831,0.050172,0.958267
2148,-11.047532,4.638743,-1.09865,-0.302739,-0.052613,0.778332
2150,-2.4414439999999997,1.281758,0.0,-0.066896,-0.019653999999999998,0.988418
2152,-3.051804,-0.061036,-0.793469,-0.006958,0.001709,0.969741
2154,-3.234913,1.281758,-1.342794,-0.0037840000000000005,-0.06713999999999999,1.037369
2156,0.366217,1.09865,1.2207219999999999,0.061769000000000004,0.032958999999999995,0.847181
2158,-4.272526,-0.854505,-0.732433,0.058961,-0.203372,1.131243
2160,0.671397,2.014191,3.784237,0.026733999999999997,0.025879000000000003,0.9286030000000001
2162,-0.976577,-0.061036,0.366217,0.022338999999999998,0.018067,0.989273
2164,-1.40383,0.122072,0.244144,0.006958,0.017212,1.009903
2166,-1.2207219999999999,0.244144,0.244144,0.007812999999999999,0.014282,0.9983059999999999
2168,-0.793469,0.0,0.122072,0.000977,0.012206999999999999,0.9990389999999999
2170,-0.48828900000000003,0.0,0.122072,0.009766,0.012818000000000001,0.9953770000000001
2172,-0.732433,-0.061036,-0.122072,0.006592,0.014649,1.004532
2174,-1.464866,-0.30518,0.061036,0.011719,0.011231,0.9935450000000001
2176,-1.586938,-0.061036,0.061036,0.008179,0.015381,0.992325
2178,-1.2207219999999999,0.0,0.0,0.008911,0.013916,0.997452
2180,-1.2207219999999999,-0.061036,0.061036,0.008667,0.015137000000000001,0.995132
2182,-0.976577,-0.061036,0.0,0.004761,0.011475,0.9942780000000001
2184,-1.159686,-0.30518,0.0,0.008179,0.01294,0.998917
2186,-1.037613,-0.427253,0.122072,0.001709,0.013184,0.999527
2188,-0.854505,-0.183108,0.0,0.007201999999999999,0.018921,0.9945219999999999
2190,-1.281758,-0.061036,0.122072,0.010620000000000001,0.013793999999999999,0.999527
2192,-0.854505,0.0,0.0,0.009888,0.015259,0.991958
2194,-1.037613,-0.061036,0.0,0.008545,0.011963,0.989151
2196,-0.9155409999999999,-0.061036,0.061036,0.005737,0.0074459999999999995,0.9976959999999999
2198,-0.976577,-0.244144,0.0,0.000488,0.011231,0.9952540000000001
2200,-1.159686,-0.30518,0.061036,0.005371,0.018921,0.988174
2202,-1.40383,-0.244144,0.0,0.0094,0.017212,0.991714
2204,-1.7700470000000001,-0.061036,0.061036,0.012451,0.008545,1.00441
2206,-1.953155,-0.244144,0.122072,0.015015,0.01294,1.003922
2208,-0.9155409999999999,0.244144,0.061036,0.00415,0.020386,0.989273
2210,-0.976577,0.244144,-0.244144,0.010498,0.005493,1.000992
2212,-1.037613,-0.061036,-0.122072,0.0051270000000000005,0.013184,0.9864649999999999
2214,0.122072,0.183108,0.0,0.004639,0.013306,0.989517
2216,-0.061036,0.366217,0.061036,0.001709,0.01294,0.991836
2218,-1.464866,0.366217,0.0,0.000366,0.008057,0.992691
2220,-1.159686,0.183108,0.122072,0.004639,0.014527000000000002,0.991714
2222,-0.671397,0.183108,0.0,0.010376,0.013916,0.993423
2224,-0.793469,0.122072,0.061036,0.0070799999999999995,0.008789,0.9935450000000001
2226,0.183108,0.48828900000000003,0.061036,0.011719,0.012818000000000001,0.9983059999999999
2228,1.159686,0.671397,-0.427253,0.022583000000000002,0.021118,0.983658
2230,-2.868696,0.061036,-0.366217,0.009155,0.01709,0.999649
2232,-3.90631,-0.30518,0.122072,0.001709,0.008789,1.001724
2234,-4.089418,-0.854505,0.549325,0.0063479999999999995,0.005005,0.992569
2236,-4.394598,-0.976577,0.793469,0.005371,0.000122,1.0008700000000001
2238,-3.784237,-0.244144,0.9155409999999999,0.007201999999999999,0.008423,1.000381
2240,-1.8310830000000002,-0.061036,1.7700470000000001,0.005005,0.018189,0.988907
2242,-0.6103609999999999,-0.854505,-0.122072,0.0031739999999999997,0.009033,0.982925
2244,-0.30518,-1.40383,0.0,0.002075,0.005737,0.996353
2246,-1.342794,-1.464866,0.061036,0.007935,-0.008667,0.9748680000000001
2248,-1.037613,-0.793469,0.732433,-0.002686,0.011963,0.9990389999999999
2250,-1.7700470000000001,0.0,0.48828900000000003,0.014771000000000001,0.009766,1.002701
2252,-1.70901,-0.061036,-0.671397,0.010131999999999999,0.008667,1.002823
2254,-1.40383,-0.30518,-0.48828900000000003,0.0015869999999999999,0.006592,0.9896389999999999
2256,-2.014191,-0.9155409999999999,0.30518,0.012573,0.006958,0.9900049999999999
2258,-0.9155409999999999,-0.183108,0.183108,0.00647,0.004761,0.9956209999999999
2260,-0.9155409999999999,1.037613,0.0,0.008789,0.006592,0.996597
2262,-2.50248,0.9155409999999999,0.122072,0.012085,0.011231,0.999771
2264,-0.732433,0.48828900000000003,-0.793469,0.009276999999999999,0.010131999999999999,0.996841
2266,-1.159686,-0.061036,0.122072,0.0031739999999999997,0.0,0.992691
2268,-0.427253,-0.671397,0.30518,0.001953,0.008545,1.001358
2270,-1.281758,-0.427253,-0.48828900000000003,-0.003296,0.013062,0.9830469999999999
2272,-3.90631,-0.6103609999999999,-0.427253,0.012206999999999999,0.008423,0.991714
2274,-4.882887,-1.2207219999999999,-0.549325,0.014405000000000001,-0.0008550000000000001,1.009415
2276,-3.295949,-1.281758,1.647974,0.000977,-0.005371,1.014908
2278,-2.929732,1.281758,8.606088,0.138796,0.031373000000000005,1.0057530000000001
2280,-2.50248,1.953155,5.432212,-0.011963,-0.060913999999999996,1.017838
2282,7.141222,5.7984279999999995,28.686961,0.040772,0.055421000000000005,0.965957
2284,8.484016,1.7700470000000001,8.484016,0.0028079999999999997,0.024291999999999998,0.987442
2286,6.164645,0.976577,1.159686,0.0058590000000000005,0.020508000000000002,0.9873200000000001
2288,3.784237,0.671397,0.0,-0.001343,0.009522,0.999893
2290,1.647974,-0.183108,-0.793469,-0.009033,0.011719,0.996719
2292,2.685588,0.061036,-0.6103609999999999,0.005615,0.014282,0.998917
2294,2.319371,0.366217,-0.6103609999999999,0.012206999999999999,0.018067,1.0053860000000001
2296,-0.244144,0.732433,0.061036,0.005005,0.022095,0.993179
2298,-2.746624,1.037613,0.244144,0.011231,0.023804,0.992325
2300,-4.028382,1.40383,0.0,0.009276999999999999,0.018677000000000003,0.995743
2302,-6.530861,0.9155409999999999,-0.122072,0.010131999999999999,0.019898,1.0127110000000001
2304,-5.9205,0.671397,-0.30518,0.003418,0.0074459999999999995,1.0008700000000001
2306,-2.990768,0.244144,-0.9155409999999999,-0.000366,0.0051270000000000005,1.0048979999999998
2308,-3.418021,-0.671397,0.061036,0.0015869999999999999,0.0015869999999999999,0.9986719999999999
2310,-0.854505,-0.427253,0.061036,0.006836,0.007568000000000001,1.0078280000000002
2312,0.9155409999999999,0.427253,-0.366217,0.029175,0.018921,0.997574
2314,-1.281758,0.0,-0.976577,0.005371,0.012206999999999999,1.01088
2316,-2.868696,-0.976577,-0.732433,0.000366,0.016602000000000002,0.993057
2318,-2.2583349999999998,-1.342794,-0.6103609999999999,0.005249,0.002075,0.9994049999999999
2320,0.366217,-1.159686,-1.953155,-0.002686,0.013428,0.991226
2322,-0.061036,-0.732433,-0.122072,-0.000732,0.003662,0.9979399999999999
2324,0.122072,0.48828900000000003,-0.183108,0.004639,0.008545,0.9948879999999999
