Packet number,Gyroscope X (deg/s),Gyroscope Y (deg/s),Gyroscope Z (deg/s),Accelerometer X (g),Accelerometer Y (g),Accelerometer Z (g)
0,-0.732433,-0.549325,0.000000,0.014160,-0.003906,1.009537
1,0.061036,0.000000,-0.122072,0.011597,0.004395,0.998306
2,-1.586938,0.183108,-0.122072,-0.003296,-0.011475,1.000870
3,-0.244144,0.366217,-0.122072,0.012085,-0.008789,1.008316
4,-0.671397,0.366217,0.000000,-0.009277,-0.012696,0.988052
5,1.098650,0.366217,0.000000,0.014649,0.001343,0.987320
6,-0.427253,0.305180,-0.122072,-0.000122,-0.005493,0.990738
7,0.488289,0.366217,0.000000,0.006836,-0.006714,1.007584
8,0.305180,0.244144,0.000000,0.008301,-0.000122,0.997696
9,0.000000,0.183108,0.000000,-0.001587,-0.000855,0.997818
10,0.244144,0.000000,0.000000,0.005737,0.001343,1.006607
11,0.366217,0.305180,-0.183108,-0.004517,-0.006592,0.991226
12,0.488289,0.122072,0.061036,0.011963,-0.008423,0.986099
13,0.671397,0.366217,0.000000,0.003418,0.000000,0.988907
14,-0.061036,0.000000,0.000000,0.006714,-0.002441,1.002823
15,0.732433,0.671397,0.000000,0.012573,-0.000732,1.000748
16,-0.122072,0.183108,0.122072,0.013916,0.002319,1.004898
17,0.854505,0.488289,0.000000,-0.001709,0.005615,0.989395
18,-0.671397,0.061036,0.000000,0.011963,0.001343,1.008072
19,0.427253,0.305180,0.000000,0.002564,-0.001099,1.005875
20,0.183108,0.183108,0.000000,0.012207,0.005249,1.001724
21,0.183108,0.061036,0.061036,-0.000610,-0.001831,0.999405
22,0.549325,0.000000,0.000000,0.006104,0.001587,0.990127
23,0.122072,-0.122072,0.000000,-0.004150,-0.004028,0.998795
24,0.427253,-0.244144,0.000000,0.009033,0.005249,1.002213
25,0.061036,-0.122072,0.000000,0.006836,0.008423,0.988663
26,-0.793469,-0.183108,0.000000,0.009888,-0.004517,0.998795
27,-0.061036,0.061036,0.061036,0.009277,0.003662,1.000015
28,-0.366217,0.366217,0.122072,-0.001953,-0.002564,0.997818
29,0.061036,0.366217,0.061036,0.009766,0.003052,0.991592
30,-0.610361,0.427253,-0.122072,0.001709,0.000122,1.001846
31,0.000000,0.305180,0.122072,0.002930,-0.003174,1.011246
32,0.244144,0.427253,-0.122072,0.009644,0.004517,0.996353
33,-0.183108,0.305180,0.000000,0.011109,-0.006226,1.000015
34,0.732433,0.305180,0.000000,0.007202,0.002197,1.000626
35,0.061036,0.427253,0.000000,-0.000244,-0.006226,0.986587
36,0.915541,0.244144,0.183108,0.012818,-0.006836,1.004288
37,0.915541,0.488289,0.000000,0.000610,0.000732,0.995010
38,0.671397,0.366217,0.061036,0.010132,-0.002319,0.997452
39,1.342794,0.427253,0.000000,0.004273,0.006470,0.998184
40,0.183108,0.183108,0.000000,0.006592,-0.000610,1.004044
41,0.732433,0.366217,0.000000,0.004639,0.003662,0.997086
42,-0.122072,0.122072,0.000000,0.011841,0.002441,1.011978
43,0.305180,0.366217,-0.122072,0.006592,0.000488,0.999161
44,0.427253,0.488289,0.000000,-0.002930,0.001343,0.995132
45,0.793469,0.549325,0.000000,0.005615,-0.000122,1.003189
46,0.488289,0.427253,0.000000,0.003662,-0.001099,0.995132
47,0.671397,0.488289,0.000000,0.005982,0.003418,0.990372
48,0.488289,0.305180,0.000000,0.002197,0.003052,0.999405
49,0.671397,0.122072,-0.183108,0.007202,-0.000244,1.003067
50,1.220722,0.183108,-0.183108,0.004639,0.006470,0.994888
51,1.037613,0.122072,-0.122072,0.004517,-0.001099,0.997696
52,1.647974,0.122072,-0.183108,0.009400,0.000122,1.008804
53,2.014191,0.122072,-0.183108,0.005127,0.007080,1.008682
54,2.258335,0.305180,-0.366217,0.005371,0.001831,1.004288
55,1.892119,0.244144,-0.183108,0.005859,-0.000244,1.007340
56,2.563516,0.488289,-0.122072,0.006348,0.004273,1.009659
57,2.563516,0.427253,-0.122072,-0.001831,0.003906,1.004288
58,2.563516,0.000000,0.000000,0.008301,0.003784,1.015152
59,3.356985,0.122072,-0.244144,0.000977,-0.004639,1.001236
60,4.211490,0.244144,-0.244144,0.009277,0.000855,1.010025
61,5.249104,0.427253,0.000000,0.002441,-0.001831,1.008194
62,5.798428,0.427253,0.122072,-0.001587,-0.000855,1.001114
63,6.225681,0.183108,0.122072,0.002686,0.005493,1.000870
64,6.713970,0.000000,0.000000,0.003662,0.012207,0.993790
65,6.775006,-0.488289,0.000000,-0.001343,0.014282,1.001358
66,6.530861,-0.549325,-0.122072,-0.000244,0.013550,0.994766
67,6.286717,-0.793469,-0.122072,0.002197,0.011597,0.998795
68,5.859464,-1.098650,-0.305180,0.001587,0.024414,0.981949
69,4.821851,-1.586938,-0.244144,-0.000122,0.015869,0.994522
70,4.882887,-1.586938,-0.305180,0.004761,0.019532,0.989761
71,4.089418,-1.892119,-0.244144,0.010376,0.018433,0.988296
72,3.479057,-1.770047,-0.366217,0.001953,0.021241,0.995010
73,3.173877,-1.892119,-0.122072,0.005737,0.024170,0.988296
74,3.295949,-1.586938,0.061036,0.006714,0.016114,1.003311
75,3.295949,-1.403830,0.000000,0.010498,0.025147,0.996597
76,2.929732,-1.220722,0.183108,0.003052,0.023682,0.995987
77,2.929732,-1.281758,0.183108,-0.002441,0.021973,0.990860
78,2.685588,-1.525902,0.061036,0.001831,0.026368,0.991348
79,2.990768,-1.464866,0.183108,0.005249,0.031373,0.991470
80,1.525902,-1.831083,0.061036,0.010254,0.028565,0.989883
81,0.915541,-1.647974,0.000000,0.008057,0.013306,0.998062
82,1.403830,-1.892119,0.122072,0.010864,0.023072,0.993179
83,1.281758,-1.892119,0.061036,0.014771,0.026734,0.997086
84,0.854505,-1.770047,0.122072,0.012207,0.027832,1.008194
85,1.159686,-1.464866,0.244144,0.008667,0.022095,1.002945
86,1.342794,-1.403830,0.244144,0.012085,0.019043,1.005386
87,1.647974,-1.403830,0.427253,0.006104,0.023194,0.987930
88,1.831083,-1.647974,0.061036,0.010986,0.027466,0.997330
89,2.136263,-1.770047,0.183108,0.015991,0.020264,0.994522
90,2.624552,-1.342794,0.061036,0.006348,0.036255,0.992325
91,1.159686,-1.403830,0.305180,0.024903,0.021973,1.006607
92,1.953155,-0.610361,0.183108,0.013306,0.003662,0.987442
93,2.624552,-0.610361,0.488289,0.002686,0.030762,0.997940
94,2.441444,-0.854505,0.671397,0.012085,0.032105,1.007095
95,2.075227,-0.854505,0.671397,0.004883,0.002686,0.989883
96,2.990768,-0.488289,0.915541,0.010254,0.033570,1.001602
97,2.746624,-0.671397,1.037613,0.008911,0.030030,0.994888
98,3.356985,-1.037613,0.915541,0.009033,0.038209,0.975357
99,1.281758,-1.281758,0.915541,0.017945,0.041260,0.972183
100,0.183108,-1.281758,0.976577,0.009400,0.031495,1.016251
101,2.014191,-0.976577,0.671397,0.023804,0.025635,1.006363
102,1.831083,-0.549325,0.305180,0.004273,0.019165,0.989029
103,3.479057,-0.976577,0.671397,0.019043,0.037720,0.991958
104,2.380407,-0.732433,0.305180,0.005249,0.015381,0.974868
105,1.464866,-1.281758,0.671397,0.022583,0.035523,0.998672
106,1.770047,-0.732433,0.671397,0.021973,0.030762,1.017227
107,3.356985,-0.427253,0.427253,0.011109,0.036988,1.001480
108,1.953155,-0.427253,0.488289,0.019532,0.038087,1.002579
109,3.051804,-0.488289,0.183108,0.001709,0.010864,0.981582
110,3.051804,-0.732433,0.122072,0.022950,0.023194,1.002213
111,2.624552,-0.549325,0.000000,0.011109,0.035279,0.989761
112,2.319371,-0.488289,0.061036,0.014649,0.044923,0.986709
113,1.098650,0.305180,0.000000,0.022339,0.039307,0.985367
114,0.793469,0.244144,0.000000,0.011475,0.045411,0.988540
115,0.427253,0.000000,-0.244144,0.011963,0.055909,0.971695
116,-3.295949,-0.549325,-0.427253,0.026490,0.036133,0.996719
117,-2.441444,0.122072,-0.610361,0.022583,0.025269,1.021256
118,-0.488289,1.098650,-0.610361,0.026001,0.038087,1.011734
119,-1.647974,1.953155,-0.488289,0.017090,0.034791,0.998917
120,-0.732433,2.380407,-0.427253,0.017456,0.044556,0.993423
121,-2.441444,2.624552,-0.305180,0.013794,0.027344,1.003067
122,-0.610361,3.173877,-0.366217,0.010864,0.048463,0.971817
123,-4.089418,3.295949,-0.305180,0.016358,0.049805,0.984390
124,-4.699779,3.295949,-0.122072,0.007446,0.034180,0.993179
125,-4.577707,3.723201,-0.122072,0.010986,0.038209,0.987442
126,-6.347753,3.601129,0.061036,0.005127,0.032349,0.995865
127,-5.676356,3.479057,-0.183108,0.009155,0.034180,0.999161
128,-6.530861,2.868696,-0.183108,-0.012207,0.018799,0.992691
129,-4.699779,1.525902,0.000000,0.003906,0.020386,1.002213
130,-4.211490,1.281758,-0.366217,0.001099,0.023316,1.009049
131,-4.028382,0.793469,-0.183108,-0.001831,0.012329,1.002823
132,-1.220722,0.671397,-0.305180,0.004883,0.032349,0.984512
133,-3.662165,-0.061036,0.000000,-0.004761,0.023560,0.991714
134,-2.563516,-0.366217,0.061036,0.012451,0.030762,0.987320
135,-4.211490,-0.976577,0.061036,0.005982,0.031983,0.979507
136,-5.310140,-1.403830,0.244144,0.009644,0.020996,0.994766
137,-4.150454,-1.281758,0.000000,0.000122,0.031250,0.986465
138,-6.836042,-2.075227,0.305180,-0.005982,0.024537,0.982925
139,-6.775006,-3.051804,0.122072,-0.005371,0.024781,0.960098
140,-8.972305,-4.943923,0.244144,-0.002319,0.027344,0.980117
141,-9.338521,-6.225681,0.183108,-0.013306,0.019165,0.970840
142,-9.826810,-8.239872,0.000000,0.009522,0.028443,0.969619
143,-12.268254,-8.545052,0.244144,0.019287,0.014038,0.989517
144,-10.681315,-8.300908,0.000000,0.016114,0.029297,0.978408
145,-13.061723,-8.545052,0.122072,0.022827,0.019287,0.977798
146,-14.099336,-8.239872,0.183108,0.031617,-0.001343,1.011368
147,-12.390326,-7.080186,0.366217,0.036866,0.004273,1.008560
148,-12.634470,-5.798428,0.549325,0.041382,0.007202,1.019913
149,-13.305867,-4.455634,1.037613,0.037110,-0.008179,1.018814
150,-10.620279,-3.295949,1.159686,0.023072,-0.007202,0.994888
151,-10.925460,-3.723201,1.831083,0.023194,0.015991,0.974746
152,-13.305867,-4.638743,1.709010,0.001099,0.010620,0.960342
153,-15.320058,-6.652934,2.014191,0.000977,0.002441,0.942519
154,-17.456321,-8.667124,1.770047,0.000977,-0.001465,0.966812
155,-19.470512,-10.620279,2.014191,0.005371,-0.005005,0.978042
156,-21.362631,-11.047532,2.197299,0.041016,0.017578,0.988052
157,-26.794842,-10.742351,2.685588,0.041382,-0.020264,1.015885
158,-26.367590,-9.887846,3.418021,0.037354,-0.039307,1.042985
159,-21.423667,-7.873655,3.906310,0.048096,-0.037842,1.032364
160,-22.522316,-6.958114,4.394598,0.018555,-0.061891,1.046403
161,-19.409476,-5.859464,5.065995,0.022583,-0.067628,0.982193
162,-18.921187,-5.859464,5.371176,0.059815,-0.015259,0.996963
163,-21.423667,-5.798428,5.127031,0.007691,-0.000977,0.996231
164,-21.911955,-6.530861,5.065995,0.066773,0.018189,0.964981
165,-27.222095,-4.394598,2.929732,0.044678,0.037598,0.913954
166,-45.410849,-3.906310,1.892119,0.074830,-0.004273,1.054826
167,-46.814679,0.061036,0.000000,0.053590,-0.058350,1.056657
168,-37.659266,2.746624,-1.709010,0.046509,-0.053956,0.988785
169,-41.992828,4.211490,-1.586938,0.030396,-0.040284,0.998184
170,-42.664225,4.089418,-3.112840,-0.003174,-0.111574,1.015030
171,-32.471199,5.188067,-3.540093,0.003052,-0.043702,1.058000
172,-37.842374,1.953155,-18.493935,-0.063355,-0.055177,1.022599
173,-59.571221,4.089418,-23.865110,0.101198,-0.034913,0.988907
174,-63.904784,10.437171,-18.432898,0.109865,-0.183597,1.095109
175,-55.664912,12.451362,-7.324331,-0.020142,-0.081056,1.281514
176,-25.940337,18.249790,-12.390326,0.009766,-0.187869,0.934096
177,-25.879301,19.531548,-10.498207,0.186893,-0.065431,0.912734
178,-60.181582,21.301595,-8.117800,0.035157,0.102419,0.915908
179,-93.873503,16.784924,-5.615320,0.013062,0.100587,0.797864
180,-113.832303,12.451362,2.075227,0.015991,0.064576,0.808972
181,-142.763409,9.094377,12.268254,0.040040,-0.097536,0.941543
182,-150.392920,6.775006,19.409476,0.049439,0.374273,1.007462
183,-226.443885,5.737392,-10.070954,-0.050050,0.185061,1.320821
184,-338.567178,10.559243,14.343481,0.005005,0.203006,1.243793
185,-432.135500,14.831769,27.832456,0.255985,0.327520,1.630030
186,-526.009003,19.775692,22.949569,-0.008789,-0.005493,1.738064
187,-572.762646,38.391699,17.456321,0.230106,-0.089113,1.487449
188,-635.324636,80.201419,31.067369,0.528573,-0.385504,1.941314
189,-751.720455,111.635004,144.838636,-1.734524,0.117189,1.999969
190,-365.911345,40.955215,-6.164645,-1.209125,-1.232319,1.999969
191,219.668879,61.768521,-40.161746,-0.493782,0.444709,1.999969
192,214.114595,51.941711,-47.486076,-0.159426,0.831067,0.963272
193,18.371862,10.620279,-2.075227,-0.266117,0.528939,0.711070
194,-79.896239,-30.334936,33.630884,-0.014282,0.374029,0.618051
195,16.296635,-6.042573,2.868696,0.146609,0.240360,0.802747
196,74.952316,17.456321,-19.226368,0.128176,0.515267,0.470954
197,21.606775,19.775692,-23.437858,0.065919,0.473396,0.719005
198,42.175937,22.278172,-30.334936,-0.059937,0.325444,0.933242
199,85.328450,16.662852,-32.837415,-0.123781,0.444343,0.917006
200,88.807507,0.305180,-26.306554,-0.182986,0.397589,0.981216
201,113.649195,-11.352712,-20.325017,-0.184695,0.350958,1.088029
202,140.932326,-12.695506,-16.174563,-0.166506,0.386358,1.114153
203,153.933013,-9.765774,-12.512398,-0.154543,0.333867,1.140642
204,175.783932,-2.563516,-10.742351,-0.148806,0.268681,1.086564
205,192.813001,2.563516,-8.484016,-0.142336,0.224857,0.962051
206,200.381476,2.807660,-5.249104,-0.131106,0.177493,0.911879
207,208.316167,0.976577,-2.624552,-0.101930,0.143435,0.923232
208,215.640497,-1.403830,-1.098650,-0.064698,0.154421,1.034318
209,222.232395,-2.746624,-1.220722,0.002441,0.169314,1.252338
210,234.378576,-3.845274,-2.807660,0.048829,0.162234,1.444358
211,250.797284,-8.606088,-7.751583,0.124636,0.161501,1.671534
212,267.948425,-11.047532,-15.747311,0.223880,0.104372,1.785550
213,286.991684,-3.112840,-29.480430,0.329595,-0.033936,1.520165
214,289.799344,17.761501,-49.561303,0.398444,-0.217411,1.065690
215,270.511940,46.814679,-66.285191,0.262943,-0.335332,0.803357
216,240.848402,57.862211,-71.778439,-0.046754,-0.360479,0.815808
217,217.166400,50.110628,-66.773480,-0.271977,-0.361456,1.042496
218,199.954223,41.016251,-53.345541,-0.390021,-0.319585,1.578027
219,191.348135,39.185168,-37.415122,-0.395148,-0.302983,1.999969
220,205.203326,38.818952,-24.231327,-0.324102,-0.380255,1.999969
221,242.008087,40.466926,-15.381094,-0.275517,-0.420539,1.999969
222,272.159915,36.865797,-8.178836,-0.266972,-0.515755,1.999969
223,294.743267,25.940337,-2.258335,-0.216312,-0.604257,1.999969
224,303.715572,21.484703,0.366217,-0.152224,-0.672984,1.689357
225,294.010834,24.048219,0.000000,-0.118288,-0.707530,1.420798
226,276.798657,32.104982,-2.624552,0.004273,-0.692760,1.373800
227,259.342336,43.030442,-7.995727,0.108400,-0.614511,1.465476
228,243.289845,46.936751,-13.305867,0.115969,-0.630747,1.553735
229,235.721370,49.256123,-15.869383,0.106935,-0.720348,1.438376
230,222.842756,49.622339,-14.892805,0.065309,-0.873793,1.178119
231,197.573816,46.875715,-10.986496,-0.010498,-1.098528,0.923964
232,167.544060,43.213550,-5.798428,-0.042725,-1.381857,0.721202
233,134.706645,40.405890,-2.990768,0.082155,-1.644190,0.618540
234,98.695354,36.987869,-4.943923,0.339239,-1.923613,0.495003
235,64.881361,35.584039,-11.413748,0.541268,-2.000031,0.241215
236,27.954528,32.959487,-20.508125,0.461189,-2.000031,0.041138
237,-5.371176,14.465553,-12.512398,0.192508,-1.975738,0.083619
238,-38.818952,-21.667811,6.713970,-0.022950,-2.000031,-1.810452
239,-168.276493,-76.356146,40.344854,-0.008789,-1.306172,-0.352422
240,-233.768215,-111.390860,44.312200,0.219852,-1.914214,0.169070
241,-194.522011,-80.811780,33.508812,-0.039673,-0.492439,1.392233
242,-151.674678,-65.552758,20.141909,-0.218021,0.543709,1.999969
243,-185.976959,-55.970092,37.232013,-0.213870,0.836805,1.899687
244,-246.097505,-77.210651,47.669184,-0.026856,-0.029297,1.004654
245,-241.397726,-66.468299,52.613108,0.156374,-0.234745,1.240131
246,-235.294118,-42.542153,52.185855,0.373419,-0.161746,1.999969
247,-196.841382,-31.677729,47.791257,0.673472,-0.183841,1.999969
248,-113.038834,-24.231327,24.719615,0.604868,-0.094484,1.989288
249,-88.624399,-19.897765,10.742351,0.075319,0.123049,1.167254
250,-109.193561,-18.921187,13.550011,-0.369146,0.088869,1.051774
251,-109.620813,-20.019837,22.278172,-0.484871,-0.018921,1.061540
252,-94.605936,-53.223468,31.006332,-0.244755,0.134401,1.605249
253,-89.967193,-83.436332,36.133364,0.282841,0.057374,1.922881
254,-67.017624,-71.534295,11.718929,0.865126,-0.006958,1.999969
255,-43.091478,-37.659266,5.920500,0.208621,0.081300,1.049210
256,-59.143969,-33.142596,2.807660,-0.293339,0.143313,1.399069
257,-69.642176,-49.805447,10.193027,0.138918,-0.087526,1.324971
258,-24.780652,-31.677729,1.098650,0.228763,0.038209,1.333516
259,-29.297322,-17.151141,-0.305180,0.072633,0.029786,1.121355
260,-27.649348,-13.244831,-0.549325,-0.020630,-0.020142,1.152728
261,-9.216449,-11.413748,-2.807660,0.067628,0.052491,1.040909
262,-12.878614,-6.530861,-2.563516,0.112062,0.088869,1.026261
263,-19.043259,-1.098650,-1.709010,0.040284,0.018067,1.058122
264,-11.535821,1.647974,-0.976577,0.049439,0.026856,1.020279
265,-10.070954,5.859464,0.427253,0.087770,0.070680,1.011612
266,-15.564202,9.338521,0.732433,0.019287,0.052857,0.996597
267,-16.052491,10.009918,0.671397,0.045655,0.029664,1.016007
268,-14.404517,11.779965,0.427253,0.057008,0.021973,1.052018
269,-13.122759,12.451362,0.488289,0.018799,0.008789,1.036271
270,-9.094377,12.573434,0.488289,0.027955,0.022827,1.017594
271,-9.338521,12.207218,0.854505,0.013672,0.025879,1.004044
272,-9.155413,11.352712,1.342794,0.005859,0.026978,0.971572
273,-10.681315,10.009918,2.014191,-0.014649,0.031128,0.962051
274,-12.146181,7.873655,2.441444,0.001709,0.019287,0.990127
275,-11.963073,6.958114,2.685588,0.016968,0.008179,1.001724
276,-10.376135,6.836042,2.685588,0.000366,0.008423,0.989761
277,-10.376135,5.188067,2.746624,-0.017700,0.019409,0.972915
278,-10.925460,2.929732,2.380407,-0.003784,0.010132,1.004654
279,-9.704738,1.709010,2.014191,-0.005615,0.000000,1.020890
280,-6.775006,0.854505,1.342794,-0.009277,0.000122,1.006119
281,-6.469825,-0.244144,1.098650,0.000244,0.000488,1.006851
282,-3.418021,-0.488289,0.793469,0.010986,-0.002075,1.009293
283,-3.112840,-0.488289,0.854505,-0.007202,0.012207,0.989517
284,-3.234913,-1.464866,1.220722,-0.008911,0.024292,0.967666
285,-6.042573,-2.685588,1.037613,-0.001221,0.014038,0.958999
286,-6.897078,-3.906310,1.220722,0.004761,0.000977,0.978897
287,-5.798428,-4.699779,1.220722,0.002930,0.005982,0.992325
288,-6.042573,-5.859464,0.976577,-0.004273,0.003296,0.995377
289,-5.859464,-6.042573,0.854505,0.032349,-0.002197,1.009659
290,-6.347753,-5.065995,1.220722,0.011231,0.004883,0.985245
291,-7.141222,-5.737392,1.159686,-0.007935,0.032593,0.905653
292,-15.442130,-8.056764,1.342794,-0.002808,0.036011,0.896010
293,-24.536507,-10.742351,2.136263,0.011963,0.001953,0.979751
294,-24.536507,-9.826810,2.136263,0.027344,-0.014527,0.998550
295,-22.644388,-8.728161,2.258335,0.026490,-0.009155,1.000748
296,-23.254749,-7.385367,2.441444,0.034913,0.003784,0.990372
297,-27.038987,-7.202258,2.319371,0.022950,-0.019654,0.983536
298,-26.123445,-6.652934,2.807660,0.028565,-0.033570,0.998062
299,-26.245518,-5.737392,2.807660,0.018799,-0.030274,0.978408
300,-26.916915,-6.897078,3.112840,-0.004761,-0.035401,0.994522
301,-26.062409,-8.300908,2.380407,0.027832,0.012940,0.973281
302,-30.579080,-9.704738,1.403830,-0.017578,-0.031617,1.001358
303,-33.020523,-11.902037,1.525902,0.047486,-0.022827,1.010269
304,-32.471199,-9.399557,1.892119,0.011719,-0.010620,0.970474
305,-43.579767,-6.897078,3.906310,0.136721,-0.054322,1.047745
306,-43.945983,-1.342794,4.150454,-0.037842,-0.069947,1.062272
307,-36.621653,-2.258335,1.770047,0.066163,-0.040528,0.999283
308,-44.251164,-1.220722,0.000000,-0.008179,-0.056764,0.906386
309,-46.875715,-4.638743,-2.624552,0.007935,-0.041627,1.011856
310,-42.542153,-3.112840,-6.713970,-0.055787,-0.051270,1.152117
311,-38.513771,-2.746624,-13.977264,-0.070436,-0.005127,1.045304
312,-60.914015,-0.671397,-33.997101,-0.042237,0.099245,0.915541
313,-84.840162,6.286717,-46.143282,0.132326,-0.230228,1.077287
314,-64.393072,5.981537,-29.968719,0.110842,-0.397955,1.090105
315,-21.240558,0.793469,-6.775006,0.099611,-0.209964,1.085710
316,-18.310826,0.183108,-5.065995,0.128542,-0.112428,1.063005
317,-38.696880,7.080186,-0.427253,0.058961,0.150515,0.945693
318,-80.140383,14.587625,-11.108568,0.072633,0.191287,0.987442
319,-128.053712,20.202945,-11.108568,0.027100,0.226688,0.821424
320,-143.801022,13.366903,8.056764,-0.104128,0.427741,0.809583
321,-177.309834,-12.756542,-11.657893,-0.296147,0.240360,0.804456
322,-300.724804,-19.592584,-20.935378,0.135012,0.970108,1.111101
323,-521.492332,-25.635157,-33.081559,-0.306157,0.185306,1.609033
324,-646.128023,-85.755703,13.000687,-0.204471,0.131960,1.350729
325,-742.809186,-120.546273,34.729534,0.167605,-0.052247,1.376486
326,-812.939651,-111.390860,41.260395,0.110597,0.052003,0.898573
327,-912.428473,-115.358206,53.406577,1.255268,-2.000031,1.999969
328,-935.133898,-58.167391,180.422675,-0.727794,-0.141848,1.999969
329,-7.141222,-28.686961,-62.012665,-0.152590,-0.880873,1.999969
330,335.271229,31.494621,-63.416495,-0.353155,0.862318,1.999969
331,162.966354,34.729534,-85.877775,-0.195193,0.794812,1.594385
332,31.555657,-4.821851,17.212177,-0.714000,0.765881,0.961440
333,-8.728161,-36.865797,49.073014,-0.382208,0.212406,0.654917
334,90.638590,-12.024109,30.640116,-0.312139,0.088991,0.678477
335,146.059358,2.258335,29.724575,-0.266728,0.346197,0.382696
336,94.544900,-3.295949,39.063096,-0.194217,0.339117,0.576913
337,94.422828,-1.586938,41.260395,-0.139773,0.209354,0.871595
338,145.571069,7.263294,34.607462,0.010254,0.311894,0.877943
339,157.228962,6.713970,27.038987,0.133181,0.401617,0.895521
340,159.792477,4.821851,17.578393,0.204105,0.362921,1.073381
341,188.967727,11.047532,2.685588,0.225467,0.344854,1.197406
342,211.917296,18.432898,-11.047532,0.169192,0.287968,1.221576
343,226.199741,24.109255,-20.263981,0.112428,0.190066,1.305440
344,247.257191,28.931106,-25.635157,0.042847,0.070924,1.350851
345,269.413291,29.297322,-26.367590,-0.011963,-0.021851,1.329610
346,286.503395,27.344167,-23.804074,-0.026856,-0.103883,1.329000
347,299.259937,25.024796,-19.897765,0.019043,-0.163577,1.312886
348,309.514000,23.559930,-17.029068,0.112551,-0.180301,1.298604
349,313.786526,21.850919,-18.249790,0.218387,-0.182620,1.356710
350,315.495537,23.804074,-24.048219,0.344244,-0.212284,1.501976
351,314.946212,30.701152,-35.706111,0.438361,-0.341070,1.440940
352,314.091707,48.706798,-53.711757,0.489265,-0.545663,1.159930
353,301.640345,74.402991,-68.360418,0.484993,-0.630381,0.877089
354,267.399100,71.290150,-74.891279,0.394171,-0.583017,0.828138
355,237.613489,47.486076,-80.323491,0.342168,-0.502449,1.148333
356,218.814374,31.311513,-85.389487,0.227176,-0.342901,1.999969
357,202.517739,36.072328,-85.633631,0.043336,-0.472786,1.999969
358,236.514839,59.754330,-82.459754,-0.159060,-0.768688,1.999969
359,286.747539,77.210651,-69.581140,-0.337407,-0.850355,1.999969
360,291.264210,72.327764,-46.326390,-0.388556,-0.887831,1.999969
361,301.152056,66.529335,-22.827497,-0.224979,-0.988785,1.999969
362,313.420310,70.862898,-4.089418,-0.046509,-0.992691,1.922271
363,296.940566,68.665599,12.085145,0.032105,-1.059342,1.688014
364,288.029297,55.115587,22.888533,0.086183,-1.122820,1.613062
365,277.164874,43.823911,27.832456,0.119875,-1.189471,1.571069
366,259.403372,44.495308,28.809033,0.140383,-1.351461,1.420798
367,237.796597,52.735180,27.283131,0.108034,-1.631128,1.159197
368,204.531930,60.852979,25.757229,0.307500,-2.000031,0.827405
369,162.478065,72.571908,16.845960,0.761242,-2.000031,0.531136
370,117.494469,100.648508,-14.404517,1.075700,-2.000031,0.282475
371,82.520790,140.932326,-45.838102,0.719738,-2.000031,-0.109743
372,15.197986,133.485924,-38.757916,0.274907,-2.000031,-0.786999
373,-88.441291,41.260395,-2.868696,-0.091066,-2.000031,-1.200702
374,-165.285725,-95.643549,33.081559,0.250858,-2.000031,-0.697642
375,-216.311894,-159.853513,32.471199,0.705577,-2.000031,-0.286748
376,-255.985351,-125.001907,20.752270,0.276860,-1.003555,0.559945
377,-168.764782,-85.572595,-1.037613,-0.392462,0.455329,1.999969
378,-221.377890,-78.065156,26.550698,-0.663462,0.868544,1.999969
379,-274.357214,-90.211337,46.692607,-0.411872,-0.139651,1.292866
380,-253.971160,-74.341955,53.833829,-0.060914,-0.615122,1.388693
381,-237.491417,-65.552758,64.576181,0.595712,-0.330694,1.999969
382,-184.817273,-44.373236,49.927520,1.154803,-0.142336,1.999969
383,-89.173724,-8.422980,18.188754,0.640269,-0.078370,1.816312
384,-70.740826,6.042573,7.019150,-0.124880,0.078248,0.927993
385,-132.997635,-17.212177,34.241245,-0.859510,0.138430,1.500267
386,-120.912490,-62.134737,42.542153,-0.086183,-0.147219,1.928252
387,-69.947356,-74.464027,12.390326,1.148699,0.023438,1.999969
388,-28.503853,-13.672084,-4.455634,0.546273,0.039185,1.426535
389,-47.913329,0.793469,0.488289,-0.485481,0.033082,1.177386
390,-66.346227,-28.076600,11.841001,-0.100343,-0.009644,1.135027
391,-32.166018,-25.696193,2.075227,0.300542,0.158450,1.497093
392,-41.199359,-10.925460,2.807660,0.017090,-0.043946,1.132586
393,-21.789883,-11.413748,1.464866,-0.129519,0.006714,1.066789
394,-14.160372,-16.418708,-1.159686,0.074952,0.110109,0.979263
395,-30.457008,-15.075914,-0.122072,0.030640,0.010742,1.056657
396,-20.996414,-11.169604,-1.709010,0.082033,-0.004517,1.101823
397,-17.273213,-5.676356,-2.868696,0.077272,-0.012085,0.947646
398,-23.865110,-4.028382,0.183108,0.051514,0.011963,1.032486
399,-21.179522,-0.671397,1.098650,0.042969,0.048219,0.991714
400,-27.893492,1.953155,0.854505,0.040406,-0.086793,0.977310
401,-29.175250,4.089418,2.319371,0.020630,-0.003174,1.064469
402,-24.658579,4.943923,2.563516,-0.001465,-0.004761,1.044327
403,-22.278172,5.065995,2.685588,0.004273,0.002441,1.024430
404,-20.874342,6.225681,0.671397,-0.015991,-0.115358,0.927749
405,-24.475471,4.760815,1.892119,0.001953,0.015503,1.005753
406,-24.963760,4.272526,2.075227,-0.007202,-0.030884,1.030655
407,-21.301595,4.333562,1.586938,0.002441,-0.020996,1.011612
408,-21.057450,4.821851,1.770047,0.020630,-0.028809,1.013443
409,-19.348440,5.371176,2.136263,0.002197,-0.029908,1.009415
410,-17.578393,4.760815,2.014191,-0.016236,-0.026001,0.994278
411,-18.249790,3.601129,2.380407,-0.000855,-0.043214,0.991958
412,-15.014878,2.197299,2.197299,-0.029908,-0.026001,0.984512
413,-15.014878,-0.976577,1.647974,-0.034668,-0.025635,0.948867
414,-18.493935,-4.028382,1.159686,-0.009277,-0.042725,0.991958
415,-17.090105,-5.249104,0.488289,-0.014649,-0.050172,1.018204
416,-13.794156,-5.493248,-0.183108,-0.000855,-0.026490,1.001602
417,-15.503166,-5.737392,-0.122072,0.018433,-0.037720,0.971084
418,-18.860151,-5.310140,0.183108,0.000122,-0.036988,0.993423
419,-19.714656,-5.065995,0.549325,0.022705,-0.039796,0.996841
420,-22.339208,-4.089418,0.854505,0.015869,-0.064210,0.984024
421,-23.132677,-3.418021,1.403830,0.024903,-0.060548,1.028092
422,-21.362631,-2.136263,2.014191,0.018189,-0.079835,1.038224
423,-18.188754,-1.098650,2.502480,0.018189,-0.078004,1.017472
424,-17.151141,-0.610361,2.807660,-0.026246,-0.079103,1.054826
425,-14.587625,-1.159686,2.014191,0.013794,-0.058839,0.964370
426,-17.883574,-1.281758,1.525902,0.007935,-0.047120,0.953872
427,-22.644388,-1.770047,2.258335,0.026978,-0.063355,1.001114
428,-24.231327,-0.549325,1.892119,0.013428,-0.068727,0.979995
429,-24.719615,0.183108,2.929732,0.018311,-0.055787,0.985000
430,-29.175250,1.037613,4.455634,0.013672,-0.058961,1.012345
431,-30.334936,2.258335,5.127031,0.041749,-0.051270,1.063981
432,-33.386740,6.652934,3.906310,-0.003052,-0.074952,0.963272
433,-36.682689,5.981537,3.234913,-0.011963,-0.065187,0.988296
434,-42.114900,4.638743,2.990768,-0.036500,-0.097414,0.983902
435,-42.053864,1.281758,3.356985,-0.026368,-0.120607,1.006119
436,-40.527962,0.915541,4.089418,0.019043,-0.172976,1.027604
437,-37.354086,2.502480,6.042573,0.010132,-0.177005,1.015763
438,-32.043946,1.037613,4.699779,-0.036500,-0.151736,1.035050
439,-19.104295,0.671397,-1.525902,-0.035401,-0.192508,0.857313
440,-5.065995,-0.488289,-5.554284,-0.079469,-0.018433,1.081437
441,-10.376135,2.380407,-28.809033,-0.093019,-0.098390,0.905165
442,-42.175937,6.530861,-39.490349,0.064210,-0.164553,0.982925
443,-39.002060,1.831083,-32.288090,0.040406,-0.347539,1.004532
444,-17.090105,-12.085145,-16.723888,0.038819,-0.220584,1.041276
445,-17.639429,-14.282444,-15.197986,0.049439,-0.073976,1.026261
446,-40.772107,-6.347753,-16.601816,0.059449,-0.020996,1.008927
447,-60.242618,-1.098650,-19.531548,0.049805,0.053712,0.986587
448,-89.845121,-1.342794,-23.376822,0.115602,0.160525,0.909682
449,-99.183642,-7.202258,-16.113527,0.051637,0.620859,0.461799
450,-158.083467,-11.535821,-56.519417,0.106325,0.371099,0.423224
451,-272.404059,-21.179522,-63.355459,0.159670,1.092912,1.497337
452,-544.258793,1.525902,-69.336996,0.284428,0.983536,1.646143
453,-717.357137,-13.061723,-40.283818,-0.449470,0.482551,1.233539
454,-834.607462,-88.624399,8.911269,-0.147219,-0.067384,1.079728
455,-915.480278,-159.548333,45.960174,-0.342046,-0.365118,0.769665
456,-1204.608225,-252.445258,160.280766,-0.459724,-2.000031,1.999969
457,-557.686732,-144.960708,119.081407,-1.480003,-1.558373,1.999969
458,167.544060,-117.677577,-32.593271,-0.347417,0.711559,1.999969
459,223.575189,-72.816052,-10.315099,-0.459968,1.544213,1.999969
460,12.329290,-28.198672,-17.395285,-0.174807,0.887221,1.999969
461,-59.937438,-27.832456,36.194400,-0.287846,0.613779,1.647364
462,45.716030,12.634470,17.395285,-0.205814,0.303960,1.282856
463,149.416342,33.264668,9.704738,-0.206302,0.447028,0.603647
464,114.259556,12.512398,18.554971,-0.131228,0.472175,0.405646
465,95.765621,-11.169604,25.085832,-0.067018,0.326299,0.640269
466,134.950790,-15.503166,21.423667,0.024903,0.375738,0.845960
467,157.045853,-17.944610,15.197986,0.098024,0.466682,0.914565
468,165.590906,-18.066682,6.713970,0.149172,0.417853,1.036027
469,191.470207,-10.559243,-6.042573,0.122805,0.360479,1.053117
470,213.382162,-4.089418,-17.883574,0.079225,0.318364,1.011368
471,222.598611,-0.305180,-25.329976,-0.010864,0.234623,1.109880
472,239.078355,2.807660,-29.968719,-0.093141,0.127810,1.239277
473,261.478599,7.263294,-31.555657,-0.177981,0.050660,1.289693
474,277.531090,10.070954,-29.785611,-0.215702,-0.020630,1.334005
475,292.607004,14.282444,-26.672770,-0.230594,-0.097780,1.364157
476,307.804990,20.325017,-23.437858,-0.211185,-0.169802,1.362203
477,318.730449,25.452049,-20.202945,-0.160403,-0.200320,1.333639
478,323.552300,28.381781,-19.226368,-0.057984,-0.226444,1.461936
479,328.496223,31.189441,-21.118486,0.031739,-0.308965,1.451682
480,334.233616,43.701839,-28.442817,0.111696,-0.466926,1.244038
481,322.453651,65.796902,-36.377508,0.200076,-0.629160,0.961685
482,304.997330,87.220569,-42.298009,0.339849,-0.522347,0.808728
483,275.211719,86.243992,-50.720989,0.348882,-0.460334,0.815442
484,248.538949,68.970779,-57.679103,0.295659,-0.411383,1.063981
485,223.941405,62.012665,-61.219196,0.148318,-0.329595,1.772854
486,206.118868,60.303655,-59.388113,0.030884,-0.354620,1.999969
487,223.147936,70.923934,-55.603876,-0.045899,-0.575814,1.999969
488,267.765316,86.671244,-50.354772,-0.105959,-0.720104,1.999969
489,285.038529,90.089265,-40.588998,-0.096681,-0.779065,1.999969
490,289.005875,80.323491,-30.762188,-0.017823,-0.896132,1.999969
491,304.448005,79.224842,-27.588312,0.133181,-0.967788,1.999969
492,300.724804,84.840162,-29.053178,0.223026,-0.981094,1.874418
493,281.071183,92.713817,-32.471199,0.192142,-1.093645,1.756374
494,263.981079,100.526436,-33.203632,0.099733,-1.249287,1.708888
495,248.722057,100.892653,-28.564889,0.030152,-1.421653,1.709987
496,231.754025,93.568322,-19.897765,0.048096,-1.737697,1.564721
497,208.926528,91.126879,-11.474784,0.234134,-2.000031,1.409812
498,169.375143,98.146029,-0.976577,0.578500,-2.000031,1.084611
499,134.218357,123.537041,-14.953841,0.805432,-2.000031,0.579599
500,132.021057,161.440452,-33.264668,0.749889,-2.000031,-0.390509
501,94.361791,149.904631,-29.968719,0.425788,-2.000031,-1.268330
502,-20.325017,58.228428,-0.549325,0.038331,-2.000031,-1.054337
503,-88.685435,-49.622339,31.921874,-0.286992,-2.000031,-2.000031
504,-203.067063,-184.573129,63.050278,0.251347,-1.700099,-0.784192
505,-273.990997,-252.445258,65.186542,0.438361,-1.428611,0.896498
506,-150.270848,-166.811627,45.044633,-0.143313,0.195926,1.999969
507,-166.872663,-106.630045,36.560616,-0.678355,0.839734,1.999969
508,-274.662394,-120.973526,99.549859,-0.072633,0.483650,1.234638
509,-305.912871,-126.283665,120.241093,1.087907,-0.511849,0.637949
510,-275.028611,-91.004807,75.684749,1.488792,-0.366094,1.630518
511,-283.207446,-65.003433,57.679103,1.592187,-0.010986,1.999969
512,-239.322499,-18.432898,31.189441,0.725475,-0.405035,1.999969
513,-178.896773,-33.997101,28.870069,-0.956191,-0.063966,1.999969
514,-187.991150,-82.337682,57.862211,-0.666148,-0.409918,1.999969
515,-68.421454,-109.193561,37.598230,1.089128,-0.018921,1.999969
516,-22.949569,-45.593957,7.141222,1.029191,0.156374,1.707912
517,-69.275959,-12.329290,5.127031,-0.435309,-0.020996,1.110002
518,-66.346227,-45.960174,16.662852,-0.203250,0.052735,1.640406
519,-11.963073,-41.077287,3.356985,0.371221,-0.028687,1.128313
520,-19.409476,-25.940337,-1.281758,0.025635,0.045411,1.133806
521,-27.283131,-29.175250,4.089418,0.052979,-0.002564,1.153948
522,-4.577707,-22.644388,-0.671397,0.126589,0.072389,0.992813
523,-22.095064,-20.386053,-1.709010,0.043091,-0.004883,1.047013
524,-20.202945,-18.493935,2.563516,0.136843,-0.049928,1.141985
525,-4.455634,-10.070954,3.112840,0.167605,0.022095,1.056168
526,-12.024109,-4.028382,4.821851,0.109133,0.021851,1.042985
527,-13.000687,-0.976577,6.836042,0.067262,-0.016968,1.031510
528,-8.911269,2.441444,6.836042,0.098024,0.019898,1.026139
529,-12.512398,3.967346,6.347753,0.040650,-0.016602,1.034562
530,-6.713970,4.028382,5.432212,0.055055,0.019776,1.014542
531,-6.286717,4.089418,3.540093,0.035401,0.013306,0.974990
532,-8.117800,0.854505,2.563516,-0.028931,0.020508,0.916640
533,-10.315099,-4.638743,1.464866,-0.006348,0.047974,0.899550
534,-18.432898,-8.667124,0.549325,0.004761,0.026490,1.006241
535,-15.930419,-9.521630,0.122072,0.029541,-0.028199,1.032120
536,-10.620279,-9.033341,-0.488289,0.067750,0.005493,1.001114
537,-14.221408,-7.690547,-0.244144,0.065431,0.007324,0.981704
538,-15.320058,-7.385367,-0.122072,0.051637,0.009766,0.959243
539,-18.799115,-7.751583,-0.549325,0.055543,0.018799,0.958267
540,-23.743038,-7.934691,-0.549325,0.053346,-0.018677,0.995621
541,-22.949569,-8.056764,-1.037613,0.063111,-0.031617,1.010269
542,-19.775692,-8.178836,-1.403830,0.061646,-0.034424,0.991348
543,-19.653620,-8.239872,-1.709010,0.052369,-0.030518,0.978653
544,-18.554971,-9.521630,-1.403830,0.054444,-0.012696,0.962661
545,-20.752270,-10.070954,-1.159686,0.077028,-0.011841,0.962417
546,-27.466239,-10.620279,-0.671397,0.063355,-0.053956,0.982803
547,-25.207904,-9.094377,-0.549325,0.136721,-0.074586,1.036759
548,-19.226368,-6.042573,-0.732433,0.090700,-0.055421,1.041398
549,-19.775692,-4.028382,-0.610361,0.079713,-0.038209,1.074479
550,-22.095064,-1.586938,-1.281758,0.092409,-0.079469,1.062272
551,-21.789883,-0.549325,-0.732433,0.110597,-0.095460,1.003555
552,-15.320058,0.671397,0.244144,0.084108,-0.061158,1.004776
553,-22.583352,3.662165,1.647974,0.056031,-0.115358,0.988418
554,-25.635157,1.953155,-0.183108,0.070314,-0.080812,1.039933
555,-18.677043,1.831083,-0.671397,0.084474,-0.079957,0.963272
556,-22.461280,1.770047,-1.342794,0.071168,-0.032837,0.983536
557,-27.832456,2.197299,-2.685588,0.058106,-0.064942,0.960220
558,-32.593271,1.953155,-3.601129,0.070924,-0.052369,1.004044
559,-34.546426,2.136263,-5.127031,0.082277,-0.050538,0.977554
560,-37.109941,2.258335,-5.920500,0.076539,-0.049683,0.992569
561,-37.659266,4.089418,-2.990768,0.118898,-0.088502,0.974868
562,-44.861524,7.751583,1.709010,0.090578,-0.166506,1.054459
563,-28.442817,8.667124,8.484016,0.096559,-0.157473,1.014786
564,-21.789883,10.131991,12.878614,0.082887,-0.080446,0.979385
565,-31.555657,11.535821,11.963073,0.028321,-0.063722,0.962783
566,-33.936065,10.681315,8.239872,0.024903,-0.011841,0.974380
567,-39.551385,7.995727,-4.577707,-0.032349,-0.069703,0.982437
568,-42.725261,5.859464,-20.996414,-0.054566,-0.126711,1.050675
569,-42.236973,5.371176,-39.490349,0.000977,-0.120729,0.994156
570,-28.870069,-0.732433,-43.579767,0.137087,-0.291142,1.036515
571,-0.793469,-3.906310,-26.306554,0.271733,-0.261479,1.110857
572,4.577707,2.502480,0.976577,0.199588,-0.122683,1.140642
573,-23.620966,13.794156,6.225681,0.082521,0.070192,1.054093
574,-53.955901,25.940337,-7.324331,0.172610,0.141848,0.958633
575,-88.502327,36.804761,2.136263,-0.009766,0.451179,0.873182
576,-176.943618,34.607462,-19.348440,-0.202274,0.552132,0.822644
577,-228.946365,-9.094377,-12.634470,-0.448493,-0.004395,0.287114
578,-280.888075,-44.251164,39.063096,-0.183108,0.917128,1.443137
579,-514.168002,-82.032502,-28.503853,-0.471931,0.676402,1.204120
580,-705.455100,-191.042954,22.461280,-0.301274,-0.096681,1.552392
581,-868.848707,-270.023651,92.103456,0.120729,-0.066896,0.756115
582,-964.980545,-228.702220,127.382315,0.640024,-0.466804,0.453010
583,-1225.665675,-235.416190,225.223163,0.638804,-2.000031,1.999969
584,-598.519875,-1.831083,133.913176,-0.993057,-1.065690,1.999969
585,180.056458,45.227741,-89.845121,0.083742,0.733776,1.999969
586,186.465248,81.971466,-105.958648,-0.215335,1.566064,1.999969
587,-0.610361,55.481804,-92.103456,-0.751110,0.906386,1.999969
588,-54.383154,-31.128405,-1.220722,-0.605600,0.450446,1.999969
589,31.677729,-26.001373,0.793469,-0.312261,0.087892,1.674830
590,189.883268,11.535821,4.760815,-0.447150,0.314214,1.078508
591,184.634165,15.991455,12.085145,-0.215702,0.394171,0.590951
592,146.791791,19.775692,24.048219,-0.193484,0.259770,0.558968
593,168.886854,22.217136,28.076600,-0.105715,0.175662,0.604501
594,197.878996,19.104295,28.076600,0.012696,0.265263,0.589242
595,198.977646,7.263294,26.977951,0.106081,0.291386,0.713268
596,207.888914,0.183108,21.789883,0.135988,0.223514,0.959609
597,235.049973,6.713970,10.742351,0.224125,0.216678,0.999039
598,251.529717,20.386053,-1.770047,0.177005,0.162356,0.997452
599,255.374990,30.395972,-9.155413,0.095216,0.045289,1.039445
600,270.084688,34.607462,-13.305867,0.060182,-0.042359,1.034318
601,282.597086,32.593271,-14.526589,0.040528,-0.041627,1.156390
602,285.221637,28.870069,-15.686275,0.088014,-0.146975,1.242817
603,297.306783,31.433585,-19.104295,0.144533,-0.198856,1.501244
604,308.720531,38.818952,-23.376822,0.197757,-0.250004,1.632349
605,321.782254,48.462654,-28.931106,0.236454,-0.329717,1.687404
606,327.946899,53.223468,-34.729534,0.321050,-0.441657,1.667872
607,334.294652,54.810407,-42.420081,0.394293,-0.547616,1.498558
608,336.247807,53.894865,-52.552071,0.494881,-0.595346,1.273823
609,314.152743,53.284504,-62.073701,0.608774,-0.652232,1.167376
610,287.479973,57.434958,-71.412222,0.661631,-0.644419,1.237201
611,266.605631,59.571221,-84.779126,0.614633,-0.672251,1.419577
612,253.116655,57.984283,-92.652781,0.566781,-0.623911,1.586450
613,240.787366,52.063783,-97.657740,0.527230,-0.511849,1.975616
614,232.486458,43.884947,-102.540627,0.513191,-0.475471,1.999969
615,244.510567,44.190127,-109.987030,0.432746,-0.578622,1.999969
616,266.910811,56.214237,-115.114061,0.299565,-0.729137,1.999969
617,284.733349,74.647135,-114.320592,0.109133,-0.923720,1.999969
618,293.949798,90.089265,-104.859998,-0.063355,-1.076066,1.967559
619,282.475013,99.488823,-85.999847,-0.113893,-1.171283,1.587182
620,259.159228,101.441978,-62.989242,-0.095338,-1.285908,1.385885
621,236.148623,91.981384,-40.894179,0.014527,-1.415305,1.318624
622,213.076982,83.619440,-24.780652,0.270268,-1.581445,1.291524
623,186.343175,79.591058,-17.456321,0.562387,-1.920073,1.270283
624,159.548333,84.107729,-20.691234,0.838392,-2.000031,1.149798
625,137.148089,100.892653,-35.034714,0.995621,-2.000031,0.794446
626,130.312047,127.321279,-47.302968,0.751354,-2.000031,0.078614
627,100.648508,119.325551,-31.555657,0.354009,-2.000031,-0.656504
628,27.100023,47.241932,10.925460,0.060548,-2.000031,-0.764782
629,-28.259709,-58.228428,54.322118,0.142092,-1.676905,0.099367
630,-77.271687,-146.608682,55.725948,0.683482,-2.000031,-1.336812
631,-219.485771,-160.280766,62.012665,1.363912,-0.894301,0.191897
632,-195.986877,-102.174411,17.395285,0.409430,-0.921401,0.691051
633,-116.945144,-87.647822,-3.173877,-0.030518,0.910292,1.999969
634,-181.399252,-69.581140,11.963073,-0.164797,0.861952,1.539696
635,-270.756085,-45.227741,23.071641,-0.560555,-0.090700,0.308354
636,-270.939193,-55.115587,43.152514,-0.399786,-0.432502,0.846937
637,-276.859693,-54.505226,62.134737,0.519051,-0.303960,1.999969
638,-227.176318,-24.414435,47.730220,0.726085,-0.177005,1.999969
639,-145.510033,-12.817578,25.757229,0.451179,-0.241215,1.999969
640,-117.372396,-12.268254,20.019837,-0.165774,-0.198856,1.671778
641,-112.611582,-43.396658,31.433585,-0.409430,-0.362921,1.744045
642,-59.815366,-62.012665,32.654307,-0.061524,0.052247,1.222309
643,-78.065156,-75.074388,26.977951,0.844984,0.124880,1.965728
644,-52.185855,-37.415122,6.469825,0.642100,-0.083497,1.750393
645,-26.672770,-19.043259,4.089418,-0.329961,0.067384,1.049332
646,-44.922560,-39.734493,10.070954,-0.019409,0.086549,1.310567
647,-27.222095,-33.386740,0.366217,0.391119,0.041993,1.242451
648,-23.743038,-15.930419,3.112840,0.036011,0.103273,1.075578
649,-24.658579,-20.386053,5.554284,-0.125002,0.078492,1.086320
650,-18.860151,-24.353399,2.380407,0.110719,0.088136,1.056046
651,-17.395285,-18.371862,-0.427253,0.024537,0.112917,0.999771
652,-24.597543,-17.029068,0.000000,0.020752,0.029664,0.995499
653,-19.653620,-15.259022,2.014191,0.083619,0.039918,1.044450
654,-20.691234,-10.437171,3.418021,0.079713,0.069947,1.023209
655,-26.367590,-6.652934,3.540093,0.028565,0.023072,0.992447
656,-24.353399,-5.615320,4.699779,0.054688,0.047486,1.015518
657,-26.733806,-3.723201,4.821851,0.054200,0.104005,1.050675
658,-29.114214,-3.479057,5.371176,0.018677,0.002686,0.964736
659,-24.841688,-3.967346,4.028382,0.026368,0.085695,1.011490
660,-31.250477,-5.798428,3.906310,0.019043,0.019043,1.053727
661,-22.400244,-4.638743,2.075227,0.014405,-0.048585,1.086198
662,-15.808347,-3.906310,1.770047,0.053468,0.027955,0.989151
663,-21.667811,-2.563516,1.709010,0.049073,0.008911,1.011368
664,-20.019837,-1.220722,2.014191,0.058473,-0.009522,1.018692
665,-17.334249,0.244144,1.831083,0.043091,0.023926,1.015640
666,-21.667811,0.061036,2.380407,0.034058,-0.001099,1.002823
667,-18.371862,0.000000,1.464866,0.024781,-0.004639,0.993545
668,-19.897765,-0.549325,1.403830,0.035767,-0.000855,1.005142
669,-19.226368,-0.732433,1.220722,0.018433,-0.016602,0.997818
670,-18.371862,-1.647974,1.098650,0.025269,-0.008545,0.970108
671,-20.019837,-2.990768,0.671397,0.003906,-0.012818,0.969619
672,-22.827497,-5.065995,0.732433,0.035157,-0.037842,0.992325
673,-20.874342,-5.310140,0.488289,0.031006,-0.014282,1.038712
674,-19.653620,-5.065995,0.549325,0.024537,-0.008179,1.034806
675,-18.799115,-4.089418,0.976577,0.027710,-0.036011,0.967178
676,-19.958801,-4.760815,0.671397,0.044068,-0.029297,1.018448
677,-20.019837,-4.455634,0.793469,0.053712,-0.075196,1.000992
678,-16.235599,-3.479057,1.159686,0.060182,-0.054688,0.993301
679,-18.188754,-2.441444,2.075227,0.058595,-0.030030,1.009537
680,-17.517357,-1.831083,3.356985,0.054566,-0.027100,1.026017
681,-18.921187,-0.427253,3.479057,0.049805,-0.044068,0.964492
682,-23.376822,-1.098650,4.272526,0.032105,-0.057740,0.992325
683,-24.170291,1.647974,4.211490,0.064698,-0.048096,1.021256
684,-24.963760,2.014191,3.356985,0.008911,-0.060914,1.046036
685,-22.400244,1.159686,2.319371,0.032959,-0.055421,1.001968
686,-23.437858,0.000000,0.976577,0.011231,-0.056275,0.987442
687,-23.193713,-1.037613,-0.549325,0.009400,-0.033448,0.962539
688,-24.353399,-1.403830,-1.403830,0.076417,-0.015015,0.961807
689,-37.903410,1.037613,0.183108,0.015625,-0.063966,0.980606
690,-45.227741,3.418021,3.418021,0.108278,-0.090455,0.967666
691,-42.603189,6.652934,7.263294,0.047242,-0.090578,1.046159
692,-43.884947,7.324331,8.850233,0.030274,-0.096071,1.011978
693,-44.129091,7.873655,7.934691,-0.005005,-0.064820,0.980362
694,-42.175937,5.493248,4.760815,-0.010376,-0.108888,1.081193
695,-38.391699,3.418021,-2.197299,-0.080446,-0.095705,1.023697
696,-32.776379,0.671397,-8.728161,-0.024659,-0.136355,0.999771
697,-39.673457,2.197299,-21.667811,-0.074708,-0.124025,1.061784
698,-56.214237,10.009918,-41.382467,0.055665,-0.239384,1.069841
699,-35.828183,7.080186,-26.062409,0.104250,-0.356573,1.018814
700,-8.117800,-3.845274,-3.845274,0.056764,-0.280888,1.129290
701,-7.263294,0.915541,1.220722,0.104372,-0.064332,1.071794
702,-36.072328,8.850233,-5.493248,-0.013550,0.182010,0.966079
703,-83.741512,10.559243,-18.249790,0.147463,0.105715,1.020523
704,-120.424201,16.784924,-21.728847,-0.033204,0.331060,0.723766
705,-185.061418,16.845960,-36.987869,-0.031128,0.783703,0.126101
706,-205.996796,-34.668498,-8.056764,-0.256229,0.643076,1.184222
707,-407.415885,-48.279545,-25.635157,0.192996,1.612329,1.600732
708,-603.585870,-85.999847,-54.932479,-0.741833,0.712657,1.772244
709,-773.327230,-181.460288,16.845960,-0.531258,-0.093996,1.476707
710,-922.011139,-238.101778,78.614481,-0.128542,-0.013916,0.881117
711,-1063.736935,-247.989624,103.150988,1.347677,-2.000031,1.999969
712,-1037.491417,-188.723583,267.032883,-0.127077,-1.123430,1.999969
713,4.638743,-65.735866,-65.735866,0.252201,-1.291524,1.999969
714,353.032731,17.029068,-61.463340,-0.055299,1.097063,1.999969
715,174.929427,33.936065,-81.666285,-0.002808,0.895033,1.696193
716,21.667811,16.113527,-2.807660,-0.645274,0.862318,0.998184
717,-23.132677,-18.738079,20.202945,-0.419928,0.154910,0.602426
718,79.591058,6.042573,14.892805,-0.336553,0.202152,0.528817
719,132.448310,15.747311,10.864424,-0.260868,0.420661,0.298222
720,84.351873,7.141222,19.592584,-0.155764,0.411017,0.439338
721,81.788357,4.577707,22.217136,-0.105592,0.298833,0.762463
722,129.213397,7.141222,15.991455,0.012451,0.397833,0.965591
723,149.477379,3.356985,9.399557,0.112673,0.488045,1.066056
724,162.783246,0.000000,0.976577,0.145876,0.438849,1.220111
725,194.583047,4.699779,-11.230640,0.177005,0.397589,1.245747
726,221.194781,12.085145,-23.743038,0.159182,0.361822,1.226337
727,237.674525,18.554971,-33.752956,0.126955,0.289067,1.293843
728,258.304723,26.367590,-42.114900,0.091554,0.184817,1.395407
729,283.146410,35.034714,-47.119860,0.046265,0.115969,1.460105
730,304.386969,41.809720,-50.537881,0.034302,-0.034302,1.369406
731,325.993744,44.617380,-51.026169,0.053223,-0.142214,1.174945
732,333.440147,39.307240,-50.354772,0.113161,-0.182620,1.013443
733,331.364920,28.259709,-51.453422,0.199344,-0.171511,1.008316
734,324.956130,21.362631,-58.167391,0.256718,-0.217655,1.188373
735,313.359274,33.508812,-70.862898,0.299931,-0.429206,1.100969
736,300.846876,74.830243,-84.168765,0.293950,-0.604013,0.943374
737,278.568704,107.850767,-87.586786,0.253788,-0.490486,0.981460
738,249.027237,106.324865,-91.554131,0.280400,-0.374395,1.201801
739,232.120241,91.920348,-92.042420,0.101930,-0.361944,1.990509
740,220.645457,90.821698,-83.314260,-0.066041,-0.535531,1.999969
741,247.623407,99.061570,-70.191501,-0.191775,-0.802380,1.999969
742,279.423209,110.231174,-53.284504,-0.189700,-0.876112,1.999969
743,277.103838,109.193561,-33.203632,-0.198856,-0.918349,1.999969
744,279.850462,98.451209,-13.550011,-0.160037,-1.047135,1.999969
745,310.734722,95.948730,0.671397,-0.047242,-1.142718,1.999969
746,328.191043,104.982071,9.277485,0.156008,-1.172137,1.999969
747,315.129320,117.921721,11.596857,0.693492,-1.057023,1.659693
748,287.418936,123.292897,-0.122072,0.886976,-1.062638,1.664942
749,269.596399,113.038834,-13.061723,0.913954,-1.177630,1.761501
750,259.220264,99.183642,-23.315785,0.741222,-1.457786,1.754543
751,242.130159,88.136110,-25.329976,0.548592,-2.000031,1.428855
752,209.170672,85.572595,-21.850919,0.564218,-2.000031,0.900160
753,157.778286,101.503014,-30.151827,0.744274,-2.000031,0.365850
754,109.132525,152.040894,-57.312886,0.722423,-2.000031,-0.233158
755,91.432059,183.413443,-62.195773,0.350591,-2.000031,-0.958022
756,-0.183108,120.485237,-30.334936,-0.046387,-2.000031,-1.135149
757,-78.065156,-6.347753,25.818265,-0.689708,-2.000031,-2.000031
758,-216.433967,-208.621347,89.051652,0.345953,-1.929229,-1.012955
759,-289.860380,-307.804990,92.103456,1.208881,-1.080583,1.770901
760,-152.895399,-131.349660,61.097124,0.368780,0.453132,1.999969
761,-148.561837,-68.726635,57.190814,-0.386969,0.898329,1.381857
762,-264.408331,-134.157321,87.403677,0.512581,0.256107,-0.090211
763,-316.227970,-109.620813,78.614481,1.159197,-0.501350,0.409674
764,-343.999390,-79.774166,71.168078,1.309834,-0.191043,1.999969
765,-293.461509,-44.251164,45.105669,1.639307,-0.355108,1.999969
766,-182.803082,25.391012,-0.427253,0.446662,-0.328252,1.999969
767,-197.329671,-20.263981,22.766461,-1.699123,-0.448859,1.999969
768,-132.936599,-88.685435,48.584726,-0.752819,-0.667247,1.999969
769,-6.164645,-119.752804,5.127031,1.684352,0.188479,1.902129
770,-40.161746,-29.724575,-1.586938,1.045304,0.240482,1.390646
771,-84.351873,3.173877,15.747311,-0.796521,-0.163577,1.024674
772,-38.696880,-43.030442,4.943923,-0.007202,0.155642,1.399680
773,-40.344854,-31.677729,-8.789197,0.649424,0.004395,1.137957
774,-43.518730,-4.028382,-1.525902,-0.280644,-0.145876,1.270527
775,-13.550011,-20.202945,-1.586938,0.049073,0.020020,1.027848
776,-17.944610,-13.427939,-2.319371,0.123171,0.045533,1.106218
777,-21.423667,-10.498207,4.028382,-0.037598,-0.003784,1.096818
778,-7.690547,-11.657893,2.685588,0.089967,0.097414,0.993179
779,-18.188754,-6.836042,4.882887,0.098024,0.031250,1.012100
780,-18.860151,-3.479057,7.141222,0.033936,0.021729,0.987930
781,-17.029068,-3.906310,7.385367,0.056764,0.056275,0.982437
782,-23.437858,-4.028382,7.690547,0.006348,-0.007324,0.991958
783,-19.531548,-4.821851,6.042573,-0.053834,0.179690,1.357443
784,-16.235599,-3.723201,7.263294,0.068971,0.048585,0.991226
785,-18.310826,-3.723201,5.127031,-0.013550,-0.001953,1.012833
786,-17.639429,-4.272526,4.699779,0.028443,-0.008423,1.037003
787,-16.052491,-3.784237,3.906310,0.008423,0.020630,1.043717
788,-19.104295,-4.699779,4.577707,-0.001587,0.048341,0.988052
789,-18.921187,-6.469825,3.906310,-0.011841,-0.015503,0.920668
790,-23.010605,-8.484016,3.112840,0.019165,0.014160,0.976089
791,-27.710384,-9.277485,2.502480,0.012085,0.005493,0.974868
792,-29.480430,-8.972305,1.831083,0.034180,-0.005371,0.993668
793,-28.625925,-7.690547,0.549325,0.043458,-0.011109,1.009049
794,-32.227054,-6.652934,0.305180,0.049073,-0.074098,0.991714
795,-27.038987,-4.516670,1.220722,0.025757,-0.036133,1.034440
796,-28.320745,-3.906310,1.586938,0.036866,-0.054322,1.046159
797,-23.682002,-3.418021,2.197299,0.033814,-0.060548,1.032486
798,-18.005646,-2.563516,2.258335,0.032715,-0.033692,0.978653
799,-22.400244,-2.563516,2.258335,0.021241,-0.048829,0.991592
800,-20.325017,-3.479057,1.831083,0.022217,-0.058839,0.995132
801,-17.334249,-4.394598,1.159686,0.021241,-0.033448,0.998062
802,-18.493935,-5.615320,0.244144,0.031373,-0.049805,0.988052
803,-16.113527,-6.713970,-0.915541,0.044923,-0.061891,1.029068
804,-17.883574,-4.699779,-1.892119,0.075319,-0.055299,1.028214
805,-18.432898,-2.075227,-2.136263,0.068360,-0.082887,1.019425
806,-15.442130,-0.244144,-1.525902,0.061769,-0.061402,1.014786
807,-19.531548,1.098650,-0.976577,0.057008,-0.078248,1.006851
808,-19.958801,1.586938,-0.244144,0.048096,-0.093141,1.008804
809,-17.639429,2.136263,0.671397,0.042115,-0.065675,0.982803
810,-20.508125,3.173877,1.525902,0.043824,-0.051270,0.971817
811,-26.611734,2.258335,1.709010,0.033448,-0.045777,0.988418
812,-27.344167,2.502480,0.854505,0.023926,-0.037598,0.954360
813,-33.875029,1.770047,1.403830,0.050050,-0.010498,0.988540
814,-43.945983,2.441444,2.014191,0.034913,-0.059449,0.996719
815,-47.119860,3.295949,3.906310,0.043580,-0.108766,1.008316
816,-48.584726,5.310140,5.554284,0.042237,-0.153445,0.993668
817,-42.786297,5.737392,8.178836,0.036988,-0.201663,1.028946
818,-26.489662,7.751583,9.277485,0.020996,-0.167605,1.042374
819,-22.522316,7.507439,5.798428,-0.020386,-0.122805,0.990738
820,-26.733806,4.333562,2.441444,-0.038087,-0.144778,0.981827
821,-22.583352,0.976577,-2.746624,-0.048463,-0.082033,0.973037
822,-31.433585,6.530861,-27.038987,-0.059083,-0.054078,0.965835
823,-43.274586,6.225681,-37.476158,0.022095,-0.307866,1.004776
824,-22.583352,-7.568475,-19.775692,0.043336,-0.315068,1.058000
825,-9.582666,-13.000687,-11.657893,0.109499,-0.154055,1.090715
826,-20.019837,-6.652934,-7.629511,0.080812,-0.157107,1.044572
827,-29.053178,-2.319371,-6.836042,0.048463,-0.002319,1.061051
828,-55.176623,5.310140,-17.151141,0.172122,0.010986,1.047135
829,-79.652094,16.479744,-20.202945,0.027832,0.308965,0.895033
830,-150.148775,23.865110,-51.514458,-0.014527,0.487922,0.692393
831,-168.947890,-17.029068,-50.293736,-0.185550,0.215946,0.712047
832,-251.041428,-53.223468,-29.602502,-0.353521,0.682506,1.243671
833,-417.364767,-79.163806,-66.590372,-0.223636,0.880751,1.999969
834,-550.667582,-182.925155,-70.801862,-0.938491,0.553841,1.100969
835,-749.950408,-283.329519,21.667811,-0.308965,-0.197391,1.134295
836,-903.395132,-324.406806,99.977111,0.072877,-0.077638,1.004776
837,-1018.936446,-333.012894,137.026017,1.123796,-2.000031,1.999969
838,-1080.704967,-272.831312,303.593500,0.471077,-0.711437,1.999969
839,-44.007019,-117.860685,-43.518730,0.493172,-1.483787,1.999969
840,345.037003,-13.061723,-64.820325,0.023560,0.909071,1.999969
841,159.609369,54.566262,-96.925307,-0.033204,1.178973,1.999969
842,15.075914,25.879301,-13.977264,-0.838270,0.764538,1.707179
843,28.870069,1.525902,8.606088,-0.517220,0.172488,1.383810
844,165.774014,36.743725,5.920500,-0.519661,0.095094,0.785534
845,190.188449,37.354086,16.296635,-0.349004,0.309087,0.315801
846,127.809567,26.916915,34.180209,-0.239750,0.274540,0.490364
847,123.231861,22.034028,42.664225,-0.168826,0.104494,0.813001
848,171.999695,23.926146,40.100710,-0.068727,0.168582,0.877577
849,189.761196,19.043259,37.293050,0.051637,0.291142,0.962539
850,189.700160,14.404517,31.494621,0.149172,0.278691,1.073136
851,216.861219,23.315785,18.249790,0.219608,0.278447,1.074601
852,237.369345,35.767147,2.014191,0.223026,0.276493,0.962051
853,239.749752,44.007019,-11.291676,0.225711,0.242679,1.063981
854,249.698634,49.256123,-22.095064,0.182742,0.151614,1.202289
855,272.037842,53.467613,-30.945296,0.139162,0.076661,1.303731
856,290.226596,54.383154,-35.767147,0.108766,0.004883,1.347189
857,306.095979,54.139010,-38.208591,0.107301,-0.072145,1.339742
858,319.829099,54.016938,-40.283818,0.135134,-0.128664,1.338155
859,327.519646,53.955901,-42.664225,0.153811,-0.182254,1.356710
860,332.036316,51.880674,-45.960174,0.145876,-0.286137,1.322164
861,332.097353,53.345541,-49.988556,0.166506,-0.465095,1.040665
862,317.021439,68.665599,-53.833829,0.225589,-0.604990,0.677012
863,288.822766,84.107729,-56.641489,0.290043,-0.539559,0.672129
864,252.079042,77.637903,-62.073701,0.362799,-0.369146,0.928237
865,228.641184,68.909743,-72.205692,0.362432,-0.266728,1.408469
866,205.386435,69.947356,-78.980697,0.282353,-0.212650,1.999969
867,196.597238,77.698940,-82.032502,0.170169,-0.390387,1.999969
868,240.970474,90.821698,-84.718090,0.099733,-0.690074,1.999969
869,290.775921,105.165179,-82.276646,-0.017090,-0.765759,1.999969
870,290.409705,106.080720,-72.693980,-0.074342,-0.925551,1.999969
871,297.184710,111.635004,-63.172351,0.021363,-1.073747,1.999969
872,301.152056,128.419928,-57.984283,0.286992,-1.074479,1.999969
873,280.582895,144.838636,-56.336309,0.427497,-1.127703,1.783963
874,261.783780,154.360266,-55.970092,0.445197,-1.218402,1.582177
875,242.618448,162.722210,-53.528649,0.274540,-1.393942,1.378805
876,210.269322,164.309148,-42.114900,0.013062,-1.702541,1.362692
877,172.182803,152.101930,-18.860151,-0.129030,-2.000031,1.615259
878,144.350347,139.345388,13.855192,0.118044,-2.000031,1.539574
879,127.626459,143.251698,26.672770,0.490242,-2.000031,1.000259
880,155.336843,155.703059,28.747997,0.824231,-2.000031,-0.413336
881,145.021744,125.185016,23.010605,0.912367,-2.000031,-1.722072
882,8.911269,27.405203,53.223468,0.744274,-2.000031,-1.535912
883,-142.580301,-90.272374,83.924620,0.458259,-2.000031,-2.000031
884,-287.052720,-246.219577,121.583886,1.141375,-1.607691,-0.052857
885,-243.411917,-260.074769,78.248264,1.178241,-0.760143,1.999969
886,-95.826658,-121.644923,39.978637,0.368048,0.985489,1.999969
887,-156.618601,-75.013352,49.683375,0.059937,1.134783,0.415045
888,-330.022126,-120.790417,60.914015,0.646738,0.048341,-0.150759
889,-391.912718,-90.455482,68.665599,0.896986,-0.667735,0.834241
890,-359.624628,-86.976425,50.476844,1.326925,-0.397467,1.999969
891,-269.413291,-22.095064,24.658579,0.273564,-0.906264,1.999969
892,-142.030976,-78.309300,17.456321,-1.110002,-0.846082,1.999969
893,-71.412222,-97.901884,40.894179,-0.746349,-0.309331,1.999969
894,-53.589685,-132.326238,35.828183,1.770169,0.288823,1.999969
895,-43.152514,-45.777066,0.122072,1.246601,0.027344,1.502220
896,-51.575494,-3.234913,-0.244144,-0.782605,-0.053590,1.443015
897,-45.288777,-55.359731,15.686275,-0.204227,-0.045777,1.203998
898,-12.939651,-51.148241,-0.122072,0.626474,0.197635,1.252949
899,-41.199359,-20.874342,1.159686,0.048829,-0.008667,1.227314
900,-24.658579,-20.935378,2.197299,-0.046876,-0.015747,1.117205
901,-12.878614,-18.921187,-2.075227,0.184695,0.169924,0.937514
902,-36.987869,-8.972305,1.586938,0.033082,0.011109,1.120378
903,-23.254749,-7.812619,3.356985,0.052125,-0.028321,1.116716
904,-17.029068,-2.685588,2.319371,0.120851,0.055421,0.987808
905,-26.916915,2.136263,4.699779,0.025391,0.000488,1.024063
906,-21.545739,1.586938,5.615320,0.026612,0.044190,1.017472
907,-21.362631,1.281758,5.493248,0.071046,0.077150,1.012345
908,-25.452049,0.854505,6.103609,0.028809,-0.007202,1.056779
909,-18.493935,1.831083,4.211490,0.038819,-0.017700,0.951553
910,-19.104295,1.403830,4.272526,0.025147,0.026246,1.001602
911,-21.972992,-0.061036,2.868696,-0.035035,-0.024537,1.019547
912,-17.883574,-2.380407,2.990768,0.044800,-0.019776,1.024430
913,-13.550011,-1.464866,2.685588,0.016846,-0.008423,1.025650
914,-11.230640,-1.342794,1.403830,0.029419,-0.031373,1.003311
915,-9.643702,-1.647974,2.258335,0.043336,0.085573,1.053117
916,-11.352712,-2.075227,2.990768,0.031373,0.017578,1.007584
917,-12.390326,-1.831083,1.892119,0.020508,0.013550,0.995254
918,-10.803388,-1.342794,0.427253,0.055177,-0.060670,0.932387
919,-10.986496,-1.098650,0.671397,0.042481,-0.027100,1.016251
920,-11.902037,-1.098650,0.244144,0.015991,-0.010864,0.987686
921,-10.864424,-1.281758,0.793469,0.003906,0.049073,1.042741
922,-14.038300,-2.258335,1.831083,0.007568,0.048829,1.008927
923,-13.794156,-2.990768,1.831083,0.000122,0.060060,1.009171
924,-15.503166,-4.089418,1.770047,-0.002441,0.052491,1.000870
925,-18.432898,-5.493248,1.098650,0.010620,0.002808,0.998672
926,-19.470512,-7.019150,0.244144,0.019776,-0.001953,0.996719
927,-20.263981,-7.141222,0.366217,0.062989,-0.043824,0.978164
928,-20.325017,-7.385367,0.000000,0.057862,-0.062623,1.023209
929,-15.442130,-6.103609,0.305180,0.059815,-0.071778,1.035294
930,-14.038300,-4.882887,0.793469,0.057130,-0.061402,1.042863
931,-8.484016,-3.051804,1.770047,0.051759,-0.056886,0.990738
932,-8.056764,-3.356985,1.892119,0.033570,-0.013672,0.956313
933,-14.038300,-4.821851,1.586938,0.020996,-0.013916,0.915908
934,-17.822538,-7.263294,1.464866,0.019532,-0.005493,0.925917
935,-24.353399,-7.324331,1.892119,0.054322,-0.018189,0.972427
936,-27.649348,-6.713970,2.380407,0.061646,-0.044068,1.043717
937,-29.175250,-1.220722,2.258335,0.085817,-0.052125,0.990860
938,-31.006332,0.244144,3.540093,0.028443,-0.048585,1.023575
939,-31.921874,0.671397,3.906310,0.047364,-0.038819,1.005997
940,-34.485389,0.915541,3.418021,0.042481,-0.051270,0.972549
941,-36.987869,1.586938,4.028382,0.031617,-0.059937,1.000626
942,-40.466926,5.859464,6.591897,0.062257,-0.078859,1.116472
943,-63.477531,7.080186,11.169604,0.026978,-0.120363,1.048234
944,-51.026169,7.873655,10.864424,0.029786,-0.108034,1.000626
945,-49.866484,7.751583,8.056764,0.019776,-0.095338,0.978408
946,-53.528649,5.310140,7.141222,-0.039185,-0.081300,1.039322
947,-42.175937,3.295949,-4.577707,-0.053590,-0.122316,0.984512
948,-33.875029,-1.647974,-15.625238,-0.041016,-0.126589,0.959609
949,-46.326390,4.638743,-34.058137,0.009766,-0.041138,0.976944
950,-52.429999,10.315099,-45.593957,0.141848,-0.293706,1.067765
951,-21.301595,0.732433,-26.428626,0.150027,-0.330205,1.039689
952,-1.403830,-2.380407,-6.775006,0.211307,-0.163088,1.159197
953,-10.376135,7.629511,0.183108,0.077516,-0.028321,1.104875
954,-35.645075,15.686275,-9.460594,0.056764,0.232181,0.916030
955,-81.300069,23.559930,-20.447089,0.124269,0.196902,0.974746
956,-125.734340,35.828183,-15.075914,-0.052979,0.435920,0.701061
957,-222.049287,31.128405,-28.809033,-0.003906,0.678599,0.111452
958,-216.922255,-19.958801,19.409476,-0.054078,0.703136,1.363058
959,-449.835966,-24.475471,-24.536507,0.335454,0.915541,1.616724
960,-643.564508,-33.447776,4.028382,-0.418952,0.625864,1.999969
961,-797.619593,-100.587472,51.697566,-0.270146,0.107912,1.416526
962,-906.630045,-115.053025,81.605249,0.010864,0.140627,0.873548
963,-990.249485,-127.809567,59.205005,0.511116,-2.000031,1.999969
964,-1108.598459,-49.744411,225.406271,-0.573861,-0.552499,1.999969
965,-142.885481,12.939651,-60.364691,-0.711192,-1.853788,1.999969
966,292.729076,64.087892,-58.472572,-0.780896,0.694713,1.999969
967,105.165179,75.196460,-71.290150,-0.581918,1.101579,1.999969
968,-41.382467,15.686275,45.105669,-1.008438,0.696910,1.462791
969,-52.185855,-40.466926,94.361791,-0.407233,0.369146,1.129900
970,81.300069,-33.264668,66.468299,-0.290043,0.194339,1.055924
971,151.003281,-32.227054,60.425727,-0.088380,0.520638,0.560067
972,100.465400,-39.856565,60.303655,0.054078,0.545418,0.686290
973,101.075761,-34.119173,49.073014,0.133059,0.432624,1.070817
974,155.947204,-20.141909,25.635157,0.236820,0.507942,1.301289
975,184.084840,-15.686275,5.432212,0.269169,0.553231,1.436179
976,208.743420,-18.188754,-14.282444,0.302373,0.435554,1.479149
977,250.980392,-15.259022,-37.720302,0.288212,0.345953,1.338521
978,276.066224,-7.995727,-59.388113,0.247440,0.248417,1.148455
979,283.024338,4.028382,-74.891279,0.129274,0.096681,1.021866
980,293.339437,17.761501,-85.389487,0.007446,-0.063600,0.899062
981,300.846876,23.804074,-88.197147,-0.083253,-0.132815,0.849622
982,301.091020,16.662852,-85.084306,-0.138552,-0.141238,1.009415
983,307.072557,6.469825,-80.811780,-0.107057,-0.135134,1.323507
984,320.866712,6.836042,-79.774166,-0.073732,-0.144656,1.604028
985,336.980240,21.301595,-80.750744,-0.051026,-0.182864,1.765530
986,349.675746,40.466926,-83.375296,-0.126833,-0.302373,1.795438
987,352.788586,65.369650,-82.337682,-0.221073,-0.588144,1.439719
988,343.266957,101.564050,-79.591058,-0.302617,-0.924331,0.718029
989,310.063325,139.711604,-62.378882,-0.442267,-0.939223,0.387579
990,247.989624,149.111162,-39.490349,-0.437140,-0.940078,0.515999
991,212.710765,139.772641,-16.784924,-0.417487,-0.717906,1.331197
992,188.601511,126.039521,6.042573,-0.368170,-0.498177,1.999969
993,202.700847,119.203479,29.602502,-0.356207,-0.792370,1.999969
994,269.535363,123.781186,41.382467,-0.107912,-0.969986,1.999969
995,260.868238,127.870604,49.866484,0.430182,-0.820691,1.999969
996,219.119554,114.808881,52.185855,0.697032,-0.889418,1.999969
997,242.618448,93.141070,42.359045,0.915053,-0.980850,1.999969
998,278.873884,74.769207,20.752270,0.937514,-0.993545,1.999969
999,274.967575,46.021210,5.493248,0.813367,-1.075090,1.968414
1000,268.314641,21.240558,-7.446403,0.540169,-1.252949,1.952667
1001,267.032883,5.493248,-17.700465,0.226688,-1.508202,1.759915
1002,258.365759,0.549325,-23.926146,0.015259,-1.869169,1.471336
1003,236.942092,11.596857,-27.588312,0.065675,-2.000031,1.190570
1004,203.128099,40.161746,-35.095750,0.400275,-2.000031,0.862684
1005,168.642710,81.055924,-50.476844,0.746593,-2.000031,0.274540
1006,132.997635,105.958648,-67.261769,0.750378,-2.000031,-0.314336
1007,79.530022,95.460441,-57.862211,0.492927,-2.000031,-0.609262
1008,16.662852,40.466926,-26.062409,0.317510,-2.000031,-0.694835
1009,-28.198672,-52.246891,6.713970,0.281743,-2.000031,-0.034424
1010,-55.359731,-122.804608,33.264668,0.113039,-1.731960,0.583261
1011,-171.267262,-222.598611,-0.976577,0.815564,-1.642847,-0.191775
1012,-96.925307,-186.831464,-0.549325,0.111452,-0.028199,1.999969
1013,-102.784772,-37.354086,-9.704738,-0.717906,1.381979,1.802396
1014,-124.696727,-40.711070,9.521630,-1.408469,0.548714,-0.031739
1015,-354.375525,-152.651255,82.215610,-0.613413,-0.295659,-0.092897
1016,-356.572824,-101.075761,152.895399,1.097063,-0.448859,1.560815
1017,-279.240101,-52.918288,58.533608,1.999969,-0.221805,1.999969
1018,-216.433967,-2.563516,22.034028,1.297383,-0.155520,1.999969
1019,-170.901045,-40.650034,21.606775,-0.809094,-0.794079,1.999969
1020,-58.777752,-63.172351,32.410163,-1.567895,-0.416388,1.240864
1021,-58.594644,-126.955062,39.246204,0.657481,0.462409,1.433738
1022,-78.919661,-76.478218,18.371862,1.687526,0.181033,1.771511
1023,-77.821012,-9.094377,12.756542,-0.432502,-0.121340,1.525536
1024,-53.162432,-42.847333,10.070954,-0.441047,-0.095583,1.073381
1025,-29.358358,-52.185855,-5.249104,0.643320,0.275761,1.610620
1026,-48.889906,-19.836728,-2.563516,0.050172,-0.088746,1.118059
1027,-20.325017,-18.554971,-3.479057,-0.112673,-0.011353,1.149187
1028,-17.822538,-18.188754,-3.845274,0.196048,0.099001,1.085832
1029,-21.972992,-8.789197,0.671397,-0.004883,-0.022461,1.100969
1030,-10.254063,-7.263294,-0.366217,0.051148,0.072633,0.996841
1031,-18.371862,-2.746624,0.671397,0.063722,0.062989,0.988052
1032,-21.911955,1.647974,1.586938,-0.078614,0.160525,1.172137
1033,-21.240558,2.197299,4.272526,0.112306,0.059571,1.046159
1034,-24.780652,7.751583,5.249104,0.041749,0.013794,1.007462
1035,-22.583352,9.338521,5.371176,0.048341,0.021363,1.028214
1036,-22.522316,11.108568,5.920500,0.048829,0.013428,1.058122
1037,-20.141909,12.573434,6.591897,-0.000610,0.000610,1.026017
1038,-16.174563,11.535821,5.920500,0.005982,-0.002808,1.028824
1039,-14.343481,10.437171,5.798428,0.003784,0.001343,1.037125
1040,-10.193027,10.009918,5.371176,0.002564,-0.006714,1.028092
1041,-7.141222,9.338521,4.760815,-0.022461,0.005005,0.985977
1042,-7.019150,6.652934,4.028382,-0.023072,0.027344,0.974624
1043,-9.094377,4.028382,3.601129,-0.022705,0.015991,0.972061
1044,-8.728161,1.403830,2.746624,-0.028199,0.015869,0.971450
1045,-9.277485,0.427253,0.061036,0.047730,-0.093507,0.738170
1046,-9.887846,-3.234913,0.000000,-0.026490,0.007935,1.069352
1047,-11.902037,-4.699779,0.732433,-0.006958,0.003540,0.967544
1048,-10.193027,-4.699779,1.098650,-0.007324,-0.012207,0.989395
1049,-8.361944,-4.516670,1.037613,-0.007813,-0.015381,0.990616
1050,-7.141222,-5.371176,0.793469,-0.022950,0.005493,0.985367
1051,-8.545052,-7.324331,0.305180,-0.008667,0.000122,1.008682
1052,-7.019150,-7.873655,0.000000,0.016114,0.018921,1.014664
1053,-7.507439,-7.812619,-0.122072,-0.003174,0.037964,0.991348
1054,-10.376135,-8.422980,-0.122072,0.019898,-0.023194,0.915785
1055,-15.381094,-8.911269,0.000000,0.004761,-0.017456,0.947646
1056,-17.273213,-9.460594,0.244144,-0.001953,0.001221,0.996109
1057,-16.906996,-9.643702,0.244144,0.019532,-0.024781,0.970962
1058,-18.066682,-9.582666,0.366217,-0.002930,-0.022217,1.004410
1059,-17.090105,-10.131991,0.244144,-0.001831,-0.020630,0.993912
1060,-17.273213,-11.108568,0.061036,0.004028,-0.008667,0.964736
1061,-21.118486,-12.573434,-0.244144,0.005493,-0.006592,0.960708
1062,-23.498894,-13.366903,-0.854505,0.005982,-0.004517,1.085588
1063,-23.437858,-12.756542,-1.159686,0.030396,-0.043091,1.017716
1064,-20.752270,-12.451362,-1.342794,0.009522,-0.040284,0.959609
1065,-24.841688,-12.512398,-2.075227,0.014282,-0.019776,0.965713
1066,-31.311513,-12.939651,-1.953155,0.011841,-0.009033,0.980117
1067,-34.729534,-13.611048,-2.319371,0.024537,-0.038819,1.073014
1068,-32.837415,-8.056764,-3.418021,0.064942,-0.018189,0.937148
1069,-39.734493,-3.601129,-0.671397,0.071412,-0.049317,1.002213
1070,-52.368963,-0.793469,7.934691,0.058473,-0.105959,1.042985
1071,-41.260395,3.418021,9.704738,0.056397,-0.093751,1.017227
1072,-41.443503,6.775006,10.620279,0.046876,-0.052613,1.025528
1073,-46.814679,6.958114,8.728161,-0.054200,-0.036378,0.988907
1074,-49.317159,2.258335,1.037613,-0.067384,-0.025513,0.932876
1075,-47.547112,-0.854505,-5.310140,-0.024781,-0.133181,1.024186
1076,-57.618067,1.037613,-19.897765,-0.032227,-0.055055,0.940932
1077,-59.937438,3.479057,-37.659266,0.041382,-0.208133,1.015885
1078,-48.828870,-3.418021,-30.945296,0.103517,-0.323857,1.062150
1079,-26.367590,-10.498207,-9.155413,0.148440,-0.302617,1.099504
1080,-21.606775,-5.065995,1.770047,0.041871,-0.005859,1.006851
1081,-40.894179,2.258335,-9.643702,0.115969,0.200443,0.959854
1082,-77.637903,11.657893,-14.221408,0.107546,0.234257,0.987564
1083,-128.236820,22.949569,-20.325017,-0.051514,0.551034,0.870741
1084,-229.312581,16.845960,-51.026169,-0.117800,0.406378,-0.110597
1085,-220.340276,-45.838102,9.948882,-0.279789,0.534066,1.127703
1086,-400.335699,-59.388113,-13.122759,0.210697,1.621485,1.999969
1087,-589.730678,-107.179370,-45.471885,-0.882948,0.379889,1.333639
1088,-762.218662,-207.827878,35.523003,-0.447395,-0.083864,1.293599
1089,-900.709545,-273.563745,85.389487,-0.137209,-0.025513,0.924697
1090,-998.611429,-285.038529,104.432746,0.916640,-2.000031,1.999969
1091,-1093.461509,-222.537575,275.089647,0.038331,-0.801892,1.999969
1092,-86.549172,-89.539940,-31.738766,-0.127687,-1.635035,1.999969
1093,370.611124,-2.319371,-41.260395,-0.082399,0.902480,1.999969
1094,238.040742,17.212177,-63.782712,-0.250248,1.340963,1.780301
1095,81.849393,9.399557,0.305180,-0.725841,0.656748,1.015885
1096,-8.178836,-35.645075,43.762875,-0.503059,0.437140,0.612802
1097,54.383154,-18.860151,51.331350,-0.341924,0.339971,0.582162
1098,141.664759,-4.028382,35.523003,-0.292851,0.376959,0.514900
1099,122.072175,-6.347753,38.574807,-0.126955,0.466438,0.737926
1100,105.165179,-9.887846,41.870756,-0.076295,0.367437,1.128191
1101,159.853513,-4.028382,33.997101,0.011231,0.384283,1.343648
1102,200.503548,-1.281758,24.048219,0.083131,0.438361,1.234150
1103,211.917296,1.342794,15.075914,0.143069,0.373175,1.095354
1104,232.059205,10.864424,2.746624,0.182498,0.310918,0.979263
1105,247.989624,22.278172,-10.193027,0.175540,0.261479,0.888319
1106,253.116655,28.381781,-19.226368,0.148440,0.193606,0.915053
1107,261.417563,29.541466,-25.268940,0.125246,0.140017,1.061173
1108,275.944152,28.686961,-30.640116,0.154421,0.106081,1.236225
1109,292.912184,28.320745,-36.438544,0.214969,0.100954,1.450706
1110,311.161975,30.212863,-44.495308,0.312505,0.082155,1.664820
1111,333.073930,34.241245,-56.031128,0.380621,-0.002197,1.685573
1112,351.750973,42.908370,-72.144656,0.359258,-0.221805,1.450095
1113,352.849622,57.190814,-85.938811,0.317388,-0.585458,0.732555
1114,330.388342,76.661326,-94.605936,0.316899,-0.763684,0.006104
1115,282.413977,79.713130,-97.352560,0.372564,-0.621714,-0.102174
1116,214.541848,63.294423,-100.892653,0.445686,-0.361089,0.524422
1117,175.539788,53.345541,-108.949416,0.401251,-0.208743,1.827909
1118,166.262303,65.064469,-114.015412,0.247929,-0.156252,1.999969
1119,194.949264,83.314260,-114.076448,-0.004639,-0.559091,1.999969
1120,277.470054,101.319905,-103.822385,-0.214847,-1.021378,1.999969
1121,292.362860,124.391547,-87.525750,-0.251591,-1.082780,1.562890
1122,221.622034,113.405051,-55.359731,-0.270390,-1.070939,1.950713
1123,202.639811,102.601663,-27.893492,-0.165652,-1.134417,1.999969
1124,248.966201,104.432746,-8.667124,-0.009155,-1.194965,1.999969
1125,289.738308,107.972839,2.380407,0.398077,-1.078264,1.871000
1126,263.797971,113.344015,7.141222,0.663096,-0.999039,1.591821
1127,238.834211,92.957961,6.469825,0.764050,-1.090715,1.625757
1128,245.426108,71.900511,-1.037613,0.701671,-1.189471,1.600732
1129,232.974746,55.359731,-6.225681,0.489387,-1.422385,1.438254
1130,214.908064,51.636530,-6.836042,0.302129,-1.779934,1.193378
1131,194.277867,54.688334,-7.385367,0.302617,-2.000031,0.833021
1132,156.740673,65.125505,-10.070954,0.456916,-2.000031,0.584237
1133,108.766308,81.177996,-18.432898,0.713146,-2.000031,0.282963
1134,72.999161,87.098497,-29.175250,0.801648,-2.000031,-0.082643
1135,45.654994,61.646448,-26.367590,0.655528,-2.000031,-0.344976
1136,-5.493248,9.643702,-0.854505,-0.146120,-2.000031,-2.000031
1137,-162.722210,-126.588846,54.627298,0.448493,-2.000031,-1.604273
1138,-283.024338,-206.301976,65.430686,0.987808,-1.084611,1.296162
1139,-105.470359,-64.942397,18.188754,0.321050,0.773449,1.999969
1140,-99.427787,-21.545739,14.526589,-0.427985,1.209003,1.560204
1141,-224.124514,-99.610895,36.560616,-0.527352,0.176394,-0.446540
1142,-312.260624,-106.813153,64.759289,-0.193973,-0.809216,0.162112
1143,-316.594186,-91.248951,83.436332,0.670542,-0.254276,1.999969
1144,-245.792325,-54.627298,68.970779,1.504173,-0.194461,1.999969
1145,-132.082094,-9.643702,17.090105,1.256977,-0.041627,1.225238
1146,-169.558251,0.915541,12.634470,-0.416022,0.266606,1.999969
1147,-204.287785,-34.973678,38.330663,-1.213275,-0.710460,1.999969
1148,-83.680476,-101.747158,23.315785,0.301274,-0.372198,1.999969
1149,-19.226368,-66.651408,-2.441444,1.225238,0.379278,1.826444
1150,-57.801175,-5.615320,2.807660,0.043458,0.157473,0.998795
1151,-69.642176,-17.334249,10.070954,-0.525765,-0.037354,1.220722
1152,-36.499580,-33.875029,-4.760815,0.420783,-0.039918,1.302510
1153,-26.062409,-6.836042,-6.836042,0.102174,0.049683,1.172869
1154,-33.386740,-7.629511,1.159686,-0.141360,-0.010254,1.070329
1155,-13.550011,-11.963073,-2.868696,0.066041,0.022217,1.058976
1156,-17.151141,-8.850233,-0.427253,0.081666,0.066651,1.066056
1157,-13.550011,-7.202258,2.197299,0.000732,-0.016602,1.044327
1158,-5.920500,-6.836042,2.380407,0.053956,0.039918,0.973892
1159,-12.268254,-4.455634,4.028382,0.046265,0.047974,0.991714
1160,-11.902037,-4.211490,4.577707,0.001465,0.031983,0.971084
1161,-14.831769,-5.065995,3.906310,0.021607,0.016114,0.975235
1162,-16.540780,-5.004959,3.906310,-0.019898,0.160891,1.169207
1163,-14.709697,-4.333562,4.394598,0.058106,0.054688,1.026993
1164,-15.747311,-1.831083,3.051804,0.025757,-0.021607,0.988907
1165,-10.864424,-0.793469,3.906310,0.036866,0.027710,1.041398
1166,-10.498207,0.244144,2.990768,0.004883,0.010254,0.972549
1167,-10.009918,-1.098650,3.784237,0.016114,0.024781,1.047990
1168,-8.117800,-1.159686,4.028382,0.022339,0.015625,1.048966
1169,-4.943923,-0.183108,3.723201,-0.002441,0.036500,1.047868
1170,-4.089418,0.061036,3.356985,-0.001953,0.065309,0.979019
1171,-3.845274,-0.305180,1.220722,0.022705,-0.072023,0.833631
1172,-4.760815,-2.563516,1.525902,-0.003906,0.021973,1.019181
1173,-6.958114,-4.333562,0.854505,-0.010620,-0.004517,0.874769
1174,-9.399557,-5.981537,0.366217,0.027832,-0.019165,0.931167
1175,-11.230640,-6.652934,1.220722,0.026123,-0.040894,0.985611
1176,-11.047532,-7.080186,-1.586938,-0.008423,0.009644,1.192889
1177,-12.268254,-8.667124,1.586938,0.088624,0.045045,0.919936
1178,-18.799115,-8.484016,0.671397,-0.035401,0.025635,0.925917
1179,-19.531548,-10.620279,0.549325,0.016968,0.011963,1.015763
1180,-18.310826,-10.437171,-0.244144,0.024048,0.045167,0.979019
1181,-22.644388,-10.620279,-1.098650,0.017334,0.010010,0.965835
1182,-25.268940,-10.009918,-0.610361,0.048341,0.000244,1.048112
1183,-22.339208,-9.277485,-0.854505,0.031495,-0.027832,1.023087
1184,-21.301595,-8.545052,-0.366217,0.059327,-0.042237,1.018814
1185,-19.287404,-6.103609,0.854505,0.064454,-0.045411,1.078630
1186,-14.465553,-3.845274,2.014191,0.057618,-0.032471,0.998306
1187,-14.038300,-2.868696,2.746624,0.039673,-0.004761,1.014176
1188,-22.156100,-2.319371,2.807660,0.032593,-0.009522,0.966690
1189,-24.353399,-2.502480,2.502480,0.016968,-0.004639,0.946670
1190,-29.175250,-2.014191,1.892119,0.100587,-0.008301,1.076677
1191,-33.325704,3.051804,1.098650,0.017945,-0.039918,0.982559
1192,-32.349126,2.502480,1.831083,0.046143,-0.036378,1.023453
1193,-34.241245,3.051804,1.892119,-0.002564,-0.032349,1.011978
1194,-34.363317,1.464866,1.403830,0.017090,-0.035157,0.964614
1195,-36.682689,1.770047,2.441444,0.036133,-0.018921,0.972427
1196,-48.218509,5.615320,5.371176,0.055787,-0.069459,1.017350
1197,-55.481804,7.751583,10.742351,0.105592,-0.009033,0.960708
1198,-40.588998,8.667124,12.207218,0.040162,-0.090089,1.068742
1199,-41.992828,10.193027,10.254063,-0.003784,-0.062867,0.945205
1200,-47.486076,7.324331,8.300908,-0.027710,-0.051759,1.042008
1201,-43.884947,5.310140,-0.488289,-0.061402,-0.085817,0.952041
1202,-33.447776,0.671397,-12.451362,-0.027832,-0.090089,0.927260
1203,-37.354086,5.188067,-26.977951,-0.055299,-0.056031,1.052628
1204,-46.326390,10.315099,-41.687648,0.129641,-0.312016,0.987930
1205,-23.437858,2.258335,-20.691234,0.130495,-0.349859,1.010880
1206,2.807660,-3.967346,-0.671397,0.132082,-0.222293,1.068742
1207,3.112840,5.798428,8.911269,0.125490,-0.179812,1.092180
1208,-16.052491,15.259022,8.239872,-0.076905,0.148684,1.027481
1209,-51.270314,12.817578,-10.131991,0.109255,0.081910,1.025895
1210,-89.417868,19.775692,-11.841001,0.005127,0.502083,0.798840
1211,-168.764782,24.963760,-36.011292,0.010620,0.592294,0.551766
1212,-264.347295,3.845274,-50.904097,-0.186648,-0.039551,-0.287724
1213,-325.627527,-53.284504,16.906996,-0.157107,0.464973,1.517235
1214,-525.215534,-40.772107,-27.710384,0.470710,1.311055,1.999969
1215,-719.005112,-93.568322,-62.867170,-0.728893,0.262211,1.217914
1216,-907.850767,-176.089113,47.364004,-0.225467,0.273808,1.133562
1217,-1047.196155,-225.711452,92.774853,0.085695,0.046021,0.732921
1218,-1401.693752,-313.664454,173.342489,0.589364,-1.860990,1.999969
1219,-439.093614,-121.278706,131.593805,-1.147356,-0.215946,1.999969
1220,399.969482,-25.146868,-96.925307,-0.131838,1.156512,1.999969
1221,441.779202,6.591897,-81.055924,-0.541390,1.640284,1.999969
1222,220.462348,-8.667124,-77.332723,-0.674449,1.402121,1.303365
1223,75.257496,-65.980011,-4.882887,-0.639780,0.446418,-0.168704
1224,18.188754,-88.441291,-1.220722,-0.315679,0.342168,0.125856
1225,89.112688,-54.261082,-9.155413,-0.339971,0.210819,0.315435
1226,139.406424,-24.353399,-18.005646,-0.233890,0.405158,0.444587
1227,108.155947,-13.855192,-16.968032,-0.191775,0.462409,0.697398
1228,113.160906,-12.634470,-18.066682,-0.198001,0.399420,1.078752
1229,162.417029,-11.718929,-23.743038,-0.143435,0.442512,1.260761
1230,194.522011,-12.146181,-28.686961,-0.067506,0.510750,1.413718
1231,214.785992,-7.751583,-34.912642,-0.008057,0.458747,1.584009
1232,249.271382,7.385367,-44.617380,0.015747,0.319341,1.586328
1233,284.733349,26.428626,-53.467613,0.018677,0.196780,1.411887
1234,305.302510,42.114900,-59.021897,0.016968,0.083742,1.216571
1235,317.265583,54.383154,-61.219196,0.006592,-0.041505,1.076432
1236,325.444419,65.613794,-61.097124,0.018677,-0.128664,0.970596
1237,328.557259,72.144656,-59.998474,0.029419,-0.205081,0.877089
1238,320.134279,77.454795,-58.289464,-0.007324,-0.397467,0.651377
1239,300.846876,88.746471,-52.735180,-0.047608,-0.615244,0.456428
1240,276.981765,96.375982,-41.016251,0.112673,-0.533700,0.500496
1241,245.243000,82.887007,-39.978637,0.429450,-0.292973,0.930068
1242,231.082628,77.637903,-51.026169,0.604379,-0.134157,1.600855
1243,217.593652,91.676204,-63.843748,0.490852,-0.174929,1.999969
1244,225.101091,109.498741,-69.336996,0.303716,-0.458137,1.999969
1245,255.374990,120.302129,-68.177310,0.139406,-0.744518,1.999969
1246,279.056992,126.955062,-59.754330,0.082033,-0.970596,1.648951
1247,254.398413,116.639963,-44.983597,0.148928,-0.903090,1.839628
1248,223.575189,94.483864,-33.081559,0.216434,-0.864515,1.999969
1249,247.318227,88.868544,-26.672770,0.275273,-0.896742,1.999969
1250,306.340124,94.972152,-26.855879,0.230838,-1.014542,1.999969
1251,343.083848,101.625086,-27.893492,0.289921,-0.911269,1.920562
1252,317.814908,97.596704,-28.259709,0.549569,-0.828260,1.533349
1253,301.762417,102.113375,-33.752956,0.779065,-0.753429,1.560082
1254,287.052720,101.380941,-40.772107,0.613657,-0.814221,1.713649
1255,273.258564,88.075074,-37.415122,0.311162,-1.079850,1.736599
1256,266.361486,71.351186,-25.757229,-0.027344,-1.460960,1.447410
1257,244.815747,61.097124,-11.413748,-0.211551,-1.932647,0.927504
1258,194.644083,68.421454,3.112840,-0.160769,-2.000031,0.540536
1259,128.053712,94.911116,11.963073,0.230472,-2.000031,0.436530
1260,61.951629,137.209125,-0.549325,0.597543,-2.000031,0.480964
1261,36.377508,168.581674,-6.469825,0.567636,-2.000031,0.182010
1262,23.620966,135.561151,14.953841,0.355596,-2.000031,-0.262455
1263,-50.171664,32.349126,54.627298,0.045777,-2.000031,-2.000031
1264,-262.760357,-176.211185,110.048066,1.239887,-1.876982,-1.433494
1265,-218.204013,-182.314794,71.717403,1.400412,-0.518196,1.655421
1266,-136.415656,-110.109102,31.860838,0.224979,1.515526,1.999969
1267,-158.449683,-100.526436,43.579767,-0.224613,1.022477,1.062150
1268,-314.335851,-118.348974,61.402304,-0.204105,-0.379767,-0.325811
1269,-319.218738,-109.742885,79.285878,0.360967,-0.581186,1.043839
1270,-319.218738,-84.779126,79.285878,1.335470,-0.133059,1.999969
1271,-221.805142,-33.569848,49.073014,1.537377,-0.216190,1.999969
1272,-94.117647,28.442817,-0.610361,0.942885,0.032837,1.116960
1273,-174.441138,37.903410,-8.239872,-0.246708,0.189456,1.010880
1274,-208.010987,30.395972,26.611734,-1.864286,-0.102296,1.785061
1275,-174.135958,-82.276646,50.782025,-1.397116,-0.725231,1.730983
1276,-100.770581,-163.881895,32.043946,1.769436,0.111818,1.999969
1277,-44.556344,-59.021897,1.525902,1.892973,0.009277,1.856229
1278,-48.096437,26.245518,-10.009918,-0.949844,0.294560,0.925917
1279,-97.291524,-43.579767,20.813306,-0.339605,-0.080812,1.297749
1280,-39.063096,-35.706111,-5.493248,0.839979,-0.087526,1.816190
1281,-18.493935,3.662165,-5.554284,-0.169924,0.079347,0.921889
1282,-35.706111,-14.282444,3.051804,-0.169314,-0.021118,1.007584
1283,-17.944610,-18.493935,-0.549325,0.177981,0.025269,1.100114
1284,-25.085832,-9.704738,2.014191,0.004517,0.012207,1.023575
1285,-22.278172,-11.413748,2.990768,0.006470,0.016846,1.075700
1286,-19.226368,-6.591897,2.075227,0.170169,0.031739,0.954849
1287,-21.423667,-2.136263,5.493248,0.053101,0.005371,1.013687
1288,-24.231327,-3.418021,6.591897,0.031128,-0.025757,0.981338
1289,-20.935378,-3.723201,5.371176,0.030396,-0.015747,1.050553
1290,-16.662852,-4.394598,3.723201,0.018189,-0.025269,1.043351
1291,-16.052491,-4.455634,3.418021,0.020874,-0.007324,1.043351
1292,-13.305867,-4.760815,2.014191,-0.039796,0.048219,1.067399
1293,-11.230640,-6.958114,3.479057,0.086061,0.086793,0.904555
1294,-12.573434,-4.211490,1.831083,0.008179,0.013184,0.998917
1295,-12.634470,-4.028382,1.647974,0.015747,0.006836,1.002213
1296,-13.244831,-3.906310,1.770047,0.018555,0.014282,0.988296
1297,-15.991455,-4.577707,2.258335,0.015991,-0.006714,1.015518
1298,-14.709697,-4.272526,2.014191,0.029175,-0.009400,1.015885
1299,-12.634470,-3.784237,1.709010,0.035523,-0.003906,1.005875
1300,-14.038300,-3.601129,1.464866,0.014527,-0.005127,1.019547
1301,-13.244831,-4.150454,0.915541,0.017090,-0.016602,1.032853
1302,-10.070954,-3.234913,0.976577,0.029908,-0.032959,1.021134
1303,-6.530861,-2.563516,0.793469,0.008667,-0.025635,1.051530
1304,-6.225681,-3.051804,1.159686,0.012818,-0.019043,1.029191
1305,-6.652934,-3.662165,0.915541,0.020386,-0.059205,0.968276
1306,-9.094377,-4.760815,0.854505,0.009766,-0.026368,0.975235
1307,-9.643702,-5.493248,1.159686,0.037110,-0.055543,0.948989
1308,-9.521630,-5.798428,1.342794,0.017090,-0.031983,1.015885
1309,-8.789197,-6.042573,0.793469,0.005615,-0.009888,1.012833
1310,-9.765774,-6.530861,0.366217,0.035889,-0.009033,1.034195
1311,-8.911269,-5.676356,0.488289,0.033204,-0.035523,1.059586
1312,-8.911269,-5.432212,0.244144,0.053712,-0.032227,0.995743
1313,-10.070954,-5.310140,0.183108,0.017212,-0.031617,0.956313
1314,-10.925460,-6.408789,0.671397,0.035401,-0.008545,0.935561
1315,-17.029068,-7.141222,0.976577,0.017090,-0.015503,0.947890
1316,-19.836728,-8.606088,1.709010,0.027466,-0.013916,0.978897
1317,-19.653620,-9.521630,1.220722,0.017090,-0.058350,0.967422
1318,-20.691234,-9.765774,0.976577,0.045655,-0.027100,0.996963
1319,-24.475471,-9.399557,0.793469,0.039551,-0.035767,1.010758
1320,-26.672770,-5.310140,-0.427253,0.090333,-0.055177,1.020401
1321,-27.588312,-3.051804,-0.549325,0.046632,-0.046265,1.055436
1322,-28.198672,-1.770047,-0.305180,0.039673,-0.048463,1.009293
1323,-31.738766,-1.586938,0.061036,0.018311,-0.045289,0.983658
1324,-32.471199,-1.770047,1.037613,0.072633,-0.058595,0.933852
1325,-38.391699,0.366217,1.403830,0.003906,-0.058717,0.900649
1326,-38.025483,1.953155,5.554284,0.086061,-0.019898,1.016495
1327,-58.228428,3.723201,8.484016,0.031617,-0.081178,0.998306
1328,-55.725948,5.371176,10.070954,0.079103,-0.078614,1.018204
1329,-54.139010,6.530861,10.376135,0.018311,-0.126955,1.039689
1330,-49.317159,6.408789,7.385367,-0.000855,-0.124147,1.022965
1331,-33.081559,4.821851,-0.976577,-0.060548,-0.063111,0.951308
1332,-37.781338,3.967346,-15.503166,-0.012451,-0.092897,0.890150
1333,-43.091478,-0.305180,-23.620966,-0.002686,-0.150881,0.970108
1334,-41.748684,2.990768,-33.875029,0.027344,-0.255253,1.022110
1335,-28.686961,-5.798428,-29.602502,0.145754,-0.384649,1.108537
1336,-5.981537,-6.469825,-10.742351,0.196536,-0.272831,1.054582
1337,-1.892119,0.122072,8.850233,0.100587,-0.022950,1.124529
1338,-42.053864,14.770733,-5.615320,0.083864,0.203006,0.982681
1339,-76.112001,23.620966,-13.061723,0.085084,0.251469,0.898573
1340,-126.100557,29.724575,-23.437858,-0.018555,0.522347,0.796887
1341,-235.416190,25.757229,-59.449149,-0.045777,0.694347,0.219608
1342,-238.406958,-44.861524,-18.371862,-0.203616,0.057984,0.988785
1343,-372.137026,-80.079347,-27.649348,-0.200076,1.161517,1.879423
1344,-520.210575,-154.238193,-84.046693,-0.720470,0.522713,1.418967
1345,-738.109407,-263.004501,-13.061723,-0.195682,0.105959,0.928969
1346,-943.495842,-293.217365,93.629358,0.070802,0.073854,0.980606
1347,-1087.296864,-291.813535,160.646983,1.515892,-2.000031,1.999969
1348,-1004.837110,-202.334630,284.672313,0.302373,-1.100114,1.999969
1349,111.268788,-31.555657,-70.923934,0.153201,-0.918715,1.999969
1350,465.827420,49.134051,-70.008392,-0.340337,0.752941,1.999969
1351,235.294118,79.163806,-87.098497,-0.430182,0.521370,1.417624
1352,35.156786,16.968032,19.958801,-0.944350,0.530648,0.233158
1353,-44.068055,-33.691920,53.406577,-0.534676,0.217533,0.448249
1354,51.514458,-11.169604,60.730907,-0.420905,0.118288,0.523445
1355,132.814527,3.356985,55.176623,-0.268681,0.354742,0.456306
1356,98.084993,3.356985,58.960861,-0.074708,0.427497,0.564096
1357,85.755703,6.286717,58.350500,0.026001,0.360845,0.886244
1358,135.683223,13.733120,44.495308,0.184695,0.441901,1.056901
1359,167.666133,15.991455,28.320745,0.285039,0.538338,1.097795
1360,182.131685,15.686275,12.085145,0.347662,0.494759,1.208759
1361,214.480812,23.376822,-7.141222,0.330205,0.398077,1.259174
1362,245.487144,31.250477,-23.743038,0.295537,0.318975,1.225238
1363,263.920043,34.790570,-35.523003,0.256962,0.216556,1.278584
1364,283.695735,38.269627,-44.678416,0.190555,0.060792,1.352438
1365,306.706340,42.114900,-50.598917,0.187381,-0.060304,1.307271
1366,323.002976,47.913329,-54.871443,0.181888,-0.138674,1.189227
1367,333.073930,51.636530,-57.862211,0.157473,-0.237552,0.922133
1368,327.763790,53.833829,-59.998474,0.134646,-0.407965,0.414313
1369,300.785840,59.449149,-62.256809,0.234867,-0.608774,-0.050538
1370,252.445258,69.092851,-60.852979,0.341802,-0.420050,0.196536
1371,193.118181,58.350500,-65.003433,0.311406,-0.294072,0.886976
1372,180.727855,49.927520,-70.252537,0.291020,-0.134401,1.973175
1373,192.019532,61.890593,-76.417182,0.243656,-0.220218,1.999969
1374,233.218891,83.253223,-78.309300,0.204105,-0.501839,1.999969
1375,288.822766,91.615167,-77.515831,0.062623,-0.673472,1.990875
1376,283.939879,91.371023,-66.773480,0.029908,-0.748302,1.651637
1377,240.054932,82.642863,-49.561303,0.002808,-0.798596,1.999969
1378,246.585794,78.492409,-39.124132,0.141848,-0.868299,1.999969
1379,266.910811,83.497368,-34.912642,0.256229,-0.844373,1.999969
1380,280.033570,94.483864,-35.645075,0.399298,-1.071794,1.535546
1381,268.986038,119.569696,-42.725261,0.694713,-0.999893,1.118181
1382,204.715038,122.072175,-46.387427,0.705089,-0.891615,1.478660
1383,192.141604,109.010452,-52.246891,0.696056,-0.945693,1.867094
1384,211.001755,100.038148,-56.519417,0.582406,-0.927993,1.983307
1385,211.123827,84.046693,-53.894865,0.437385,-1.069230,1.748440
1386,218.020905,67.689021,-49.439231,0.287724,-1.193866,1.483177
1387,208.316167,57.740139,-44.068055,0.153811,-1.333028,1.258442
1388,189.272908,56.031128,-36.987869,0.026612,-1.529320,1.127947
1389,173.525597,59.754330,-29.114214,-0.023682,-1.735622,0.970718
1390,151.247425,65.918975,-18.188754,0.008789,-1.956085,0.980972
1391,127.931640,74.952316,-0.915541,0.118410,-2.000031,0.840711
1392,109.254597,84.412909,10.742351,0.233402,-2.000031,0.361089
1393,88.990616,86.549172,16.540780,0.275883,-2.000031,-0.209476
1394,37.903410,67.505913,31.616693,-0.138918,-2.000031,-0.957534
1395,-114.381628,-48.706798,68.543526,0.284062,-2.000031,-2.000031
1396,-288.700694,-195.986877,90.516518,1.038590,-2.000031,-1.219013
1397,-166.262303,-173.403525,53.955901,1.121477,-0.005249,1.563256
1398,-112.794690,-125.368124,17.456321,0.253544,1.494652,1.999969
1399,-208.316167,-91.371023,37.232013,-0.177127,1.008927,1.038346
1400,-303.227283,-112.062257,42.114900,-0.164675,-0.588388,0.048707
1401,-282.108797,-111.451896,54.871443,0.055909,-0.573739,1.526635
1402,-271.427482,-88.624399,61.768521,0.880507,-0.300298,1.999969
1403,-207.644770,-46.509499,46.082246,0.990982,-0.385016,1.999969
1404,-114.686809,-2.807660,25.207904,0.393072,0.098268,1.634546
1405,-166.201267,-10.498207,39.551385,-0.525643,0.274540,1.999969
1406,-173.281453,-46.875715,43.396658,-0.301030,-0.423468,1.999969
1407,-43.823911,-72.693980,12.878614,0.575570,-0.045533,1.999969
1408,-21.301595,-44.739452,-2.624552,0.564950,0.048585,1.225238
1409,-58.289464,-29.541466,10.498207,-0.049683,0.208133,1.127337
1410,-83.131151,-39.307240,12.756542,-0.169192,0.000488,1.002090
1411,-56.031128,-41.138323,3.234913,0.245975,0.139040,1.649805
1412,-47.364004,-26.611734,-1.098650,0.180301,-0.032593,1.130022
1413,-33.691920,-18.127718,-6.347753,-0.025269,-0.029664,1.112078
1414,-30.701152,-16.052491,-2.441444,0.190433,0.058228,1.110857
1415,-37.109941,-2.929732,-1.464866,0.042359,0.012696,1.094865
1416,-36.804761,-2.014191,1.892119,0.031861,-0.052003,1.126970
1417,-21.118486,3.173877,1.464866,0.103761,0.018555,1.055314
1418,-27.771420,6.530861,2.014191,0.048585,-0.003662,1.069352
1419,-25.268940,8.667124,2.990768,0.068849,-0.062989,1.109148
1420,-13.855192,12.329290,2.746624,0.039063,-0.039307,1.073625
1421,-12.756542,12.695506,3.051804,0.016236,-0.027832,1.033707
1422,-9.216449,12.329290,2.685588,0.016236,-0.017212,1.006363
1423,-9.338521,11.108568,2.014191,-0.016846,0.002564,0.964736
1424,-11.657893,8.239872,1.220722,-0.029541,-0.003906,0.974014
1425,-12.390326,5.310140,0.488289,-0.012451,-0.031373,0.996597
1426,-11.108568,4.272526,0.854505,0.002441,-0.029908,0.998550
1427,-10.559243,2.868696,1.525902,-0.014771,-0.046265,0.982071
1428,-8.606088,1.586938,2.197299,0.000855,-0.028565,1.012833
1429,-8.484016,0.610361,2.258335,0.007080,-0.044923,1.028824
1430,-5.371176,0.976577,2.014191,0.011841,-0.038697,1.025772
1431,-4.150454,1.281758,1.892119,0.011841,-0.041627,1.025528
1432,-1.647974,1.647974,1.525902,0.004883,-0.012940,0.977798
1433,-5.371176,2.075227,1.220722,0.012329,0.013550,0.954726
1434,-11.535821,1.953155,1.037613,-0.010254,-0.013916,0.976699
1435,-11.902037,1.831083,1.342794,0.005615,-0.013184,0.981094
1436,-14.831769,2.075227,1.709010,-0.007935,-0.003296,0.956069
1437,-18.554971,0.732433,2.136263,0.001343,-0.023804,0.972061
1438,-18.677043,0.976577,2.380407,0.011109,-0.026978,0.969986
1439,-22.888533,0.366217,2.990768,-0.015259,-0.025879,0.976822
1440,-25.391012,-1.647974,3.418021,-0.027100,-0.053468,0.998550
1441,-22.949569,-3.234913,2.929732,-0.020508,-0.052613,1.007462
1442,-21.972992,-5.432212,2.380407,-0.028443,-0.073121,1.020768
1443,-16.052491,-7.080186,1.342794,-0.019409,-0.055787,0.993179
1444,-14.770733,-8.606088,0.000000,-0.036011,-0.025269,0.941909
1445,-21.911955,-11.718929,-0.549325,-0.010864,-0.020996,0.967910
1446,-23.865110,-11.352712,-1.586938,0.037110,-0.047852,0.947768
1447,-26.245518,-11.902037,-2.502480,0.018311,-0.053468,1.037369
1448,-25.574121,-10.803388,-2.197299,0.025025,-0.090211,1.011734
1449,-22.705425,-9.338521,-2.380407,0.021118,-0.074220,1.004044
1450,-23.804074,-8.178836,-2.136263,0.030884,-0.080323,1.021988
1451,-22.278172,-6.408789,-1.892119,0.029541,-0.095460,1.019669
1452,-23.193713,-4.333562,-0.915541,0.036866,-0.092897,1.012345
1453,-24.170291,-2.502480,-0.427253,0.045655,-0.128786,1.000137
1454,-22.644388,0.244144,-0.549325,0.018433,-0.092775,0.987442
1455,-23.376822,-0.183108,0.732433,0.010376,-0.081300,0.991348
1456,-28.137636,0.061036,1.220722,0.003906,-0.109499,0.990860
1457,-24.597543,-0.488289,2.014191,0.031739,-0.086549,1.009659
1458,-27.527276,0.427253,2.075227,0.005005,-0.106325,0.995865
1459,-30.029755,0.610361,2.746624,0.028199,-0.121828,0.996597
1460,-28.625925,0.854505,3.906310,0.034546,-0.082399,1.025406
1461,-34.912642,0.427253,4.272526,-0.009155,-0.124147,0.978653
1462,-33.508812,0.000000,4.333562,0.026490,-0.106081,0.997208
1463,-35.950256,-0.793469,4.028382,0.012818,-0.171511,1.060441
1464,-29.175250,-0.427253,3.479057,-0.014160,-0.166384,0.958267
1465,-21.118486,-1.770047,2.075227,0.026368,-0.127932,1.019425
1466,-24.475471,-1.037613,0.427253,0.021851,-0.139773,1.010880
1467,-26.367590,-0.610361,0.427253,0.016968,-0.145754,0.993301
1468,-22.217136,0.488289,-2.258335,-0.006714,-0.168582,1.034562
1469,-19.592584,0.122072,-6.286717,-0.002564,-0.168460,1.032853
1470,-18.310826,1.953155,-8.789197,0.015991,-0.192386,0.965225
1471,-26.062409,3.845274,-17.029068,-0.005982,-0.138186,0.965347
1472,-31.860838,8.422980,-32.837415,0.049561,-0.156374,0.866102
1473,-27.161059,9.460594,-32.288090,0.088014,-0.376837,1.000870
1474,-2.380407,4.150454,-12.634470,0.064332,-0.270634,1.016373
1475,5.676356,0.549325,-5.493248,0.016358,-0.172366,1.056413
1476,-2.441444,1.953155,-6.591897,0.065797,-0.192020,1.073014
1477,3.479057,3.234913,-1.831083,0.034546,-0.191897,1.027115
1478,1.892119,5.371176,-1.770047,0.031006,-0.151492,1.013077
1479,-7.385367,5.737392,-1.525902,-0.017212,-0.026856,0.959243
1480,-31.738766,6.836042,-8.667124,-0.017212,0.045655,0.923720
1481,-57.251850,6.652934,-8.422980,-0.001953,-0.016114,0.887221
1482,-75.684749,1.037613,-6.103609,0.003662,-0.002808,0.844129
1483,-74.708171,-6.408789,-6.164645,-0.025635,0.090455,0.902358
1484,-115.053025,-5.065995,-14.038300,0.032105,0.092287,0.969619
1485,-130.800336,-14.587625,-26.916915,-0.079347,0.371221,1.107439
1486,-282.719158,-6.042573,-24.048219,0.093874,0.502571,1.134295
1487,-404.547189,-14.709697,0.183108,-0.083375,0.016968,1.232074
1488,-457.953765,-33.630884,14.953841,0.024292,-0.155642,1.033463
1489,-486.091402,-53.711757,-2.502480,0.022461,-0.273198,1.148821
1490,-529.427024,-66.346227,9.155413,-0.129885,-0.441901,0.832410
1491,-553.597314,-92.591745,6.042573,-0.120485,-0.506844,0.717784
1492,-563.424125,-118.898299,15.503166,0.043214,-0.713512,0.703014
1493,-624.765393,-125.856413,73.365377,-0.416144,-1.586694,1.999969
1494,-413.519493,-109.803922,67.933165,-0.931289,-0.483650,1.999969
1495,-46.753643,-136.720836,6.836042,-0.397589,-0.203494,1.999969
1496,22.156100,-103.273060,7.263294,-0.212894,0.543099,1.999969
1497,-26.245518,-88.197147,36.743725,-0.257694,0.645640,1.999969
1498,17.029068,-48.584726,28.564889,-0.188113,0.190433,1.999969
1499,145.998322,13.427939,9.155413,-0.229129,0.156008,1.815946
1500,173.281453,37.964446,3.112840,-0.221195,0.073365,1.065324
1501,164.736400,43.762875,6.164645,-0.236820,-0.108766,0.717296
1502,184.084840,42.847333,7.934691,-0.208865,-0.216556,0.486580
1503,195.620661,34.302281,10.254063,-0.182864,-0.228763,0.283574
1504,187.441825,23.071641,13.427939,-0.138430,-0.253544,0.296635
1505,184.451057,20.996414,13.427939,-0.076661,-0.274662,0.500130
1506,188.174258,26.184482,11.047532,-0.023438,-0.291386,0.669322
1507,198.245212,33.997101,6.713970,0.066896,-0.272587,0.916396
1508,213.382162,41.504540,1.586938,0.154421,-0.313237,0.914321
1509,229.556725,47.730220,-6.836042,0.199832,-0.339361,0.976699
1510,242.130159,50.720989,-13.611048,0.227665,-0.373175,0.899184
1511,249.454490,55.115587,-19.409476,0.213626,-0.435554,0.885756
1512,252.933547,56.763561,-24.658579,0.233036,-0.513558,0.799817
1513,256.168460,58.228428,-29.419394,0.213382,-0.570443,0.821912
1514,248.783093,53.650721,-29.541466,0.174929,-0.617929,0.979995
1515,248.477913,45.777066,-27.954528,0.132326,-0.712779,1.136248
1516,258.304723,41.565576,-24.658579,0.039307,-0.823865,1.211078
1517,263.859007,38.513771,-16.418708,-0.079957,-0.898695,1.196063
1518,263.553826,33.264668,-3.784237,-0.156863,-0.948989,1.233661
1519,262.882429,27.771420,10.070954,-0.175662,-0.989273,1.305806
1520,264.164187,25.879301,21.911955,-0.126345,-1.041764,1.297871
1521,263.553826,30.884260,30.212863,-0.025757,-1.062394,1.181537
1522,252.506294,42.908370,35.767147,0.050782,-1.086809,1.075822
1523,232.242313,55.664912,41.626612,0.116579,-1.128435,1.004288
1524,214.908064,60.425727,47.730220,0.144289,-1.152728,1.006607
1525,191.897459,54.139010,56.275273,0.147707,-1.241352,1.012100
1526,181.033036,41.199359,62.378882,0.263676,-1.235615,0.909438
1527,162.844282,31.311513,62.623026,0.402350,-1.146746,0.697276
1528,134.401465,18.860151,57.373922,0.529061,-1.016495,0.565438
1529,105.714504,4.943923,45.593957,0.555062,-0.876112,0.512459
1530,76.478218,-12.390326,31.494621,0.515389,-0.762341,0.635508
1531,54.383154,-25.513085,16.296635,0.431891,-0.707286,0.766735
1532,37.720302,-29.785611,1.647974,0.293462,-1.075456,0.172244
1533,-100.953689,-30.823224,-2.807660,0.517952,-1.158587,0.342657
1534,-184.878309,-37.048905,-6.958114,-0.272709,-2.000031,-1.177264
1535,-443.183032,-170.901045,54.383154,-0.689464,-0.786145,1.999969
1536,-306.034943,-67.872129,7.629511,1.119890,-2.000031,1.999969
1537,437.384604,15.442130,-35.767147,0.568490,-0.200320,1.999969
1538,458.930343,102.906844,-91.920348,0.894057,0.138430,-2.000031
1539,77.821012,47.730220,-50.354772,-0.603037,1.197772,-0.580941
1540,-173.586633,-43.884947,43.457694,-0.325444,0.252079,-0.266850
1541,-287.174792,-80.506600,70.801862,0.277592,-0.072511,1.130999
1542,-154.238193,-22.888533,20.202945,0.210819,-0.621958,1.999969
1543,63.416495,6.897078,-8.789197,-0.160403,0.062867,1.265156
1544,-10.620279,-10.559243,2.075227,-0.045533,0.182620,0.755138
1545,-33.508812,-10.070954,5.554284,0.193973,0.022583,1.094621
1546,-10.070954,1.342794,2.136263,-0.094240,0.148806,0.862074
1547,-42.542153,-9.338521,2.929732,-0.061158,0.029664,0.998550
1548,-29.785611,-9.887846,-0.122072,0.056031,-0.062745,1.134173
1549,-12.268254,-4.394598,-1.037613,0.029297,0.024903,1.050187
1550,-22.217136,-2.929732,0.976577,0.040162,-0.010498,1.037736
1551,-15.014878,0.915541,1.342794,0.014527,-0.016480,1.078019
1552,-8.667124,2.319371,0.854505,-0.012696,0.022339,0.997574
1553,-12.573434,1.098650,0.671397,-0.005615,0.018677,0.980850
1554,-12.329290,-0.183108,0.366217,-0.002808,-0.006592,0.997574
1555,-9.887846,-1.098650,0.122072,-0.002808,-0.007080,0.993790
1556,-10.376135,-1.831083,0.183108,0.010010,-0.012085,1.031144
1557,-6.958114,-1.037613,-0.488289,0.006104,-0.002808,1.013321
1558,-5.859464,-0.427253,-0.366217,0.011353,-0.005005,1.020768
1559,-5.188067,0.610361,-0.244144,0.009400,-0.012329,1.024552
1560,-2.319371,1.647974,-0.244144,0.004761,0.000732,1.003067
1561,-3.051804,1.647974,-0.183108,-0.015015,0.036866,1.020157
1562,-5.188067,0.183108,0.122072,0.020142,-0.002930,0.972427
1563,-8.972305,-0.244144,-0.183108,-0.009277,-0.002930,0.976822
1564,-8.728161,-0.793469,-0.122072,0.000977,-0.002686,1.017838
1565,-6.713970,-0.610361,-0.183108,0.001587,-0.004517,1.009171
1566,-6.775006,-0.488289,0.000000,0.006836,-0.012940,1.012467
1567,-5.554284,-0.183108,-0.122072,0.003418,-0.015259,1.022477
1568,-3.967346,0.244144,-0.183108,0.007935,-0.016724,1.033219
1569,-2.380407,0.854505,0.000000,0.005859,-0.029786,1.042374
1570,1.892119,1.525902,0.061036,-0.002564,-0.000244,0.981704
1571,-0.488289,0.366217,0.244144,-0.011475,0.027955,0.927138
1572,-6.713970,-1.586938,0.305180,-0.015869,0.022950,0.953017
1573,-9.765774,-2.868696,0.183108,-0.017945,0.005493,0.975235
1574,-10.925460,-3.295949,0.244144,0.009644,-0.008057,1.009781
1575,-10.437171,-2.624552,0.000000,0.002319,-0.023194,1.036393
1576,-7.141222,-1.831083,0.000000,0.013062,-0.021973,1.033463
1577,-5.981537,-1.037613,0.122072,0.006592,-0.027100,1.016007
1578,-5.188067,-0.427253,0.244144,0.010010,-0.034546,1.034073
1579,-2.197299,0.488289,0.183108,0.010986,-0.040528,1.038956
1580,0.549325,1.159686,0.061036,0.005249,-0.027222,1.014786
1581,2.441444,1.342794,0.000000,-0.002319,-0.006470,0.980117
1582,0.366217,0.305180,-0.305180,-0.008667,-0.005615,0.984146
1583,-0.854505,-0.183108,-0.366217,0.004395,-0.014527,0.998306
1584,-0.122072,0.122072,-0.244144,0.004273,-0.017823,0.999405
1585,-0.976577,0.305180,0.000000,0.005127,-0.013916,1.005509
1586,-1.037613,0.610361,0.244144,0.003296,-0.019532,1.004288
1587,-0.244144,0.610361,0.244144,0.001343,-0.021729,1.008194
1588,0.061036,0.366217,0.305180,0.006104,-0.017578,1.008072
1589,-0.183108,0.061036,0.183108,-0.000244,-0.018677,1.006363
1590,0.671397,0.183108,0.061036,0.005859,-0.019898,1.005875
1591,1.464866,0.427253,0.000000,-0.002930,-0.012207,1.001724
1592,0.976577,0.122072,0.000000,0.004639,-0.015625,0.999161
1593,1.159686,0.244144,-0.122072,-0.000244,-0.011597,1.005631
1594,0.915541,0.305180,-0.122072,0.005737,-0.011719,0.987930
1595,0.915541,0.183108,0.000000,-0.008789,0.001953,0.977676
1596,-1.831083,-0.671397,0.000000,0.003540,-0.002808,0.984390
1597,-2.624552,-0.366217,0.183108,0.003296,-0.015503,1.000992
1598,-1.525902,0.000000,0.061036,0.000732,-0.015015,1.005875
1599,-1.709010,0.183108,0.183108,-0.000244,-0.017212,1.001602
1600,-0.854505,0.122072,0.061036,-0.004639,-0.018555,0.997940
1601,-0.427253,-0.366217,0.000000,-0.005493,-0.016480,0.995254
1602,-0.366217,-1.159686,-0.366217,-0.004639,-0.017578,0.998062
1603,-0.244144,-1.709010,-0.366217,-0.000488,-0.012207,0.998306
1604,-0.122072,-1.892119,-0.366217,0.008545,-0.012696,1.005875
1605,0.122072,-1.525902,-0.305180,0.010742,-0.011719,0.997696
1606,-0.976577,-1.159686,0.061036,0.006226,-0.016358,1.008682
1607,-0.427253,-0.427253,0.427253,0.004395,-0.006714,0.994644
1608,-1.953155,-0.549325,0.671397,0.003540,-0.008057,0.988907
1609,-2.685588,-0.366217,0.854505,-0.003052,-0.019409,0.992569
1610,-2.807660,-0.305180,1.037613,0.008667,-0.011475,0.997696
1611,-3.112840,-0.549325,0.915541,-0.005005,-0.011231,0.991470
1612,-3.723201,-1.525902,0.488289,-0.008057,-0.011963,0.986709
1613,-4.211490,-2.502480,0.061036,-0.002319,-0.019409,1.003799
1614,-3.540093,-3.295949,-0.671397,0.000366,-0.019287,0.991226
1615,-4.211490,-4.028382,-1.342794,0.003906,-0.028931,1.013443
1616,-1.953155,-3.723201,-1.342794,0.016480,-0.039551,1.031388
1617,0.793469,-2.929732,-1.464866,0.021729,-0.021607,1.010636
1618,0.488289,-2.258335,-1.281758,0.017212,-0.028565,1.006485
1619,1.098650,-1.342794,-1.037613,0.020264,-0.034180,1.019303
1620,2.014191,0.183108,-0.549325,0.022339,-0.029175,1.016251
1621,2.868696,1.403830,-0.183108,0.011231,-0.022339,1.014298
1622,3.234913,2.319371,0.000000,0.014771,-0.018799,1.011856
1623,4.028382,2.868696,-0.244144,0.011353,-0.020386,1.006973
1624,4.333562,3.418021,-0.244144,0.018067,-0.020996,1.021988
1625,5.127031,4.028382,-0.244144,0.012818,-0.023804,1.027115
1626,6.958114,4.699779,-0.244144,0.004150,-0.028687,1.030900
1627,8.606088,5.249104,-0.366217,0.006226,-0.037598,1.031876
1628,11.841001,5.798428,-0.549325,0.007813,-0.025879,1.038712
1629,14.160372,6.103609,-0.671397,-0.004028,-0.014893,1.004410
1630,15.625238,5.554284,-0.915541,-0.019409,0.025269,0.915053
1631,8.850233,2.685588,-1.037613,-0.036011,0.056886,0.875013
1632,-1.220722,-1.037613,-1.098650,-0.023804,0.030030,0.954726
1633,-3.723201,-1.709010,-1.220722,0.018555,-0.011963,1.013443
1634,-1.037613,-0.427253,-1.159686,0.011109,-0.016724,1.015274
1635,-0.549325,0.793469,-0.854505,0.015259,-0.013672,1.020401
1636,0.244144,2.380407,-0.244144,0.008423,-0.027710,1.035294
1637,3.418021,3.479057,-0.122072,-0.002686,-0.015259,1.011734
1638,3.906310,3.479057,0.000000,-0.015137,-0.001831,0.988540
1639,3.784237,2.502480,-0.305180,-0.020264,0.010986,0.974502
1640,2.014191,1.342794,-0.610361,0.000732,0.000610,0.997940
1641,0.976577,1.770047,-0.183108,0.013672,-0.016602,1.022843
1642,3.479057,3.112840,0.061036,0.001343,-0.004761,1.006729
1643,2.807660,3.784237,0.488289,0.007446,-0.015381,1.022232
1644,4.577707,4.272526,0.915541,-0.014405,-0.008301,1.007950
1645,6.103609,3.723201,0.671397,-0.017090,0.010132,0.987442
1646,4.577707,2.380407,0.488289,-0.026978,0.005737,0.982803
1647,4.821851,0.305180,-0.122072,-0.034913,0.019776,0.958633
1648,1.953155,-2.746624,-0.915541,-0.013184,-0.007935,0.987320
1649,4.516670,-3.051804,-1.281758,0.010986,-0.015625,1.051041
1650,7.751583,-1.220722,-1.281758,0.014527,-0.015137,1.039078
1651,9.033341,1.098650,-0.366217,0.018555,-0.022339,1.058244
1652,12.268254,4.333562,1.098650,0.011109,-0.012940,1.039811
1653,15.869383,5.371176,1.586938,-0.024048,0.033082,0.923232
1654,11.841001,2.685588,0.793469,-0.054688,0.133669,0.779797
1655,-8.361944,-2.807660,0.549325,-0.001587,0.099123,0.908339
1656,-15.503166,-4.333562,-0.366217,-0.031861,-0.021607,1.031266
1657,-6.225681,-4.577707,-1.037613,0.010132,-0.004883,1.020890
1658,-8.056764,-3.601129,-0.549325,0.046143,-0.065553,1.114885
1659,3.662165,1.220722,0.488289,0.000244,-0.037598,1.051774
1660,8.728161,2.563516,0.793469,0.005493,0.061646,0.921401
1661,-6.103609,0.610361,2.136263,-0.004150,-0.007691,0.996719
1662,3.112840,1.403830,1.220722,-0.011841,0.001831,0.997452
1663,-0.427253,-0.915541,0.915541,-0.012329,-0.004761,1.019913
1664,4.089418,-1.586938,-0.244144,-0.008911,-0.003296,1.064225
1665,7.446403,-1.647974,-1.281758,-0.020020,0.013672,1.010391
1666,7.446403,-2.197299,-1.953155,-0.030884,0.074586,0.847791
1667,-4.577707,-6.225681,-2.502480,-0.016968,0.098268,0.876722
1668,-17.395285,-8.545052,-2.258335,0.029419,-0.008423,1.037247
1669,-5.920500,-4.882887,-2.685588,0.018067,-0.001099,1.027970
1670,-11.902037,-3.173877,-0.976577,0.061158,-0.056397,1.099382
1671,0.305180,2.136263,0.000000,-0.017823,-0.052247,1.055070
1672,4.211490,1.403830,0.061036,-0.030762,-0.018555,1.016251
1673,6.408789,-0.549325,-0.671397,-0.008911,-0.036255,1.097795
1674,19.470512,0.000000,-1.770047,-0.059693,0.074220,0.834241
1675,1.342794,-3.356985,-0.488289,0.028565,0.117433,0.839979
1676,-12.390326,-1.831083,0.732433,-0.019776,0.076905,0.920912
1677,-20.569162,-4.150454,0.915541,-0.015625,0.002075,1.002945
1678,-16.235599,-3.723201,0.305180,0.038941,-0.034668,1.059831
1679,-9.704738,-2.075227,0.183108,-0.014527,0.000000,0.999527
1680,-11.596857,-5.188067,-0.732433,-0.059083,0.014405,0.948013
1681,-11.963073,-10.498207,-2.807660,-0.004517,-0.018067,1.028702
1682,-8.178836,-10.437171,-4.089418,0.074586,-0.018921,1.122576
1683,-4.699779,-5.127031,-2.868696,0.020142,-0.017700,1.095720
1684,-5.065995,-3.906310,-1.464866,0.025635,-0.083619,1.090959
1685,8.178836,0.366217,-0.610361,0.014527,-0.059083,1.077531
1686,13.183795,1.586938,-0.488289,0.004273,0.018433,0.973648
1687,6.836042,0.488289,-0.305180,-0.003296,0.013306,0.979263
1688,8.422980,-0.488289,-0.671397,-0.011963,0.026123,0.936904
1689,3.173877,-2.868696,-1.098650,-0.009888,0.025025,0.960098
1690,1.953155,-4.699779,-1.709010,-0.001343,0.007324,0.974868
1691,2.319371,-5.798428,-2.624552,0.011963,-0.010010,1.005509
1692,3.295949,-5.493248,-2.807660,0.020874,-0.024414,1.051652
1693,9.094377,-4.394598,-2.624552,0.003540,-0.002686,1.026993
1694,-95.887694,27.283131,-98.268101,0.507576,-0.410040,0.845594
1695,-2.075227,14.343481,-4.821851,-0.218387,-0.001709,1.100847
1696,29.724575,-20.386053,23.498894,0.034302,0.036500,0.898329
1697,-7.202258,-1.281758,7.690547,0.052613,0.067018,1.049699
1698,12.390326,1.464866,-1.586938,-0.071534,-0.041138,1.033951
1699,11.108568,-4.394598,0.183108,-0.060548,-0.107301,1.077043
1700,10.803388,-6.347753,3.601129,-0.030762,-0.164065,1.263081
1701,26.306554,-3.723201,6.591897,-0.017090,0.066407,0.982071
1702,-14.282444,-4.699779,1.342794,-0.030396,0.051514,1.025528
1703,2.868696,-2.075227,-0.732433,-0.006104,-0.020508,0.990372
1704,-3.356985,-3.784237,2.380407,0.035767,0.048463,0.903456
1705,-2.990768,-1.831083,-0.366217,0.024659,0.000855,0.974990
1706,-7.080186,-2.075227,2.014191,0.012207,0.030518,0.961685
1707,-20.263981,-2.929732,1.709010,0.021851,-0.067384,1.067887
1708,-4.760815,-0.915541,1.770047,0.024414,-0.023560,1.039689
1709,0.122072,-0.183108,0.671397,0.005615,0.027466,0.955215
1710,-7.690547,-1.342794,0.488289,0.005615,0.004273,0.979385
1711,-5.859464,-2.441444,0.000000,-0.003540,-0.012818,1.006729
1712,-2.563516,-3.479057,-0.610361,0.014893,-0.010742,1.002335
1713,-0.732433,-3.601129,-0.732433,0.017334,-0.009033,1.001968
1714,0.366217,-3.418021,-0.793469,0.024659,-0.023072,1.031266
1715,2.990768,-2.563516,-0.610361,0.033448,-0.014282,1.027115
1716,4.089418,-1.220722,-0.427253,0.030396,0.002197,1.007584
1717,0.244144,-0.305180,0.000000,0.028931,0.002564,0.997696
1718,-1.709010,0.305180,0.061036,0.024537,-0.004273,0.991958
1719,-0.488289,0.183108,-0.305180,0.004395,0.013672,0.970352
1720,-5.493248,-1.159686,-0.488289,0.014771,-0.010254,0.990616
1721,-0.976577,-2.075227,-0.671397,-0.000977,-0.055299,1.042374
1722,2.807660,-0.671397,-1.342794,0.020264,0.031250,0.988785
1723,0.915541,-0.427253,-1.281758,0.021607,0.006714,0.951553
1724,-4.455634,-1.220722,0.549325,0.026856,0.027955,0.954726
1725,-5.981537,-1.647974,0.305180,-0.001953,0.015259,0.980850
1726,-8.422980,-2.746624,0.122072,0.029053,-0.026368,1.002823
1727,-6.897078,-2.319371,-0.122072,0.023072,-0.027710,1.021866
1728,-4.516670,-1.159686,-0.244144,0.024903,-0.013306,1.009415
1729,-4.882887,-0.793469,0.183108,0.020752,-0.025757,1.013199
1730,-1.281758,-0.549325,0.000000,0.021607,-0.003662,0.989273
1731,-2.624552,-1.464866,-0.427253,0.015991,-0.010132,1.001602
1732,-2.319371,-1.892119,-0.549325,0.022583,-0.020020,1.010391
1733,-1.342794,-2.075227,-0.244144,0.019776,-0.016358,1.009171
1734,-2.014191,-2.319371,0.366217,0.018677,-0.022095,1.004288
1735,-0.610361,-2.014191,0.793469,0.020142,-0.015381,0.989639
1736,1.953155,-1.281758,0.183108,0.027710,-0.002808,0.989395
1737,1.831083,-0.244144,-0.488289,0.035035,-0.005005,0.993790
1738,0.305180,0.427253,-0.915541,0.015625,-0.029419,0.985367
1739,-0.610361,0.610361,-1.647974,0.015503,-0.052979,0.974502
1740,0.671397,0.366217,0.000000,0.030152,-0.027344,0.980117
1741,6.469825,0.976577,0.000000,0.001099,-0.007568,1.015152
1742,8.422980,-1.098650,0.549325,0.010010,-0.003906,1.006119
1743,5.615320,-2.197299,1.525902,0.026856,-0.006714,0.998672
1744,3.967346,-1.525902,1.342794,0.032105,0.006714,0.988663
1745,0.366217,-1.159686,0.854505,0.028931,0.004395,0.976211
1746,-4.577707,-0.488289,0.000000,0.032227,0.008423,0.987198
1747,-6.530861,0.610361,-0.610361,0.035035,0.002808,0.987198
1748,-10.070954,1.403830,-1.831083,0.034424,-0.015991,1.001358
1749,-6.897078,2.136263,-4.089418,0.024903,-0.015625,1.015030
