Packet number,Gyroscope X (deg/s),Gyroscope Y (deg/s),Gyroscope Z (deg/s),Accelerometer X (g),Accelerometer Y (g),Accelerometer Z (g)
0,-0.732433,-0.549325,-0.122072,0.003662,0.002075,1.007950
1,-0.915541,-0.305180,-0.122072,0.001465,-0.003662,1.009171
2,-0.183108,-0.244144,-0.122072,-0.005737,-0.008301,1.002335
3,0.122072,-0.183108,-0.183108,-0.003174,-0.000244,0.994034
4,-0.244144,-0.427253,-0.122072,-0.005982,-0.001587,0.998795
5,0.061036,-0.366217,-0.183108,-0.001099,-0.000855,1.000870
6,-0.183108,-0.488289,-0.122072,-0.001953,-0.006104,1.000381
7,0.183108,-0.427253,-0.183108,0.007568,0.000488,1.000870
8,-0.122072,-0.549325,-0.122072,0.002930,0.006348,0.990860
9,-0.183108,-0.549325,0.061036,0.004761,-0.000488,0.992691
10,-0.305180,-0.366217,0.000000,0.002564,0.007446,0.990738
11,-0.793469,-0.305180,0.000000,0.002564,0.000366,1.001114
12,0.000000,0.000000,0.000000,0.002319,0.001709,0.999039
13,-0.976577,-0.305180,0.000000,0.003418,0.003662,0.999161
14,-0.061036,-0.244144,-0.183108,-0.000366,-0.004639,0.997208
15,-0.732433,-0.305180,-0.183108,-0.001953,-0.004150,0.992203
16,-0.061036,-0.244144,-0.244144,0.004395,0.001587,1.000381
17,-0.427253,-0.427253,-0.183108,0.000000,-0.003784,0.995987
18,-0.427253,-0.488289,-0.183108,0.000488,-0.002930,0.998306
19,-0.305180,-0.488289,-0.183108,0.005127,-0.000732,1.000748
20,-0.366217,-0.366217,-0.122072,-0.007202,0.000122,0.999161
21,-0.305180,-0.610361,0.000000,0.010620,0.005615,1.005631
22,-0.671397,-0.610361,-0.122072,-0.002319,0.000610,0.995132
23,-0.366217,-0.671397,-0.122072,0.003540,0.006348,0.994644
24,-1.525902,-0.732433,0.000000,-0.000855,-0.002319,1.008682
25,-0.854505,-0.732433,-0.244144,0.007813,-0.004150,1.000870
26,-1.159686,-0.488289,-0.122072,0.005615,-0.000977,1.006485
27,-0.976577,-0.427253,0.000000,0.004883,-0.000977,1.002579
28,-0.732433,-0.244144,-0.122072,0.003906,-0.007813,1.003311
29,-0.488289,-0.061036,0.000000,0.005005,-0.000610,1.005631
30,-0.549325,-0.183108,0.000000,0.003174,-0.004273,1.000748
31,-0.061036,0.000000,-0.122072,0.005982,-0.000488,0.997086
32,-0.366217,-0.061036,-0.244144,-0.000610,0.000488,0.995377
33,-0.732433,-0.366217,-0.122072,-0.001831,0.002197,1.000748
34,-0.183108,-0.488289,0.000000,0.002564,-0.004028,1.000626
35,-0.366217,-0.366217,0.000000,-0.001465,0.003052,0.992203
36,-0.671397,-0.427253,0.000000,0.006470,-0.005127,1.010513
37,-0.061036,-0.183108,-0.122072,-0.000244,-0.001587,1.004288
38,-0.793469,-0.305180,0.000000,-0.007202,-0.003662,1.000992
39,-0.122072,-0.427253,-0.183108,0.010498,0.002075,0.988540
40,-1.709010,-0.427253,-0.122072,0.000488,-0.006348,1.004166
41,-0.061036,-0.183108,-0.122072,0.001221,0.000855,1.001114
42,-0.610361,-0.244144,0.000000,-0.004028,0.000000,0.995377
43,-0.671397,-0.305180,0.000000,-0.000122,-0.000977,1.002090
44,-0.061036,-0.122072,-0.183108,0.003052,-0.001343,1.005020
45,-0.183108,-0.061036,0.000000,-0.000610,-0.000366,0.992813
46,0.305180,0.244144,-0.122072,-0.005005,-0.002441,0.992935
47,-0.610361,-0.183108,0.000000,-0.003906,-0.003906,0.996841
48,0.854505,0.122072,0.000000,0.003174,-0.002564,1.001236
49,-0.183108,0.000000,0.061036,0.001587,0.000366,1.001114
50,0.854505,0.183108,0.000000,-0.002808,0.002808,0.992447
51,-0.488289,-0.061036,0.000000,0.003052,0.001221,0.993790
52,0.183108,0.000000,0.000000,-0.000732,-0.005249,0.999771
53,0.244144,0.000000,0.061036,0.004150,0.002319,0.995377
54,0.183108,0.244144,0.061036,0.005615,0.000122,1.011612
55,0.244144,0.183108,0.122072,0.002564,-0.005127,1.002579
56,0.976577,0.488289,0.061036,0.002808,-0.003174,1.006119
57,1.159686,0.427253,0.122072,0.005737,-0.002686,0.999039
58,1.464866,0.488289,0.061036,-0.001465,0.000244,1.008438
59,2.014191,0.366217,0.122072,-0.003296,-0.002808,1.006485
60,2.075227,0.305180,0.183108,-0.014771,-0.001953,0.992325
61,3.356985,0.793469,0.000000,-0.003784,0.001465,0.992935
62,2.136263,0.061036,0.305180,-0.004395,0.001831,1.019425
63,4.211490,-0.244144,0.122072,0.014893,0.013184,0.994522
64,2.136263,0.061036,0.000000,-0.012573,0.002441,0.987808
65,1.464866,-0.610361,0.122072,0.006714,-0.003052,0.992325
66,2.990768,0.122072,-0.244144,-0.009766,0.003174,0.974868
67,0.305180,-1.281758,0.244144,0.013794,0.006836,1.010513
68,2.075227,-0.732433,-0.122072,0.000244,0.006104,1.005142
69,1.586938,-0.915541,0.122072,0.000122,0.000732,0.998672
70,2.136263,-1.037613,0.000000,0.003174,0.000244,1.003067
71,2.136263,-0.854505,-0.427253,-0.002930,0.002930,1.007340
72,3.540093,-1.281758,-0.366217,0.003784,0.012940,0.990860
73,1.403830,-2.014191,-0.122072,0.009644,0.010864,0.981338
74,1.770047,-1.709010,-0.244144,0.000610,0.005737,1.011856
75,2.197299,-1.525902,0.000000,0.013916,0.003662,1.007950
76,3.173877,-0.671397,-0.122072,0.009888,0.017945,1.002457
77,1.953155,-0.732433,0.122072,0.001709,0.005982,0.994522
78,2.624552,-0.732433,0.183108,0.008057,0.010864,1.001846
79,1.831083,-0.671397,0.122072,0.009888,0.012573,1.009049
80,2.380407,0.122072,-0.244144,0.011353,-0.003052,1.031876
81,4.882887,0.671397,-0.366217,-0.005737,0.017090,1.006119
82,3.173877,-0.488289,-0.549325,0.003784,0.001099,0.993423
83,3.967346,-0.244144,-0.122072,0.014038,0.004517,1.000748
84,5.859464,-0.183108,-0.549325,-0.011597,0.023072,0.965591
85,2.319371,-1.525902,0.000000,0.017823,0.018677,1.001480
86,3.479057,-0.854505,-0.122072,0.018921,0.016480,0.993179
87,2.136263,-0.366217,0.000000,-0.008179,0.021118,0.978042
88,1.831083,-0.976577,0.061036,0.009277,0.016480,0.993423
89,1.525902,-0.793469,0.061036,0.011231,0.018189,1.011002
90,2.197299,-0.244144,0.000000,-0.008789,0.023072,0.984146
91,1.342794,-0.671397,0.183108,0.017090,0.018189,0.990982
92,1.159686,-0.549325,0.244144,-0.003296,0.012207,1.001358
93,1.831083,-0.732433,0.305180,0.007324,0.016968,0.990249
94,1.281758,-1.159686,0.366217,0.003662,0.026368,0.991958
95,0.793469,-1.464866,0.488289,0.008667,0.017334,0.990860
96,0.976577,-1.525902,0.549325,0.002197,0.013794,0.985122
97,0.427253,-1.586938,0.427253,0.002319,0.021485,0.998062
98,1.464866,-1.525902,0.305180,0.006714,0.010498,1.006485
99,-0.061036,-1.586938,0.488289,0.021363,0.014160,1.014542
100,1.953155,-0.732433,0.122072,0.003784,0.025879,1.021012
101,1.525902,-0.976577,0.427253,0.010742,0.009644,0.996475
102,2.502480,-0.732433,0.305180,0.003540,0.015015,0.986709
103,0.793469,-1.037613,0.915541,-0.003662,0.020264,0.999161
104,3.051804,-1.403830,1.037613,0.009766,0.018311,0.991958
105,2.990768,-2.014191,0.976577,0.007568,0.019409,0.979629
106,2.624552,-2.258335,0.671397,0.009033,0.025025,0.997574
107,1.342794,-2.014191,0.732433,0.030152,0.024781,1.002823
108,1.647974,-1.220722,0.854505,0.007935,0.008301,1.021744
109,4.943923,-0.671397,0.793469,0.015137,0.015381,1.020645
110,4.516670,-0.427253,0.732433,0.018799,0.026978,0.996109
111,5.310140,-0.305180,0.427253,0.015137,0.017212,1.013443
112,6.225681,-0.366217,0.366217,0.016846,0.032471,1.001968
113,6.591897,0.244144,0.000000,0.010132,0.029908,0.991226
114,4.699779,-0.183108,0.000000,-0.004273,0.039063,0.959976
115,3.723201,-0.854505,-0.427253,0.014282,0.051392,0.962051
116,-0.915541,-1.220722,-0.183108,0.008179,0.024292,1.007584
117,2.624552,-0.427253,-0.244144,0.008057,0.032715,1.005142
118,0.671397,-0.366217,0.061036,0.011719,0.036255,0.993179
119,0.366217,-0.610361,0.122072,-0.020264,0.033082,0.981094
120,0.427253,-2.258335,-0.183108,-0.000977,0.039551,0.977676
121,-0.915541,-3.295949,-0.488289,-0.000488,0.024537,0.998795
122,0.366217,-4.150454,-0.732433,0.007568,0.027466,1.000626
123,0.305180,-4.028382,-0.854505,0.021729,0.028321,0.991348
124,-0.061036,-3.906310,-0.732433,0.022339,0.032837,0.993790
125,-0.305180,-3.051804,-0.488289,0.027100,0.029786,1.026139
126,0.976577,-1.586938,-0.427253,0.033326,0.024292,1.004166
127,1.098650,0.000000,-0.244144,0.036500,0.038697,1.001968
128,0.122072,1.220722,0.000000,0.029786,0.041749,0.991958
129,-0.915541,2.258335,0.000000,0.014771,0.034058,0.984878
130,-1.770047,2.075227,0.000000,0.002441,0.031495,0.991592
131,-1.525902,1.525902,-0.183108,0.002075,0.031128,0.991836
132,-2.014191,0.610361,-0.183108,0.004639,0.016846,0.997330
133,-0.366217,0.061036,-0.366217,0.005005,0.022950,1.001602
134,-0.061036,-0.183108,-0.305180,0.011597,0.024659,1.006729
135,1.037613,-0.244144,-0.305180,0.000122,0.031983,0.986831
136,0.793469,-0.549325,-0.366217,-0.001953,0.058595,0.958511
137,-3.356985,-1.220722,-0.427253,0.002441,0.047974,0.958999
138,-4.821851,-1.770047,-0.366217,0.012696,0.029786,0.996475
139,-4.333562,-0.976577,-0.305180,0.025147,0.027466,1.003922
140,-4.272526,-0.061036,0.061036,0.008667,0.019776,1.010025
141,-2.624552,0.305180,0.122072,0.018677,0.019532,1.000748
142,-2.929732,0.488289,0.427253,0.010986,0.019654,1.000015
143,-1.709010,0.610361,0.488289,0.002075,0.023926,0.990982
144,-1.464866,-0.061036,0.427253,-0.007080,0.033936,0.979507
145,-3.662165,-1.525902,0.305180,-0.004761,0.043824,0.952285
146,-5.737392,-3.051804,0.183108,0.012085,0.041382,0.959854
147,-8.056764,-3.601129,0.000000,0.000732,0.032837,0.963149
148,-8.911269,-4.211490,0.183108,0.017334,0.022827,0.979019
149,-9.399557,-3.906310,0.305180,0.013306,0.027100,0.989395
150,-10.620279,-4.089418,0.549325,0.015015,-0.006958,1.017716
151,-10.254063,-3.479057,1.037613,0.026734,0.000366,1.005875
152,-8.850233,-2.685588,1.342794,0.027832,0.057740,1.025406
153,-10.070954,-3.051804,2.075227,0.013062,0.010498,0.942031
154,-13.733120,-3.234913,2.258335,0.003906,0.051148,0.925429
155,-22.461280,-5.371176,3.051804,0.016968,0.041749,0.925185
156,-26.428626,-6.897078,3.418021,0.007813,0.028809,0.926528
157,-28.015564,-8.422980,3.356985,0.024170,0.030030,0.967788
158,-33.997101,-9.399557,3.479057,0.006592,-0.008301,1.005142
159,-29.175250,-9.277485,2.990768,0.035401,-0.035767,1.032853
160,-25.696193,-7.385367,2.685588,0.052125,-0.024292,1.039322
161,-25.696193,-6.103609,3.234913,0.046021,-0.043214,1.046159
162,-20.752270,-4.211490,2.990768,0.050782,-0.032227,1.041398
163,-19.409476,-3.601129,2.990768,0.012940,-0.017212,0.956802
164,-21.911955,-5.188067,2.929732,0.009155,-0.001587,0.953262
165,-27.588312,-8.117800,2.441444,0.004639,0.006226,0.944472
166,-32.227054,-8.789197,1.525902,0.010376,-0.032105,1.002335
167,-34.058137,-8.117800,1.525902,0.045045,-0.023316,0.979263
168,-35.095750,-6.713970,1.647974,0.073854,-0.041505,1.017716
169,-35.828183,-4.638743,2.075227,0.051881,-0.080323,1.032120
170,-32.227054,-3.234913,2.929732,0.050538,-0.081788,1.051041
171,-28.625925,-2.319371,3.051804,0.038575,-0.088502,1.045426
172,-23.376822,-1.953155,4.821851,0.046998,-0.090578,1.018936
173,-17.395285,0.000000,6.469825,0.093629,-0.000977,0.975845
174,-23.804074,3.356985,5.249104,-0.022217,0.000366,1.026261
175,-33.447776,0.305180,4.699779,0.044068,-0.050782,0.997940
176,-31.311513,1.770047,2.929732,0.019287,-0.051148,0.991958
177,-33.936065,1.281758,1.098650,0.027710,-0.031495,1.035782
178,-40.588998,1.647974,-1.281758,0.009522,-0.035157,1.006973
179,-41.199359,1.831083,-3.967346,0.002808,-0.075929,0.982925
180,-37.598230,1.098650,-5.798428,-0.002319,-0.068605,0.988663
181,-35.950256,2.197299,-8.239872,-0.000977,-0.126223,0.956435
182,-46.509499,1.037613,-17.334249,-0.044068,-0.061891,1.099138
183,-61.280232,8.667124,-31.067369,0.009277,0.000855,0.904677
184,-72.144656,13.366903,-42.114900,0.119875,-0.299931,1.011490
185,-47.974365,8.117800,-17.639429,0.149783,-0.262211,1.068986
186,-42.236973,3.845274,-8.056764,0.038941,-0.027710,1.005142
187,-70.008392,8.422980,-8.484016,0.065797,-0.000732,1.009537
188,-97.413596,12.695506,1.098650,0.056031,0.057618,0.865858
189,-115.846494,11.902037,9.399557,0.036255,-0.102174,0.861219
190,-139.345388,4.272526,19.226368,-0.046021,-0.058595,0.959609
191,-132.204166,-2.319371,23.865110,0.087770,0.410407,1.122942
192,-200.198367,-3.234913,2.746624,-0.173953,0.206302,1.169574
193,-359.624628,1.342794,26.245518,-0.024659,-0.136110,1.182879
194,-398.382544,-4.272526,41.016251,0.105226,0.250614,1.925322
195,-467.109178,8.239872,20.386053,0.074220,0.059693,1.053117
196,-565.499352,9.765774,37.903410,0.204227,-0.234012,1.420188
197,-590.157931,38.635843,58.594644,0.353277,-0.532601,1.711574
198,-628.854810,58.777752,124.269474,-1.120989,-0.761486,1.999969
199,-374.151217,45.288777,10.376135,-0.637339,-0.743664,1.999969
200,117.677577,72.510872,-26.916915,-0.391852,0.477668,1.999969
201,114.381628,70.374609,-60.914015,-0.184817,0.663828,1.296040
202,-41.382467,23.682002,16.235599,-0.293095,0.719982,0.893446
203,-65.064469,-25.513085,32.166018,0.141482,0.126711,0.786877
204,63.599603,-25.024796,0.854505,0.243778,0.393439,0.696056
205,40.955215,-30.762188,-9.460594,0.408820,0.566659,0.595468
206,6.286717,-18.066682,-20.325017,0.336797,0.367315,0.897963
207,56.763561,3.234913,-41.382467,0.213993,0.374273,0.897719
208,63.965820,5.249104,-48.889906,0.042359,0.400397,0.833143
209,66.956588,-8.239872,-45.716030,-0.120485,0.271611,1.021866
210,101.197833,-21.423667,-40.527962,-0.221317,0.267460,1.127459
211,118.104829,-32.166018,-31.433585,-0.259648,0.276860,1.260517
212,137.331197,-31.494621,-23.682002,-0.256840,0.221805,1.394430
213,164.248112,-19.592584,-18.860151,-0.250004,0.169192,1.348775
214,181.826505,-5.188067,-14.038300,-0.260014,0.108766,1.230976
215,194.033722,4.699779,-8.300908,-0.246464,0.020020,1.115496
216,204.776074,10.376135,-2.014191,-0.212161,-0.013794,1.010391
217,208.194095,11.047532,4.394598,-0.151736,-0.027466,1.010147
218,211.184863,10.254063,8.728161,-0.078370,-0.023804,1.115129
219,217.105364,9.948882,9.399557,0.012696,0.000244,1.322896
220,225.589380,10.193027,7.690547,0.085206,0.008789,1.488792
221,238.834211,7.568475,2.685588,0.149660,-0.021973,1.543114
222,251.712825,5.127031,-4.760815,0.222660,-0.078370,1.444236
223,257.022965,5.004959,-16.174563,0.293095,-0.170779,1.190204
224,249.088273,11.169604,-29.968719,0.331426,-0.238285,0.973892
225,230.106050,19.592584,-43.823911,0.272221,-0.263554,1.014054
226,209.658961,28.870069,-55.115587,0.171267,-0.288212,1.201190
227,196.475166,37.293050,-61.829557,0.099245,-0.227787,1.540551
228,190.066377,43.396658,-66.773480,0.037232,-0.252323,1.920073
229,196.658274,46.448463,-68.787671,-0.010742,-0.311284,1.999969
230,218.936446,49.256123,-69.825284,-0.045045,-0.424323,1.999969
231,235.111009,54.383154,-70.557717,-0.072877,-0.528450,1.821073
232,228.824292,58.289464,-68.055238,-0.150027,-0.580331,1.806546
233,221.560998,57.923247,-61.524376,-0.217777,-0.652354,1.999969
234,232.120241,57.251850,-54.566262,-0.175540,-0.711315,1.999969
235,244.571603,61.097124,-48.035401,-0.045167,-0.754772,1.933745
236,244.693675,68.421454,-42.053864,0.023438,-0.803845,1.605737
237,235.416190,69.031815,-35.828183,0.063600,-0.845838,1.397726
238,222.598611,67.811093,-30.701152,0.076905,-0.893080,1.289326
239,206.424048,67.139696,-25.391012,0.028077,-0.948989,1.269795
240,189.333944,60.791943,-17.456321,-0.045289,-1.032242,1.365743
241,183.901732,47.364004,-8.850233,0.012696,-1.137713,1.363790
242,179.568170,31.799802,-7.751583,0.210575,-1.282734,1.243549
243,169.069963,23.804074,-16.296635,0.489143,-1.468772,0.896742
244,146.852827,29.785611,-37.476158,0.612558,-1.719631,0.510018
245,113.344015,44.373236,-59.876402,0.534066,-1.937285,0.111696
246,72.999161,48.035401,-65.186542,0.232670,-1.989166,-0.182376
247,30.579080,28.564889,-50.782025,-0.094484,-1.855131,-0.207279
248,-7.629511,-6.836042,-24.353399,-0.307134,-1.588037,0.056153
249,-37.354086,-36.133364,5.127031,-0.418708,-1.299825,0.531258
250,-53.589685,-46.631571,30.579080,-0.592905,-1.436179,-0.884901
251,-143.923095,-114.869917,65.735866,-0.235355,-1.026505,-0.674449
252,-216.189822,-135.866331,72.938125,0.149660,-1.016129,0.725109
253,-135.805295,-48.645762,57.679103,-0.128176,0.236942,1.570092
254,-143.495842,-52.674144,57.373922,-0.176028,0.609873,1.615625
255,-199.160754,-94.056611,81.666285,0.536263,0.421149,1.067033
256,-223.453117,-87.281605,68.055238,0.918105,-0.054200,0.658579
257,-220.645457,-74.525063,50.293736,0.933120,-0.078126,1.395407
258,-226.077668,-61.585412,36.011292,1.080827,0.013550,1.999969
259,-177.553979,-43.884947,10.193027,0.644419,-0.078004,1.999969
260,-116.029603,-25.696193,-7.690547,-0.175662,-0.165530,1.999969
261,-91.859312,-20.996414,-2.990768,-0.668589,-0.196780,1.416037
262,-96.681163,-32.410163,26.367590,-0.926406,-0.039063,1.364889
263,-105.348287,-93.385214,50.598917,0.079713,-0.009888,1.666407
264,-72.205692,-79.713130,23.315785,1.470970,0.177127,1.999969
265,-42.786297,-10.193027,-0.488289,0.500862,0.076905,1.062516
266,-84.290837,1.098650,-3.967346,-0.701793,0.011963,1.195941
267,-90.882734,-37.842374,16.906996,-0.142336,-0.161013,1.117693
268,-35.095750,-25.818265,-3.295949,0.479988,-0.076173,1.487327
269,-35.950256,-11.413748,0.183108,-0.032227,-0.008911,1.065934
270,-38.391699,-17.761501,1.586938,-0.023438,-0.073243,1.104631
271,-14.160372,-15.564202,0.000000,0.133913,0.016358,1.120500
272,-18.616007,-10.620279,0.061036,0.027588,0.011475,1.008194
273,-22.644388,-9.216449,0.915541,0.043702,-0.003906,1.016007
274,-13.488975,-7.873655,1.098650,0.051881,-0.022461,1.033341
275,-13.366903,-6.042573,1.403830,0.049683,0.015991,1.054337
276,-13.427939,-4.882887,2.136263,0.052857,-0.035523,1.002335
277,-13.550011,-3.540093,2.136263,0.062501,-0.058839,1.026627
278,-11.841001,-2.014191,2.197299,0.054322,-0.067872,1.024918
279,-7.080186,-1.403830,2.319371,0.041016,-0.029053,1.002090
280,-7.629511,-1.281758,2.380407,0.034791,-0.010986,1.029801
281,-6.652934,-1.098650,2.685588,0.023926,0.024659,1.036637
282,-2.929732,-0.793469,2.746624,0.032837,-0.041016,0.951919
283,-8.117800,-1.037613,2.380407,0.032471,-0.010620,0.972549
284,-10.437171,-0.427253,2.868696,0.028077,0.011231,0.993545
285,-11.047532,0.610361,2.441444,0.047974,0.007080,0.985000
286,-14.221408,2.197299,2.807660,0.037354,-0.008179,0.999161
287,-14.099336,3.540093,2.807660,0.031128,-0.005615,0.999283
288,-16.845960,3.479057,2.685588,0.021118,-0.032227,1.010147
289,-15.381094,2.807660,2.380407,0.023316,-0.049805,1.020035
290,-12.085145,2.624552,2.075227,0.028077,-0.047486,1.031998
291,-9.948882,2.197299,2.014191,0.013062,-0.041505,0.998062
292,-8.911269,1.525902,1.403830,0.014282,-0.028809,0.989883
293,-10.315099,0.793469,0.854505,0.026001,-0.035157,0.982437
294,-12.939651,0.915541,0.854505,0.031617,-0.011719,1.016739
295,-12.573434,1.281758,1.098650,0.014038,-0.024414,0.970474
296,-14.526589,0.610361,1.098650,0.036011,-0.041260,0.993423
297,-15.136950,0.244144,1.342794,0.012207,-0.045655,1.003189
298,-13.366903,-1.037613,1.098650,0.018555,-0.040040,0.997818
299,-14.770733,-1.953155,1.037613,0.020264,-0.056397,1.016861
300,-12.268254,-1.892119,0.854505,0.032715,-0.048951,1.025040
301,-10.742351,-2.075227,0.732433,0.027222,-0.052247,1.000626
302,-11.902037,-1.892119,0.671397,0.039307,-0.050050,0.985855
303,-13.061723,-1.770047,0.732433,0.018799,-0.047730,0.978286
304,-13.977264,-1.831083,1.403830,0.046021,-0.035767,0.970230
305,-20.752270,-1.709010,2.197299,0.016968,-0.048951,0.975479
306,-21.179522,-2.380407,2.685588,0.035523,-0.063478,1.004166
307,-20.691234,-2.136263,2.990768,0.037720,-0.072389,1.003311
308,-20.752270,-2.685588,3.540093,0.039063,-0.062745,1.004776
309,-20.569162,-2.197299,4.028382,0.030152,-0.074098,0.985367
310,-21.118486,-3.356985,5.249104,0.036622,-0.043214,1.006973
311,-23.743038,-2.990768,3.723201,0.015381,-0.060670,1.012222
312,-24.231327,-4.272526,2.685588,0.004273,-0.068116,0.982681
313,-22.705425,-4.455634,2.380407,0.025513,-0.058350,0.973159
314,-32.227054,-3.845274,2.685588,0.076173,-0.000977,0.855238
315,-33.203632,-6.347753,1.342794,0.058717,-0.050416,1.049577
316,-30.395972,-5.004959,1.770047,0.046387,-0.064088,0.978775
317,-38.391699,-3.234913,3.356985,0.065431,-0.084840,1.018448
318,-41.321431,-1.281758,5.127031,0.043946,-0.136721,1.006729
319,-38.879988,1.037613,6.347753,0.043580,-0.151980,1.023209
320,-39.490349,0.427253,5.249104,0.026123,-0.124880,0.999161
321,-36.804761,-0.427253,2.563516,0.022217,-0.133547,1.028946
322,-25.329976,-0.793469,-2.868696,-0.041138,-0.117678,1.007340
323,-24.902724,-4.211490,-10.376135,-0.063966,-0.100954,1.024186
324,-34.790570,-1.281758,-19.531548,-0.021729,-0.077516,0.958267
325,-45.227741,-1.464866,-31.799802,-0.047242,-0.136965,1.091447
326,-44.312200,-3.051804,-33.325704,0.090333,-0.297856,0.986954
327,-25.757229,-3.845274,-20.508125,0.136110,-0.268681,1.102190
328,-13.183795,0.976577,-10.803388,0.153933,-0.156374,1.102800
329,-24.658579,5.554284,-2.746624,0.100099,0.016480,0.992691
330,-52.857252,10.315099,-3.051804,0.027344,0.110964,0.955337
331,-107.606622,18.371862,-14.282444,0.099001,0.097292,0.984024
332,-136.842908,23.559930,-10.498207,0.033936,0.031128,0.966445
333,-157.595178,20.935378,-22.522316,0.036378,0.304692,0.187259
334,-146.242466,-15.625238,1.892119,0.047120,0.716808,1.164446
335,-324.711986,-9.704738,-27.100023,0.424323,1.260883,0.983536
336,-538.460365,-11.291676,-22.705425,-0.326299,0.034913,1.268208
337,-629.526207,-68.665599,28.747997,-0.338872,-0.042969,1.176287
338,-732.799268,-130.312047,53.528649,-0.050660,-0.084352,1.195087
339,-803.479057,-157.289998,68.055238,0.173220,-0.214115,1.037613
340,-1054.032197,-189.272908,169.130999,0.233524,-1.151751,1.999969
341,-500.312810,-94.972152,138.185702,-0.858656,-0.246464,1.999969
342,238.712139,-26.306554,-74.891279,0.121950,0.832410,1.999969
343,356.633860,22.766461,-69.642176,-0.212161,1.425559,1.999969
344,142.153048,35.400931,-88.502327,-0.321416,0.775158,1.194965
345,-0.793469,-8.117800,-8.300908,-0.404913,0.442390,0.079957
346,-17.822538,-16.662852,1.892119,-0.161990,0.054810,0.306279
347,98.084993,0.854505,-18.432898,-0.248295,0.133059,0.450690
348,109.559777,-4.577707,-17.456321,-0.164553,0.374762,0.403449
349,66.468299,-15.503166,-7.690547,-0.151492,0.315801,0.760266
350,99.366751,-11.291676,-10.681315,-0.080323,0.324590,0.994400
351,136.659800,-1.892119,-17.090105,-0.072633,0.437629,1.002457
352,138.368811,2.075227,-18.799115,-0.116213,0.395880,1.175921
353,163.698787,7.263294,-20.752270,-0.182498,0.301518,1.377951
354,198.916609,12.634470,-21.240558,-0.210452,0.257328,1.405661
355,221.622034,18.066682,-19.653620,-0.221439,0.177737,1.425071
356,242.740520,28.564889,-17.883574,-0.223880,0.075319,1.579004
357,268.009461,41.931792,-14.343481,-0.228763,-0.068605,1.607324
358,295.597772,51.392386,-8.239872,-0.215335,-0.144656,1.422141
359,311.406119,51.514458,-2.380407,-0.146365,-0.277104,1.099626
360,316.899367,44.068055,1.709010,-0.030640,-0.272831,0.896742
361,311.772335,37.293050,1.403830,0.135866,-0.273564,0.795056
362,296.330205,42.175937,-5.615320,0.297612,-0.384649,0.572641
363,269.230182,61.097124,-19.775692,0.443488,-0.505013,0.335576
364,234.805829,89.967193,-34.424353,0.433600,-0.473274,0.452277
365,192.202640,90.821698,-41.809720,0.356817,-0.307988,0.931655
366,171.938659,72.083619,-46.143282,0.270878,-0.180179,1.999969
367,183.535515,63.050278,-45.899138,0.139895,-0.240238,1.999969
368,220.401312,67.750057,-42.725261,0.064210,-0.463996,1.999969
369,274.052033,72.877089,-38.208591,0.015381,-0.717052,1.999969
370,300.602731,81.544213,-35.645075,-0.023560,-0.902235,1.467063
371,256.717784,84.657053,-25.635157,-0.111086,-0.836072,1.591699
372,220.767529,68.116274,-13.061723,-0.084718,-1.007095,1.999969
373,247.867552,63.965820,-7.812619,-0.063722,-0.930190,1.999969
374,265.812161,56.397345,-3.051804,-0.005982,-0.885023,1.999969
375,277.042802,50.843061,-0.610361,0.105104,-0.882948,1.999969
376,286.442359,49.988556,-3.967346,0.258061,-0.887343,1.688136
377,274.723430,53.345541,-11.413748,0.309575,-0.887465,1.444846
378,253.055619,54.932479,-19.531548,0.337407,-0.941299,1.401877
379,240.115969,57.923247,-28.015564,0.337407,-1.020035,1.374044
380,226.260777,59.632258,-34.424353,0.336431,-1.114763,1.238544
381,209.170672,58.838788,-39.429313,0.401251,-1.295064,1.007095
382,180.178531,58.289464,-45.410849,0.520638,-1.566430,0.747814
383,140.260929,62.134737,-53.345541,0.567880,-1.960479,0.500862
384,99.671931,79.163806,-66.102083,0.481575,-2.000031,0.312016
385,65.857939,99.366751,-69.336996,0.206912,-2.000031,0.204105
386,26.550698,97.474632,-49.561303,-0.115969,-2.000031,0.083864
387,-7.568475,59.082933,-15.075914,-0.353033,-2.000031,0.123049
388,-34.851606,0.854505,25.146868,-0.421149,-1.702541,0.398322
389,-54.627298,-48.462654,56.519417,-0.268070,-2.000031,-2.000031
390,-196.108949,-137.819486,81.177996,0.341924,-0.660899,-0.294926
391,-163.027390,-119.630732,58.899825,0.200687,-0.424567,1.362325
392,-124.025330,-59.998474,46.875715,-0.318242,0.925307,1.929595
393,-148.622873,-86.671244,59.449149,-0.378912,0.685679,0.983169
394,-228.641184,-103.273060,88.441291,0.470100,-0.047852,-0.073854
395,-274.845502,-78.370336,80.567636,0.811780,-0.217411,0.841321
396,-284.672313,-55.481804,68.909743,1.146258,-0.044556,1.999969
397,-216.556039,-24.536507,43.213550,1.433982,-0.088502,1.999969
398,-112.428473,18.738079,-4.882887,0.879774,-0.028565,1.761257
399,-127.870604,36.255436,-20.508125,-0.145022,0.049439,1.213886
400,-151.552605,45.227741,0.671397,-1.149432,-0.164675,1.232807
401,-158.388647,-19.470512,38.269627,-1.438499,-0.562631,1.824002
402,-83.924620,-80.384527,51.514458,-0.272343,-0.360601,1.252949
403,-49.988556,-101.197833,39.612421,1.132341,0.424201,1.999969
404,-61.341268,-53.955901,20.691234,0.918227,0.017090,1.636011
405,-38.330663,-16.906996,11.963073,-0.532601,0.052003,1.300801
406,-46.265354,-46.997787,15.991455,-0.067384,0.039429,1.138689
407,-30.334936,-35.523003,4.577707,0.595346,0.179568,1.581689
408,-33.936065,-5.981537,1.220722,-0.045655,0.006226,1.080949
409,-24.719615,-10.925460,1.098650,-0.205081,0.031861,0.970962
410,-30.579080,-14.099336,1.525902,0.185550,0.028077,1.199481
411,-20.691234,-1.770047,1.098650,0.057740,0.000244,1.142351
412,-17.639429,3.295949,3.234913,-0.009766,0.024781,1.070451
413,-16.418708,5.310140,4.394598,0.017456,0.004517,1.073136
414,-12.085145,9.338521,4.211490,0.017700,0.061158,0.990494
415,-19.165332,10.437171,5.615320,-0.019532,0.024048,1.018204
416,-17.639429,10.009918,5.371176,-0.017823,0.010010,1.038712
417,-14.465553,9.643702,4.455634,-0.005005,0.022950,1.008316
418,-15.075914,9.460594,4.028382,-0.049073,0.026001,0.990005
419,-16.174563,7.568475,3.723201,-0.050172,0.011353,1.011368
420,-14.343481,6.225681,3.418021,-0.026734,-0.002075,1.013321
421,-13.183795,5.981537,3.479057,-0.032349,-0.003174,1.019303
422,-11.841001,5.493248,4.028382,-0.045045,-0.001221,0.986465
423,-10.864424,4.272526,3.784237,-0.051148,0.023438,0.960586
424,-14.282444,1.953155,3.784237,-0.057374,0.019654,0.941421
425,-17.822538,-0.976577,3.784237,-0.066529,0.031495,0.963027
426,-18.371862,-2.563516,3.356985,-0.061524,0.022827,0.963149
427,-17.517357,-5.371176,3.356985,-0.043214,0.097658,0.905898
428,-24.536507,-6.347753,2.868696,-0.034913,0.016236,0.965347
429,-26.550698,-6.713970,2.868696,-0.037232,-0.007813,1.011856
430,-27.649348,-7.019150,2.685588,-0.016480,-0.027344,0.976333
431,-26.916915,-5.798428,2.502480,-0.114015,0.065431,1.285298
432,-24.109255,-5.493248,4.150454,0.004273,-0.013916,0.908461
433,-27.100023,-6.225681,2.563516,-0.028809,-0.058595,0.986099
434,-23.193713,-5.737392,1.098650,-0.030518,-0.076051,1.077897
435,-19.104295,-5.615320,1.220722,-0.022339,-0.071168,1.078141
436,-14.282444,-5.004959,1.037613,-0.014405,-0.075441,1.052384
437,-8.117800,-4.028382,0.244144,-0.025025,-0.043091,1.013931
438,-9.399557,-4.577707,0.305180,-0.028077,-0.039551,1.012589
439,-10.925460,-4.394598,0.427253,-0.126467,0.027222,1.289815
440,-4.516670,-3.112840,0.976577,-0.019898,-0.076539,1.019791
441,-7.690547,-5.554284,0.793469,-0.030640,-0.058228,0.917250
442,-10.315099,-7.568475,1.037613,-0.041871,-0.051026,0.999039
443,-8.972305,-9.338521,0.488289,-0.041505,-0.038819,0.995377
444,-10.254063,-11.230640,0.061036,-0.034424,-0.026612,0.939712
445,-13.855192,-13.977264,-0.366217,-0.012451,-0.014893,0.985367
446,-20.996414,-14.160372,-0.305180,-0.017090,-0.039796,0.984268
447,-20.752270,-14.099336,-1.281758,-0.025635,-0.021607,0.980362
448,-25.207904,-15.564202,-1.464866,-0.023316,-0.024170,0.949233
449,-30.273899,-16.662852,-2.319371,-0.005371,-0.006348,0.937148
450,-38.147555,-16.968032,-2.563516,-0.014160,-0.017212,0.974380
451,-46.204318,-16.479744,-1.281758,0.011597,-0.068116,1.101823
452,-39.551385,-14.038300,1.037613,-0.025635,-0.132204,0.979385
453,-38.208591,-12.817578,5.920500,0.087404,-0.099001,1.039567
454,-42.053864,-8.789197,8.850233,-0.014038,-0.099977,0.999771
455,-39.612421,-5.920500,8.911269,0.083131,-0.072267,1.090227
456,-42.603189,-1.709010,6.713970,-0.019532,-0.091554,1.015763
457,-44.495308,-2.502480,5.493248,-0.005127,-0.082277,1.010880
458,-47.119860,-3.051804,2.502480,-0.030030,-0.092653,1.031144
459,-44.495308,-5.981537,-1.831083,-0.081300,-0.110475,1.070085
460,-43.335622,-7.019150,-9.094377,-0.015381,-0.117556,1.020401
461,-50.537881,-5.310140,-16.906996,-0.031373,-0.063478,1.088273
462,-69.398032,5.188067,-36.743725,-0.045777,-0.195926,1.000870
463,-62.745098,7.568475,-38.208591,0.096071,-0.426764,1.060075
464,-22.156100,-1.220722,-12.024109,0.082521,-0.239261,1.087419
465,-16.174563,-1.892119,-7.568475,0.020996,-0.080934,1.030289
466,-42.481117,-0.976577,-11.657893,0.020630,-0.043702,0.982071
467,-63.538567,-1.647974,-13.855192,-0.005249,0.143557,0.920302
468,-96.559091,0.366217,-23.498894,0.076051,-0.038941,0.909804
469,-107.118334,2.075227,-10.925460,0.061891,0.177737,0.649912
470,-133.424887,-3.784237,-17.578393,0.078737,0.387701,0.730968
471,-185.000381,-17.151141,-51.392386,0.021241,0.744396,1.317403
472,-389.654383,-1.892119,-57.190814,0.217166,0.990982,1.533227
473,-629.221027,10.559243,-23.071641,-0.327276,0.574472,1.999969
474,-715.037766,-25.024796,6.042573,-0.108278,-0.205570,1.425437
475,-785.595483,-34.241245,29.541466,-0.026490,-0.184573,0.876967
476,-864.759289,-66.590372,28.809033,0.459358,-2.000031,1.722194
477,-920.851453,-52.002747,180.605783,-1.288472,-0.340215,1.999969
478,-146.913863,-87.403677,-39.673457,-0.658457,-1.655299,1.999969
479,248.294804,-61.951629,-24.170291,-0.821668,0.469734,1.999969
480,110.353246,-51.697566,-9.460594,-0.317876,0.738170,1.629541
481,-55.420768,-66.773480,76.112001,-0.617441,0.809216,1.562158
482,-67.689021,-70.740826,96.864271,-0.210452,0.396612,1.402731
483,87.220569,-24.353399,62.989242,-0.086671,0.343267,1.068864
484,107.362478,-15.381094,49.073014,0.062379,0.568002,0.616831
485,60.059510,-22.888533,51.087205,0.129885,0.452155,0.873304
486,99.305715,-20.752270,36.011292,0.120241,0.334844,1.009293
487,142.153048,-20.263981,19.226368,0.161868,0.433356,0.870863
488,140.260929,-24.475471,8.178836,0.167605,0.393805,0.854871
489,159.182116,-22.461280,-5.371176,0.120729,0.334600,0.915541
490,177.553979,-21.057450,-17.273213,0.057252,0.329717,1.053117
491,188.540475,-22.522316,-24.109255,-0.029297,0.254765,1.235859
492,214.175631,-21.789883,-29.358358,-0.099245,0.165530,1.353536
493,239.566644,-16.906996,-31.738766,-0.170535,0.084230,1.296162
494,255.680171,-11.352712,-30.579080,-0.232914,0.003174,1.296773
495,269.657435,-6.591897,-26.428626,-0.274296,-0.069581,1.351095
496,284.916457,-3.906310,-20.752270,-0.281254,-0.097047,1.469139
497,300.419623,-1.464866,-15.808347,-0.232425,-0.131716,1.561425
498,317.692836,5.676356,-13.977264,-0.154421,-0.191775,1.499290
499,328.252079,15.869383,-15.930419,-0.026734,-0.236820,1.323873
500,329.167620,25.329976,-22.156100,0.075074,-0.339483,0.958389
501,312.993057,33.691920,-32.349126,0.182376,-0.483650,0.580697
502,281.437400,47.364004,-44.922560,0.275029,-0.473396,0.622934
503,243.350881,56.458381,-54.505226,0.240116,-0.366705,1.261494
504,229.312581,57.862211,-64.393072,0.189578,-0.381964,1.709377
505,239.749752,68.055238,-75.440604,0.097292,-0.399054,1.999969
506,240.421149,87.281605,-76.844434,-0.002686,-0.474006,1.999969
507,237.613489,98.207065,-71.351186,-0.104372,-0.597299,1.999969
508,240.848402,94.544900,-61.707485,-0.131594,-0.670909,1.999969
509,245.304036,85.999847,-49.927520,-0.130617,-0.698253,1.999969
510,257.633326,81.910430,-38.391699,-0.018555,-0.831189,1.999969
511,283.085374,85.938811,-31.982910,0.162844,-0.882826,1.999969
512,299.015793,85.755703,-29.541466,0.354376,-0.900649,1.999969
513,298.771649,78.614481,-31.555657,0.495369,-0.916030,1.779812
514,287.418936,68.787671,-38.330663,0.538094,-0.914931,1.643458
515,270.634012,62.684062,-46.692607,0.490608,-1.014298,1.611353
516,254.093233,63.843748,-51.880674,0.257816,-1.234272,1.550439
517,237.735561,64.209964,-48.706798,0.063233,-1.535424,1.313130
518,211.612116,63.172351,-40.161746,0.104494,-1.932525,1.075334
519,172.549020,67.994202,-32.288090,0.365728,-2.000031,0.904311
520,125.307088,88.319219,-37.903410,0.590951,-2.000031,0.652110
521,102.357519,121.217670,-49.927520,0.520027,-2.000031,0.064210
522,91.187915,125.307088,-44.739452,0.259037,-2.000031,-0.684215
523,7.934691,57.373922,-12.207218,-0.039918,-2.000031,-0.644175
524,-85.572595,-57.373922,25.085832,-0.128664,-2.000031,-1.996002
525,-196.841382,-191.531243,66.529335,0.628916,-1.561547,-0.105837
526,-229.312581,-208.621347,46.448463,1.037369,-1.191302,0.920302
527,-115.297169,-124.818799,6.042573,-0.056886,0.316777,1.946929
528,-125.001907,-112.489509,-5.798428,-0.836927,0.720104,1.999969
529,-186.648356,-88.746471,53.711757,-0.834485,0.321538,0.624155
530,-269.840543,-99.183642,78.736553,-0.206180,-0.426642,0.472786
531,-263.614862,-83.741512,88.380255,0.329595,-0.373907,1.830350
532,-218.753338,-69.031815,84.596017,1.283345,0.006470,1.999969
533,-152.224002,-40.833143,49.805447,1.739773,0.081666,1.999969
534,-96.681163,-12.024109,-0.915541,0.948257,0.113527,1.399191
535,-116.456855,1.525902,-12.817578,-0.208499,0.132692,1.284199
536,-130.495155,-1.647974,10.742351,-1.492576,-0.160159,1.439231
537,-121.766995,-70.923934,52.185855,-1.114885,-0.420050,0.987930
538,-84.534981,-126.344701,55.970092,0.407965,0.207401,1.947662
539,-83.314260,-113.344015,37.232013,1.677272,0.128298,1.999969
540,-47.180896,-30.823224,6.836042,0.170901,-0.018799,1.421286
541,-55.298695,-34.973678,4.455634,-0.645274,-0.090822,1.166033
542,-56.214237,-62.073701,11.047532,0.404181,0.000244,1.216449
543,-40.833143,-31.372549,-0.976577,0.443732,0.109621,1.455467
544,-51.148241,-17.639429,3.662165,-0.122560,-0.042481,1.031144
545,-26.428626,-25.146868,-1.037613,0.002441,0.025757,1.059098
546,-32.471199,-21.911955,-0.610361,0.154299,0.029175,1.124651
547,-30.762188,-13.000687,0.427253,0.080568,-0.053712,1.139910
548,-17.395285,-7.446403,-0.366217,0.102174,0.010620,1.072282
549,-20.080873,-2.014191,1.098650,0.114137,0.067994,1.052995
550,-20.813306,2.197299,2.563516,0.087282,0.009644,1.013321
551,-20.569162,5.004959,2.563516,0.067384,0.022339,0.981338
552,-25.574121,5.737392,4.028382,-0.009155,0.076783,0.995132
553,-31.921874,4.821851,4.699779,0.035279,0.046876,0.952041
554,-33.508812,4.516670,3.112840,0.020142,0.004761,0.975601
555,-35.278859,4.516670,2.258335,0.048707,0.006958,1.009049
556,-40.405890,4.211490,2.807660,0.039307,-0.064942,1.059831
557,-33.142596,4.821851,3.234913,0.052979,-0.078370,1.097551
558,-26.367590,6.775006,3.479057,0.043824,-0.052857,1.067277
559,-22.705425,7.507439,3.906310,0.033936,-0.054688,1.018326
560,-20.691234,7.507439,3.418021,0.023316,-0.054078,1.037858
561,-17.883574,6.530861,2.746624,0.024781,-0.058228,1.029313
562,-15.686275,5.615320,2.075227,0.021973,-0.064820,1.020645
563,-12.634470,4.882887,1.342794,0.015747,-0.064088,1.012955
564,-11.352712,3.967346,0.793469,0.014038,-0.052613,0.996353
565,-10.376135,2.441444,0.427253,0.017578,-0.062745,0.992325
566,-10.742351,1.037613,0.671397,0.011231,-0.054444,0.983291
567,-11.841001,-0.061036,0.915541,0.015259,-0.068360,0.990738
568,-11.047532,-0.732433,1.403830,0.023316,-0.070924,1.001846
569,-10.559243,-0.854505,1.342794,0.022705,-0.074586,1.016373
570,-8.789197,-1.037613,0.915541,0.034668,-0.067628,1.014908
571,-8.422980,-0.549325,0.976577,0.032837,-0.086671,1.024552
572,-4.455634,-0.305180,1.342794,0.017090,-0.074830,0.991470
573,-3.784237,-0.854505,1.464866,0.025635,-0.052735,0.973892
574,-7.080186,-1.953155,0.915541,0.010010,-0.052979,0.968276
575,-8.239872,-3.234913,0.793469,0.015015,-0.049195,0.951553
576,-13.733120,-4.577707,0.732433,0.018189,-0.049439,0.985733
577,-15.991455,-4.638743,0.976577,0.037476,-0.071046,1.003311
578,-15.136950,-3.601129,1.098650,0.044678,-0.092897,0.998428
579,-16.723888,-3.051804,1.709010,0.036988,-0.071778,1.014176
580,-16.357671,-2.258335,1.464866,0.039796,-0.061769,0.996353
581,-17.212177,-1.770047,1.342794,0.043091,-0.063600,1.002945
582,-20.141909,-0.976577,1.647974,0.025025,-0.078614,0.977432
583,-19.897765,-2.014191,2.380407,0.034424,-0.048707,0.971572
584,-23.682002,-2.502480,2.258335,0.015991,-0.056153,0.960708
585,-26.550698,-4.577707,4.211490,0.042725,-0.035279,1.097673
586,-29.297322,-0.183108,4.150454,-0.016236,-0.088014,0.928115
587,-29.114214,-0.366217,5.432212,0.082155,-0.088991,1.035660
588,-34.729534,2.624552,7.690547,0.031739,-0.117067,1.008072
589,-33.691920,3.601129,9.704738,0.046632,-0.127810,1.002823
590,-36.255436,5.432212,10.254063,0.029786,-0.117311,0.987076
591,-37.293050,4.211490,9.826810,-0.004517,-0.116335,1.001358
592,-35.523003,2.319371,6.836042,-0.011475,-0.094728,0.979385
593,-37.415122,-1.037613,2.746624,-0.021851,-0.106691,1.008072
594,-35.156786,-4.089418,-2.624552,-0.040406,-0.119387,1.002945
595,-33.386740,-6.775006,-12.512398,-0.039429,-0.135256,1.023209
596,-34.485389,-5.859464,-23.804074,-0.016358,-0.140749,1.037613
597,-58.716716,2.807660,-44.556344,0.000366,-0.157229,1.081559
598,-54.566262,4.272526,-39.856565,0.127077,-0.363531,0.964248
599,-20.019837,-5.188067,-18.249790,0.148684,-0.328252,0.972061
600,5.188067,-13.183795,-3.234913,0.039918,-0.010742,1.048112
601,-24.719615,-6.408789,-12.146181,0.061280,0.032227,1.061540
602,-68.360418,2.807660,-18.738079,0.091676,0.151614,0.916640
603,-121.156634,13.916228,-18.738079,0.165042,0.064332,1.032120
604,-147.463188,20.874342,-13.366903,0.050416,0.367559,0.703624
605,-149.965667,6.530861,-18.127718,0.047730,0.345708,0.640879
606,-191.714351,-35.339895,-38.208591,-0.333623,0.858289,1.303975
607,-432.013428,-21.545739,-21.423667,0.593027,1.294697,1.172259
608,-655.222400,-54.444190,17.883574,-0.599619,0.029908,1.866972
609,-731.151293,-116.273747,83.985657,-0.127810,-0.261967,1.147234
610,-784.069581,-132.936599,63.538567,0.124880,-0.058106,0.874891
611,-807.568475,-133.180743,57.923247,0.340703,-0.470954,0.917983
612,-1029.068437,-158.754864,149.904631,-0.144045,-1.868803,1.999969
613,-454.962997,-100.221256,52.491035,-0.853529,-0.954971,1.999969
614,191.592279,-75.074388,-67.811093,-0.106813,1.045914,1.999969
615,238.956283,-24.475471,-82.398718,-0.271244,1.585595,1.999969
616,63.416495,-6.591897,-64.087892,-0.564218,0.741344,1.999969
617,-14.038300,-44.983597,5.798428,-0.510140,0.427741,1.683986
618,72.632944,-19.348440,1.342794,-0.417609,0.185183,1.274189
619,199.649043,3.051804,-6.408789,-0.463020,0.284672,0.794079
620,174.807355,-1.220722,6.713970,-0.382086,0.311284,0.570565
621,140.505074,-9.216449,18.860151,-0.446540,0.087282,0.777234
622,177.798123,-5.188067,25.879301,-0.431037,0.000122,0.898451
623,205.447471,-4.089418,32.715343,-0.359014,0.069459,0.885634
624,205.630579,-7.568475,39.429313,-0.266484,0.046754,1.031022
625,226.443885,-4.211490,39.856565,-0.134157,0.029664,1.125872
626,249.088273,5.554284,33.081559,-0.019287,0.051148,1.098039
627,255.924315,18.188754,25.879301,0.027832,0.004883,1.042008
628,264.652476,30.457008,17.090105,0.032837,-0.060792,1.018570
629,272.098878,36.560616,11.047532,0.025147,-0.107912,1.090715
630,277.775235,35.828183,8.606088,0.035645,-0.149783,1.254047
631,290.897993,32.593271,6.713970,0.100710,-0.155764,1.380392
632,300.785840,29.480430,1.220722,0.270512,-0.249760,1.411521
633,305.424582,32.227054,-12.390326,0.393805,-0.329961,1.534325
634,314.824140,39.734493,-29.785611,0.390753,-0.409064,1.612573
635,322.148470,45.532921,-45.105669,0.379522,-0.497200,1.551537
636,318.303197,54.077974,-59.693294,0.332769,-0.732921,1.217548
637,300.419623,72.083619,-68.238346,0.233768,-0.883314,0.812146
638,267.460136,75.440604,-69.520104,0.082033,-0.835340,0.641245
639,227.603571,60.669871,-66.407263,0.007080,-0.748302,0.805066
640,200.747692,49.744411,-62.806134,-0.031495,-0.558114,1.363058
641,178.286412,48.889906,-58.472572,-0.049928,-0.455207,1.999969
642,181.033036,57.923247,-54.016938,-0.071046,-0.527230,1.999969
643,223.819333,70.618753,-50.598917,-0.079591,-0.672129,1.999969
644,272.770275,77.454795,-46.021210,-0.046509,-0.737682,1.999969
645,289.311055,76.295109,-39.856565,0.015503,-0.778088,1.974762
646,280.582895,75.928893,-32.959487,0.129885,-0.821057,1.637476
647,270.756085,77.576867,-30.090791,0.241093,-0.801038,1.459983
648,253.055619,77.271687,-31.006332,0.368414,-0.807385,1.335103
649,233.463035,74.708171,-35.339895,0.484993,-0.805310,1.406027
650,218.020905,70.191501,-43.091478,0.498665,-0.891737,1.456443
651,209.597925,67.139696,-50.598917,0.398932,-1.038102,1.358907
652,195.254444,63.050278,-52.857252,0.326055,-1.260639,1.225971
653,174.258030,58.228428,-49.866484,0.363775,-1.585595,1.086564
654,151.186389,57.007706,-48.035401,0.469612,-2.000031,0.907118
655,124.513619,62.867170,-48.889906,0.526619,-2.000031,0.591684
656,104.554818,68.238346,-45.960174,0.433600,-2.000031,0.018799
657,77.210651,47.241932,-27.405203,0.264408,-2.000031,-0.573495
658,13.244831,-12.146181,6.591897,0.085451,-2.000031,-0.430182
659,-72.816052,-96.986343,29.907683,0.073365,-2.000031,-1.598291
660,-201.541161,-181.033036,61.402304,0.591196,-1.698146,-0.171633
661,-261.966888,-152.834363,50.049592,0.539193,-1.957427,0.162722
662,-150.453956,-86.793317,29.602502,-0.030640,-0.081666,1.703883
663,-156.008240,-81.666285,23.315785,-0.032593,1.056046,1.999969
664,-231.692988,-74.830243,37.537194,-0.001465,0.548226,1.340230
665,-268.863966,-75.867857,37.659266,-0.015747,-0.469001,0.819715
666,-243.045701,-60.486763,45.166705,0.158328,-0.460945,1.546166
667,-228.580148,-38.391699,46.448463,0.751110,-0.042359,1.999969
668,-200.869764,3.967346,25.635157,0.529305,-0.288212,1.999969
669,-141.359579,20.019837,10.925460,-0.081544,-0.113405,1.556664
670,-163.637751,-28.992142,20.813306,-0.538460,-0.482429,1.999969
671,-90.272374,-70.740826,28.686961,0.237186,-0.234379,1.999969
672,-40.100710,-58.533608,16.784924,0.837781,0.017578,1.884062
673,-43.945983,-8.789197,12.207218,0.308721,0.141115,1.389792
674,-51.148241,-4.455634,12.939651,-0.367681,-0.019043,1.103655
675,-39.185168,-22.949569,7.934691,0.087037,0.015259,1.251606
676,-31.372549,-12.024109,2.502480,0.325322,0.032349,1.335470
677,-26.123445,2.014191,2.441444,-0.113161,-0.047974,1.194965
678,-11.963073,-2.807660,2.868696,-0.056275,0.019165,1.058854
679,-14.465553,-1.831083,2.868696,0.077516,0.015137,1.060685
680,-12.878614,2.258335,3.356985,-0.056397,0.009277,1.029801
681,-13.244831,1.464866,3.906310,0.024414,-0.001343,1.057023
682,-9.826810,4.882887,3.906310,0.013916,0.027710,1.020645
683,-11.657893,6.042573,4.577707,-0.014893,0.006714,1.025040
684,-9.216449,6.164645,4.211490,0.011963,0.002564,1.039445
685,-7.812619,7.446403,4.028382,-0.011231,0.004150,1.032975
686,-6.652934,7.995727,4.028382,-0.005493,-0.016846,1.046525
687,-3.723201,8.789197,3.723201,-0.030152,-0.007446,1.032853
688,-2.014191,8.300908,3.662165,-0.036622,0.007202,0.987198
689,-2.563516,6.775006,3.479057,-0.042115,0.011353,0.974746
690,-2.197299,4.882887,3.051804,-0.054444,0.011353,0.968765
691,-3.295949,2.258335,2.685588,-0.050538,0.014405,0.960098
692,-4.577707,0.183108,2.258335,-0.032105,0.007568,0.967056
693,-4.943923,-1.037613,2.197299,-0.050172,0.012573,0.951431
694,-6.103609,-3.418021,2.380407,-0.044190,0.020752,0.942885
695,-8.361944,-5.920500,2.258335,-0.036011,0.014160,0.963027
696,-10.620279,-7.934691,2.441444,-0.045411,0.004273,0.960220
697,-11.352712,-10.315099,2.319371,-0.050538,0.012818,0.945571
698,-13.977264,-12.939651,2.075227,-0.026612,0.003906,0.960708
699,-17.822538,-14.770733,2.136263,-0.036255,-0.002441,0.980728
700,-17.334249,-13.794156,0.305180,0.042725,-0.069947,0.857679
701,-15.197986,-16.235599,0.671397,-0.063233,0.033448,1.019547
702,-26.245518,-20.325017,2.563516,-0.010864,-0.032837,0.946670
703,-19.104295,-20.325017,1.037613,-0.018067,-0.016724,1.051041
704,-16.662852,-19.958801,-2.136263,-0.038819,-0.041627,0.909438
705,-19.836728,-20.569162,-0.610361,0.017823,-0.036744,1.036149
706,-19.592584,-19.226368,0.000000,0.008789,-0.035401,1.109026
707,-14.465553,-17.883574,-0.488289,0.022339,-0.054078,1.038468
708,-11.841001,-15.869383,-0.793469,0.035401,-0.069459,1.051286
709,-10.193027,-14.038300,-0.915541,0.024170,-0.049561,1.037858
710,-8.178836,-15.197986,-1.586938,0.045533,0.053956,0.903090
711,-15.625238,-11.657893,0.671397,0.026368,-0.014038,0.985245
712,-20.019837,-10.131991,1.159686,0.045289,-0.031250,1.041398
713,-18.493935,-7.934691,0.854505,0.033936,-0.027222,0.982803
714,-22.095064,-7.690547,0.976577,0.030640,-0.063966,0.946304
715,-24.170291,-7.507439,1.647974,0.019409,-0.048463,1.012833
716,-23.804074,-7.446403,1.770047,0.024170,-0.050172,0.995254
717,-26.489662,-7.995727,2.868696,0.024048,-0.041871,0.992569
718,-26.062409,-8.117800,2.380407,0.005859,-0.037598,0.973648
719,-27.588312,-9.826810,2.136263,0.005127,-0.042481,0.948745
720,-32.227054,-11.902037,0.976577,0.009155,-0.039429,0.961807
721,-38.635843,-13.855192,1.464866,0.022461,-0.071656,0.992813
722,-32.593271,-14.587625,3.540093,0.075685,-0.035645,1.049210
723,-33.081559,-9.094377,4.577707,0.009888,-0.042725,0.923110
724,-50.476844,-6.225681,8.056764,0.125490,-0.104616,1.110613
725,-43.091478,-1.220722,8.484016,-0.002441,-0.088380,1.053849
726,-40.588998,-1.342794,6.469825,0.071168,-0.071290,0.912245
727,-51.819638,-1.525902,7.263294,-0.002197,-0.072877,1.028092
728,-51.758602,-2.197299,3.906310,0.006104,-0.099367,0.996475
729,-47.241932,-2.685588,-1.159686,-0.046021,-0.062623,0.990005
730,-52.796216,-5.737392,-9.338521,-0.018311,-0.115114,1.057633
731,-55.054551,-4.516670,-15.442130,-0.030030,-0.091554,1.111711
732,-73.609522,4.699779,-38.696880,0.015869,-0.125002,1.096818
733,-56.885634,7.873655,-40.283818,0.082765,-0.403571,1.038102
734,-31.982910,-4.943923,-15.197986,0.177493,-0.318486,0.974014
735,-15.014878,-9.155413,-0.549325,0.065919,-0.007935,1.052384
736,-41.260395,0.732433,-10.376135,0.069581,0.290532,0.918227
737,-106.507973,10.986496,-23.254749,0.188968,0.214115,0.974746
738,-151.796750,26.306554,-19.775692,-0.015869,0.286992,0.875135
739,-173.037308,-1.831083,-26.672770,-0.271733,-0.019532,0.737560
740,-192.935073,-39.612421,-6.347753,-0.100832,0.881239,1.295796
741,-437.872892,-22.644388,-36.499580,0.584115,1.277974,1.276753
742,-639.536126,-66.590372,-4.028382,-0.841077,0.034546,1.999969
743,-737.254902,-154.482338,54.505226,-0.332036,-0.210208,1.157000
744,-830.823224,-175.112535,78.004120,0.072023,0.085817,0.932509
745,-914.991989,-181.033036,68.177310,0.665904,-1.389059,1.677150
746,-1126.726177,-172.487984,218.509194,-0.391852,-0.813367,1.999969
747,-221.560998,-99.244678,0.488289,-0.305547,-1.366720,1.999969
748,340.886549,-23.926146,-62.378882,-0.211795,0.951064,1.999969
749,288.334478,10.376135,-70.008392,-0.484749,1.293843,1.999969
750,119.142443,10.742351,-16.235599,-0.704723,0.685557,1.308370
751,7.202258,-25.635157,37.109941,-0.586069,0.412604,0.760143
752,63.294423,-1.220722,36.987869,-0.410040,0.169558,0.572641
753,174.013886,26.001373,26.611734,-0.394171,0.257206,0.278569
754,144.899672,21.606775,36.987869,-0.221683,0.343999,0.212284
755,106.080720,9.948882,44.251164,-0.154177,0.224369,0.623789
756,140.077821,10.742351,41.687648,-0.042847,0.226810,0.926162
757,174.929427,10.925460,35.095750,0.070924,0.349126,1.122454
758,184.084840,6.713970,28.870069,0.155276,0.345098,1.325948
759,213.382162,8.606088,17.700465,0.198367,0.305913,1.398459
760,245.853361,14.343481,4.272526,0.216556,0.278935,1.306783
761,260.135805,19.348440,-6.958114,0.202640,0.217777,1.363546
762,276.005188,25.696193,-16.418708,0.174075,0.108400,1.452293
763,300.968948,32.959487,-24.963760,0.153811,0.007813,1.475853
764,319.829099,38.574807,-29.297322,0.163699,-0.078614,1.481590
765,334.111543,39.185168,-31.982910,0.194461,-0.167971,1.430808
766,347.600519,36.133364,-35.767147,0.233402,-0.278813,1.259907
767,346.013581,32.288090,-42.298009,0.271855,-0.493904,0.802869
768,323.247120,46.814679,-51.636530,0.375006,-0.737682,0.362066
769,287.541009,65.064469,-56.702525,0.411383,-0.508919,0.547127
770,235.721370,55.848020,-66.529335,0.513313,-0.385016,0.980484
771,226.688029,46.936751,-82.215610,0.514290,-0.309453,1.498070
772,214.908064,55.603876,-95.277333,0.385748,-0.288334,1.999969
773,205.081254,73.609522,-98.756390,0.056764,-0.463386,1.999969
774,229.922942,86.793317,-91.004807,-0.255863,-0.852308,1.999969
775,271.183337,96.009766,-74.097810,-0.440070,-1.106462,1.999969
776,267.277028,92.286564,-46.753643,-0.493172,-1.077531,1.999969
777,250.064851,73.426413,-15.197986,-0.456184,-1.128313,1.999969
778,287.541009,63.355459,8.911269,-0.361700,-1.193133,1.999969
779,337.407492,65.369650,23.254749,-0.139895,-1.167376,1.940581
780,324.467842,72.327764,30.334936,0.297124,-1.046891,1.425559
781,279.911498,80.628672,28.442817,0.464729,-1.057023,1.407370
782,259.525444,79.468986,22.644388,0.456550,-1.184955,1.512474
783,249.149310,69.031815,19.470512,0.383185,-1.346212,1.491600
784,229.190509,49.561303,22.278172,0.314458,-1.744167,1.346944
785,206.057832,33.875029,26.123445,0.452888,-2.000031,0.998428
786,170.107576,35.400931,9.948882,0.728161,-2.000031,0.602914
787,135.439078,72.755016,-25.574121,0.932753,-2.000031,0.103395
788,103.334096,116.884108,-50.904097,0.667735,-2.000031,-0.509895
789,36.255436,94.361791,-37.415122,0.332647,-2.000031,-0.915297
790,-35.706111,0.610361,-1.892119,0.090700,-2.000031,-0.421027
791,-144.350347,-107.911803,2.075227,0.658824,-2.000031,-1.001358
792,-283.329519,-172.121767,32.410163,0.945083,-1.659327,-0.087648
793,-192.874037,-110.536355,-0.488289,0.195682,-0.459968,1.820584
794,-108.827344,-59.754330,-33.447776,-0.742565,1.024674,1.999969
795,-161.135271,-47.730220,-4.577707,-1.181781,0.541146,0.668711
796,-293.400473,-82.276646,37.537194,-0.986343,-0.459602,-0.199222
797,-320.683604,-82.093538,74.525063,-0.015137,-0.633799,1.702663
798,-290.226596,-51.514458,76.722362,1.346944,-0.319829,1.999969
799,-201.297017,-8.300908,35.095750,1.647730,-0.158938,1.999969
800,-152.162966,14.892805,-1.281758,0.407721,-0.049195,1.929107
801,-171.877623,-14.648661,15.197986,-1.297139,-0.827649,1.999969
802,-85.267414,-68.360418,35.095750,-0.698009,-0.416510,1.868437
803,-50.354772,-99.427787,23.010605,1.241230,0.280278,1.999969
804,-45.471885,-32.471199,9.826810,0.869154,0.021973,1.520897
805,-42.114900,1.403830,10.620279,-0.641123,-0.043946,1.068254
806,-42.481117,-37.842374,11.596857,-0.110231,-0.018433,1.147601
807,-23.132677,-31.555657,-2.319371,0.501350,0.109621,1.240742
808,-38.818952,-10.254063,3.234913,-0.086305,-0.060670,1.084245
809,-24.414435,-15.442130,2.014191,-0.065553,-0.073976,1.240742
810,-8.789197,-14.038300,-1.770047,0.126223,0.023682,1.048844
811,-14.221408,-7.995727,0.488289,-0.025025,0.004639,1.051041
812,-11.047532,-8.484016,1.159686,0.005859,0.019654,1.014054
813,-9.399557,-6.530861,-0.122072,0.051148,0.047974,0.982437
814,-15.747311,-3.356985,1.831083,0.024903,-0.014893,0.976333
815,-14.892805,-1.220722,2.502480,0.010620,0.042115,1.010391
816,-19.287404,-1.220722,4.150454,0.030030,0.042359,0.993301
817,-20.447089,-0.915541,4.577707,-0.004028,0.010498,0.983291
818,-19.470512,-2.807660,4.455634,0.010254,0.008301,0.999649
819,-18.616007,-3.967346,4.150454,0.027710,0.009033,0.995010
820,-19.226368,-5.432212,2.014191,-0.039551,0.034180,1.008072
821,-19.104295,-6.164645,2.807660,0.014649,0.007691,1.040909
822,-18.554971,-4.455634,2.990768,0.013306,0.001709,1.041032
823,-17.456321,-3.418021,2.929732,0.025757,-0.017700,1.030045
824,-15.014878,-2.624552,3.601129,0.015503,0.016358,1.051896
825,-14.648661,-3.295949,3.356985,-0.008911,0.043336,0.983902
826,-16.601816,-4.638743,0.671397,-0.011719,-0.188724,0.889418
827,-14.465553,-6.164645,1.709010,0.024170,-0.026246,1.054948
828,-14.587625,-5.493248,1.770047,0.008057,-0.032349,1.025650
829,-11.902037,-5.615320,1.770047,0.024537,-0.067750,0.925673
830,-12.573434,-6.836042,1.892119,-0.007813,-0.047608,0.948623
831,-16.784924,-9.948882,1.709010,-0.018189,0.035767,1.026627
832,-16.845960,-11.779965,1.586938,0.015991,0.021851,1.021134
833,-17.334249,-11.779965,1.098650,0.014160,-0.039551,0.961685
834,-19.653620,-12.573434,1.159686,0.016968,-0.026856,1.016983
835,-20.141909,-12.268254,0.671397,0.021363,-0.019165,1.017227
836,-20.141909,-12.329290,0.122072,0.026001,-0.010864,1.002090
837,-22.217136,-12.207218,-0.427253,0.021485,-0.015503,1.025284
838,-22.827497,-11.657893,-0.488289,0.042481,-0.047242,1.021012
839,-21.362631,-10.681315,-0.488289,0.048951,-0.060426,0.992447
840,-22.034028,-10.376135,-0.549325,0.050538,-0.072389,0.997208
841,-23.804074,-9.582666,0.732433,0.039307,-0.083864,1.021378
842,-19.287404,-8.545052,1.342794,0.041871,-0.074342,0.991958
843,-17.456321,-8.300908,2.258335,0.039796,-0.040284,0.978408
844,-22.400244,-8.117800,2.868696,0.050660,-0.041016,0.974990
845,-24.597543,-8.972305,3.906310,0.056886,-0.038697,1.002335
846,-28.381781,-6.652934,3.356985,0.070192,-0.029053,0.961929
847,-36.072328,-6.347753,3.418021,0.080323,-0.032227,1.085466
848,-35.217823,-2.990768,2.014191,0.034302,-0.086183,1.000137
849,-34.058137,-3.051804,1.342794,0.047364,-0.077638,1.008072
850,-39.002060,-0.061036,2.563516,0.038819,-0.105104,0.946914
851,-40.711070,0.305180,5.676356,0.072389,-0.051881,0.986099
852,-58.472572,2.014191,9.277485,0.092897,-0.123659,1.017838
853,-54.077974,4.821851,11.291676,0.043702,-0.130617,1.026261
854,-49.866484,5.737392,12.756542,0.044556,-0.132570,1.024430
855,-55.481804,6.652934,12.085145,0.012573,-0.147951,1.014908
856,-47.119860,5.737392,8.361944,0.018433,-0.148318,1.032242
857,-33.264668,4.943923,-1.220722,-0.060426,-0.135012,1.021134
858,-29.175250,1.037613,-9.765774,-0.009644,-0.141970,0.933608
859,-31.372549,0.915541,-18.799115,0.011475,-0.070436,0.985977
860,-55.664912,9.643702,-39.063096,0.047608,-0.113039,1.033707
861,-51.270314,12.878614,-38.452735,0.148074,-0.371832,1.016373
862,-21.728847,5.188067,-13.672084,0.168704,-0.324224,1.061540
863,-4.943923,3.295949,0.427253,0.063355,-0.007080,1.020035
864,-32.776379,7.202258,-9.826810,-0.049928,0.185550,0.914565
865,-93.690394,11.108568,-22.156100,0.105348,0.180301,1.007095
866,-138.185702,15.808347,-14.343481,0.061280,0.166995,0.823011
867,-168.276493,16.357671,-16.784924,0.044678,0.388312,0.238285
868,-184.512093,-25.391012,-5.493248,-0.061769,0.668833,1.097673
869,-416.937514,-27.588312,-10.864424,0.546639,1.074479,1.231952
870,-657.175555,-43.274586,21.606775,-0.563363,0.403937,1.977569
871,-758.922713,-111.024643,77.882048,-0.165896,-0.327398,1.276020
872,-838.330663,-118.471046,86.793317,0.139528,-0.081910,0.776501
873,-870.374609,-118.471046,68.055238,0.403693,-0.945205,0.988540
874,-1116.166934,-113.344015,179.324025,-0.401373,-1.188861,1.999969
875,-366.887923,-63.294423,10.498207,-0.772961,-1.693019,1.999969
876,192.874037,-31.128405,-46.021210,-0.320928,0.949477,1.999969
877,207.888914,-6.347753,-37.720302,-0.452888,1.294942,1.999969
878,70.984970,-18.249790,-17.883574,-0.405035,0.596323,1.999969
879,56.702525,-36.438544,28.015564,-0.362554,0.425055,1.378561
880,152.529183,-24.048219,11.169604,-0.144900,0.175418,0.777722
881,193.972686,-12.146181,4.821851,-0.105348,0.291020,0.225711
882,146.547646,-10.986496,6.836042,-0.089601,0.256352,0.125246
883,127.565423,-6.897078,5.615320,-0.106813,0.123171,0.297246
884,147.219043,-0.854505,0.366217,-0.072755,0.193362,0.517220
885,148.744945,-5.004959,-0.915541,-0.056886,0.267582,0.797986
886,157.656214,-15.686275,-2.685588,-0.035523,0.265019,1.102312
887,189.394980,-20.630198,-8.178836,-0.005127,0.276005,1.236835
888,213.565270,-18.249790,-15.869383,0.039918,0.270146,1.247700
889,228.030823,-5.859464,-24.109255,0.048463,0.200320,1.265644
890,243.961242,10.620279,-31.677729,0.019532,0.094362,1.339620
891,258.915084,23.132677,-36.804761,-0.077028,-0.017456,1.521508
892,286.198215,31.372549,-36.560616,-0.100832,-0.106813,1.504173
893,311.039902,36.804761,-33.813993,-0.096681,-0.150149,1.445945
894,320.378424,36.926833,-29.297322,-0.015747,-0.210941,1.453391
895,330.388342,34.241245,-26.794842,0.100099,-0.225711,1.585595
896,341.985199,32.166018,-30.273899,0.238529,-0.315312,1.507591
897,346.318761,39.246204,-44.434272,0.338140,-0.610727,0.940810
898,331.425956,74.280919,-62.012665,0.538827,-0.780041,0.224247
899,277.836271,105.226215,-71.351186,0.474372,-0.579843,0.206180
900,207.522698,84.596017,-75.928893,0.290776,-0.506844,0.697520
901,192.141604,59.510185,-78.553445,0.137942,-0.386603,1.721706
902,183.047227,53.894865,-77.882048,0.092409,-0.322881,1.999969
903,197.878996,71.107042,-76.356146,0.085206,-0.596567,1.999969
904,273.441672,95.399405,-78.187228,0.062501,-0.861463,1.999969
905,301.823453,110.170138,-75.257496,-0.000244,-0.815320,1.999969
906,261.051347,95.582513,-60.730907,-0.019287,-0.909804,1.999969
907,282.902266,82.642863,-48.401617,0.158206,-1.006607,1.999969
908,330.998703,85.694667,-45.166705,0.376715,-0.965957,1.999969
909,312.809949,92.530709,-42.847333,0.437751,-0.996231,1.570336
910,280.338750,82.398718,-38.879988,0.447517,-1.076677,1.409812
911,266.727703,60.181582,-39.185168,0.411261,-1.134417,1.567773
912,249.820707,50.904097,-39.551385,0.279545,-1.329610,1.616968
913,232.608530,57.618067,-36.682689,0.138064,-1.665064,1.469749
914,208.377203,66.773480,-32.227054,0.137331,-2.000031,1.125505
915,174.135958,76.783398,-27.710384,0.459480,-2.000031,0.677012
916,125.856413,92.652781,-36.743725,0.802258,-2.000031,0.180789
917,91.309987,107.789731,-52.307927,0.800305,-2.000031,-0.301030
918,52.429999,96.131838,-44.495308,0.454108,-2.000031,-0.517830
919,-17.883574,38.513771,-13.977264,0.043946,-2.000031,-0.176150
920,-54.749371,-34.851606,24.292363,-0.235111,-1.829374,0.454841
921,-110.109102,-128.480964,42.420081,-0.234379,-2.000031,-1.422629
922,-228.397040,-228.885328,78.126192,0.350103,-0.386236,1.018082
923,-139.406424,-120.607309,58.472572,-0.005249,0.021607,1.999969
924,-106.446937,-33.081559,56.885634,-0.655894,1.183978,1.393576
925,-206.301976,-114.869917,90.699626,0.056519,0.495613,0.056519
926,-314.946212,-113.954376,102.296483,1.008194,-0.437018,0.844617
927,-274.540322,-66.834516,84.046693,1.357198,-0.278325,1.836576
928,-241.580835,-58.350500,51.941711,1.918975,0.102052,1.999969
929,-202.822919,-13.916228,14.770733,1.166033,-0.186648,1.999969
930,-153.261616,2.502480,-10.925460,-0.163455,-0.039307,1.453880
931,-175.722896,5.737392,10.193027,-1.650416,-0.150759,1.999969
932,-176.272221,-70.313573,45.777066,-1.284199,-0.809705,1.659083
933,-68.177310,-112.733654,35.828183,0.858167,0.006226,1.999969
934,-69.886320,-75.867857,5.920500,1.571801,0.013550,1.934844
935,-62.439918,-17.883574,-0.183108,-0.341314,0.153811,1.376852
936,-78.919661,-55.237659,6.591897,-0.637583,-0.224369,1.125261
937,-26.550698,-65.308614,-0.122072,0.835462,0.128298,1.719387
938,-28.625925,-23.620966,-5.554284,0.203128,0.042237,1.089982
939,-42.603189,-18.127718,-5.554284,-0.248051,-0.170047,1.164202
940,-8.728161,-25.268940,-3.601129,0.237186,-0.009033,1.173968
941,-9.338521,-12.085145,-5.127031,0.163455,0.009033,1.062028
942,-17.212177,-3.295949,-1.892119,0.090211,-0.075441,1.152850
943,1.342794,2.685588,0.183108,0.085328,-0.004273,1.044205
944,0.671397,7.690547,4.272526,0.093019,0.041627,0.963882
945,-10.742351,10.009918,7.568475,0.016846,0.039551,0.981094
946,-3.418021,9.094377,7.385367,0.013184,0.126101,1.013931
947,-12.390326,6.530861,6.469825,0.024170,-0.094606,0.931044
948,-13.427939,5.004959,5.432212,0.030518,0.071046,1.032364
949,-10.193027,3.173877,4.028382,-0.006836,-0.026734,0.922011
950,-16.723888,-0.366217,2.807660,-0.015381,0.003174,0.979385
951,-16.296635,-2.075227,2.502480,0.013428,0.000000,1.019547
952,-14.221408,-1.892119,2.746624,0.022705,0.004395,0.996597
953,-14.648661,-1.037613,2.990768,0.013428,0.012207,1.019669
954,-12.268254,-0.427253,2.319371,0.041138,-0.048585,0.953017
955,-12.512398,-0.061036,3.234913,0.050538,-0.022705,0.998550
956,-12.207218,0.183108,2.014191,0.029786,-0.082765,0.909682
957,-12.390326,-1.525902,2.197299,0.026368,-0.027710,1.008438
958,-14.831769,-2.868696,1.831083,0.017334,-0.000244,1.009293
959,-12.756542,-3.662165,1.342794,-0.000855,0.084474,1.016007
960,-16.784924,-5.920500,1.586938,0.017334,-0.014038,0.985977
961,-18.677043,-7.263294,0.854505,-0.001221,-0.002564,0.980606
962,-19.043259,-8.422980,-0.732433,0.014893,-0.023682,0.966690
963,-20.630198,-8.911269,-0.854505,0.042969,-0.032105,1.019059
964,-22.034028,-8.300908,-3.295949,0.091798,-0.069825,1.128679
965,-16.357671,-7.446403,-0.427253,0.127565,-0.036866,1.030411
966,-15.686275,-4.638743,-0.366217,-0.000366,-0.054810,0.937758
967,-17.029068,-6.347753,0.000000,0.063844,-0.042481,1.027359
968,-18.310826,-5.493248,0.000000,0.029541,-0.060426,1.022110
969,-15.442130,-5.859464,0.000000,0.060182,-0.077760,0.992569
970,-11.841001,-4.821851,0.122072,0.054688,-0.043946,1.020401
971,-17.334249,-4.577707,0.488289,0.032105,-0.058961,0.949599
972,-19.104295,-5.676356,1.220722,0.031983,-0.050294,0.951064
973,-22.644388,-3.784237,0.671397,0.029175,-0.030274,0.937758
974,-28.931106,-4.455634,0.732433,0.050782,-0.026490,1.034073
975,-31.494621,-1.525902,0.671397,-0.002564,-0.130129,1.224994
976,-34.851606,-1.647974,0.976577,0.022217,-0.089235,0.999771
977,-35.278859,2.197299,0.427253,0.086061,-0.063355,0.899672
978,-42.053864,1.098650,1.586938,0.034180,-0.109987,1.003799
979,-36.621653,1.159686,2.380407,0.051392,-0.069459,0.940322
980,-41.504540,0.000000,2.136263,0.051759,-0.091066,1.016251
981,-38.635843,2.075227,5.371176,0.098878,-0.089601,0.974014
982,-56.885634,4.089418,8.484016,0.062623,-0.138064,1.062760
983,-48.096437,6.530861,9.277485,0.043091,-0.219730,1.042252
984,-24.353399,4.943923,9.399557,0.025757,-0.097902,1.025528
985,-28.015564,3.967346,5.004959,0.004028,-0.061280,0.954116
986,-31.250477,2.624552,-3.601129,-0.046876,-0.106081,1.010513
987,-31.250477,-0.610361,-13.916228,-0.047364,-0.189090,1.008194
988,-28.564889,3.418021,-18.677043,-0.032471,-0.104250,1.008316
989,-40.650034,3.173877,-38.635843,0.020264,-0.185672,1.103532
990,-23.498894,0.366217,-39.429313,0.119020,-0.294560,1.014298
991,-6.897078,-2.685588,-20.874342,0.163821,-0.295659,1.085588
992,-4.211490,-0.488289,1.647974,0.093019,-0.068605,1.058976
993,-35.889220,5.371176,-0.427253,0.069093,0.143923,1.020890
994,-80.140383,18.860151,-18.249790,0.177005,0.040162,1.031754
995,-107.545586,29.175250,-18.982223,0.036622,0.171023,0.909682
996,-166.018158,25.452049,-33.508812,-0.238773,0.528573,0.795422
997,-195.620661,-23.926146,-41.748684,-0.481086,-0.214359,0.838758
998,-248.355840,-47.119860,-13.305867,-0.156008,0.770520,1.175555
999,-398.016327,-104.615854,-64.332036,-0.274418,0.377813,1.153826
1000,-615.793088,-215.823606,-37.109941,-0.573373,-0.359014,1.188739
1001,-766.369116,-271.427482,64.942397,-0.052735,0.076051,1.321920
1002,-858.960861,-256.778820,91.248951,0.251957,0.112428,0.793957
1003,-958.937972,-233.829252,102.967880,0.834852,-2.000031,1.977569
1004,-1094.621195,-148.317693,269.474327,0.063355,-0.869276,1.999969
1005,-129.274434,-32.471199,-42.786297,-0.232914,-1.853422,1.999969
1006,349.309529,35.889220,-53.955901,-0.232303,0.882216,1.999969
1007,228.030823,44.922560,-66.773480,-0.331548,1.237201,1.999969
1008,75.623713,9.826810,20.691234,-0.868055,0.588388,1.474266
1009,20.935378,-35.767147,73.548486,-0.527108,0.228641,1.155291
1010,125.185016,4.394598,67.322805,-0.304814,0.115846,0.822889
1011,208.377203,36.133364,59.143969,-0.200565,0.269169,0.481697
1012,165.285725,41.809720,62.439918,-0.038087,0.272831,0.330816
1013,137.270161,43.640803,65.613794,-0.013428,0.115358,0.528450
1014,167.360952,44.434272,61.890593,0.045533,0.084230,0.676524
1015,188.113222,33.447776,58.228428,0.168338,0.174319,0.728893
1016,195.071336,16.418708,51.270314,0.289189,0.217655,0.903212
1017,211.917296,7.507439,39.429313,0.382574,0.219486,1.032120
1018,233.646143,9.704738,21.179522,0.431647,0.197269,1.046281
1019,245.365072,17.578393,2.990768,0.391119,0.146487,1.087053
1020,253.360800,22.888533,-11.718929,0.317876,0.038941,1.148455
1021,267.215991,26.733806,-22.095064,0.238407,-0.049073,1.257588
1022,278.385595,25.879301,-26.367590,0.142580,-0.125978,1.425559
1023,291.020066,23.193713,-26.062409,0.089235,-0.219120,1.545678
1024,307.255665,22.705425,-24.292363,0.185550,-0.305791,1.567407
1025,308.659495,22.644388,-29.724575,0.355718,-0.489143,1.626123
1026,315.861753,34.668498,-39.429313,0.332158,-0.595712,1.555566
1027,323.735409,38.208591,-49.866484,0.370001,-0.621225,1.458762
1028,308.964675,40.039673,-58.594644,0.434577,-0.703258,1.360494
1029,292.179751,44.251164,-66.834516,0.355230,-0.782238,1.339010
1030,279.240101,40.161746,-72.755016,0.240482,-0.846326,1.386496
1031,268.863966,33.813993,-75.562676,0.145632,-0.795422,1.438865
1032,263.859007,28.809033,-76.783398,0.097292,-0.722545,1.401755
1033,247.989624,29.907683,-76.600290,0.100221,-0.632212,1.481834
1034,227.847715,34.851606,-74.647135,0.094484,-0.599985,1.697292
1035,221.744106,39.734493,-73.487449,0.091188,-0.578012,1.999969
1036,226.626993,47.608148,-71.473259,0.090944,-0.576913,1.999969
1037,239.078355,57.251850,-67.994202,0.108034,-0.604990,1.999969
1038,249.637598,65.003433,-62.867170,0.114382,-0.664927,1.935332
1039,249.393454,66.712444,-55.848020,0.132082,-0.717418,1.688869
1040,240.482185,64.515145,-49.195087,0.138186,-0.786755,1.551537
1041,226.993210,64.454108,-44.068055,0.163088,-0.906874,1.511131
1042,213.260090,69.825284,-39.917601,0.166873,-1.070695,1.448386
1043,199.649043,77.271687,-35.950256,0.181399,-1.282734,1.314229
1044,179.324025,85.023270,-29.968719,0.203006,-1.582300,1.149798
1045,155.275807,89.845121,-19.592584,0.385870,-1.901640,1.001236
1046,121.217670,100.221256,-17.273213,0.668223,-2.000031,0.977798
1047,96.986343,123.903258,-29.663539,0.735241,-2.000031,0.852308
1048,93.995575,139.650568,-31.738766,0.580087,-2.000031,0.227298
1049,71.717403,114.869917,-23.926146,0.362310,-2.000031,-0.451301
1050,16.174563,43.030442,-0.610361,0.146853,-2.000031,-0.716320
1051,-42.847333,-38.391699,27.527276,0.050172,-1.754055,-0.272709
1052,-128.786145,-130.312047,20.752270,0.298833,-2.000031,-1.510765
1053,-255.863279,-172.182803,41.260395,0.449348,0.087404,1.351705
1054,-166.628519,-115.907530,9.704738,-0.173342,0.022339,1.999969
1055,-93.080034,-60.547799,7.629511,-0.805432,1.137957,1.714382
1056,-201.663233,-81.788357,41.077287,-0.815442,0.320317,-0.098146
1057,-293.461509,-92.591745,72.022583,-0.248051,-0.342046,-0.037354
1058,-297.856107,-78.614481,81.483177,0.647959,-0.413825,1.700587
1059,-276.066224,-54.932479,70.862898,1.717067,-0.054200,1.999969
1060,-203.372244,-9.704738,26.428626,1.629175,-0.244999,1.999969
1061,-133.058671,14.892805,-13.122759,0.155642,-0.147829,1.976959
1062,-161.257343,-3.601129,10.193027,-1.656519,-0.513802,1.999969
1063,-82.154574,-64.637217,43.396658,-1.146258,-0.494392,1.127947
1064,-56.031128,-116.700999,32.410163,1.029557,0.247929,1.999969
1065,-65.186542,-70.496681,18.127718,1.563012,0.004028,1.741360
1066,-46.021210,-12.268254,6.225681,-0.490974,0.031983,1.173236
1067,-57.434958,-47.791257,13.427939,-0.497688,-0.005127,1.136858
1068,-38.452735,-59.571221,-0.915541,0.713146,0.041505,1.459495
1069,-37.720302,-22.583352,-1.770047,0.137209,0.049317,1.274800
1070,-38.941024,-16.906996,0.488289,-0.125246,-0.149538,1.221088
1071,-4.943923,-20.752270,-4.455634,0.035035,0.056275,1.076188
1072,-16.968032,-14.343481,-2.868696,0.145876,0.084718,1.002457
1073,-26.550698,-7.446403,0.732433,-0.008423,-0.022217,1.093767
1074,-13.855192,-5.065995,1.159686,0.091676,0.010132,1.038712
1075,-18.371862,2.746624,4.821851,0.123171,0.065797,1.007462
1076,-21.362631,5.737392,7.385367,0.011963,0.026123,1.029313
1077,-18.310826,4.943923,6.836042,0.016724,0.036622,0.981582
1078,-24.048219,3.723201,7.507439,0.003296,0.006958,1.016373
1079,-21.911955,2.197299,6.347753,-0.013916,0.004028,0.990860
1080,-20.447089,0.793469,2.990768,0.008423,-0.016480,0.906264
1081,-28.686961,-2.136263,3.479057,-0.004517,-0.016602,1.027115
1082,-26.367590,-4.028382,3.479057,0.009155,-0.032349,1.035660
1083,-17.151141,-3.906310,2.197299,0.000122,-0.104494,0.999039
1084,-16.052491,-4.516670,2.563516,0.021485,-0.038331,1.032486
1085,-12.207218,-4.211490,1.892119,0.012451,-0.088746,0.974136
1086,-11.841001,-5.615320,2.563516,0.026856,0.008789,1.001480
1087,-12.695506,-7.141222,2.502480,0.007813,0.026123,0.994400
1088,-16.052491,-9.399557,2.197299,0.008423,0.006226,0.964126
1089,-18.616007,-10.681315,1.770047,0.015869,-0.014893,0.988174
1090,-18.921187,-10.070954,0.488289,0.021118,-0.034913,1.017105
1091,-17.273213,-8.911269,0.427253,0.026001,0.016480,1.037613
1092,-20.569162,-8.789197,0.976577,0.040650,-0.027710,0.999405
1093,-20.141909,-7.141222,0.427253,0.051270,-0.072511,0.987320
1094,-20.691234,-6.103609,0.671397,0.038941,-0.056886,1.036027
1095,-19.043259,-5.310140,0.976577,0.038087,-0.047852,1.031632
1096,-16.968032,-4.211490,1.098650,0.037232,-0.052735,1.022965
1097,-14.770733,-4.028382,0.976577,0.019043,-0.034302,1.014542
1098,-14.648661,-4.821851,0.915541,0.019532,-0.056153,0.996963
1099,-13.550011,-5.798428,0.183108,0.015625,-0.057740,0.990738
1100,-14.526589,-7.263294,0.061036,0.022217,-0.057130,0.983658
1101,-15.259022,-7.873655,0.000000,0.028077,-0.055421,0.996231
1102,-14.709697,-8.300908,0.061036,0.037354,-0.063111,0.984390
1103,-16.540780,-8.300908,0.671397,0.043824,-0.065187,0.968887
1104,-18.066682,-8.178836,1.342794,0.049805,-0.057374,1.016861
1105,-23.498894,-7.812619,1.586938,0.060060,-0.051881,0.998917
1106,-26.611734,-6.469825,1.586938,0.075563,-0.038087,1.109270
1107,-25.879301,-2.868696,0.732433,0.060548,-0.096559,1.036149
1108,-22.095064,-1.464866,0.549325,0.049561,-0.112428,1.012711
1109,-20.935378,-1.220722,0.732433,0.019043,-0.086793,0.983780
1110,-23.865110,-0.244144,0.305180,-0.020508,-0.129030,0.934951
1111,-24.170291,-3.418021,0.305180,0.028321,-0.038209,1.008682
1112,-30.457008,-4.211490,0.000000,0.037720,-0.027100,0.915785
1113,-41.870756,-2.014191,2.075227,0.089601,0.004273,0.898573
1114,-57.923247,-0.732433,4.821851,0.042969,-0.164187,1.008438
1115,-46.021210,0.854505,7.934691,0.059937,-0.154055,1.070451
1116,-39.673457,1.464866,9.704738,0.054200,-0.152102,1.056535
1117,-36.255436,2.258335,8.728161,0.032715,-0.159548,1.043107
1118,-24.353399,1.953155,5.554284,-0.014282,-0.121462,1.008316
1119,-21.118486,0.000000,-1.525902,-0.023804,-0.088624,0.972671
1120,-24.902724,-0.061036,-9.399557,0.027466,-0.092775,0.928115
1121,-38.818952,5.065995,-22.949569,0.001465,-0.126345,0.983780
1122,-43.701839,2.319371,-34.912642,-0.018799,-0.165286,0.994766
1123,-37.354086,-2.380407,-38.208591,0.109377,-0.305913,1.085344
1124,-16.906996,-4.150454,-24.353399,0.211551,-0.357305,1.078630
1125,-3.540093,0.671397,0.061036,0.131106,-0.183841,1.068620
1126,-14.099336,3.601129,5.249104,0.033448,0.041260,1.016373
1127,-56.519417,14.343481,-9.704738,0.114260,0.110475,1.041520
1128,-97.413596,24.536507,-11.474784,0.091676,0.273930,1.019547
1129,-137.697414,31.311513,-19.409476,-0.061036,0.504891,0.801038
1130,-193.057145,6.530861,-43.274586,-0.140749,0.374884,0.055421
1131,-219.668879,-34.180209,-3.662165,0.061402,1.033829,1.241474
1132,-407.171740,-41.504540,-39.429313,0.015137,0.955703,1.996612
1133,-559.273671,-90.211337,-46.570535,-0.633799,0.077516,1.261006
1134,-691.721981,-160.830091,13.305867,-0.226078,-0.170535,1.351217
1135,-797.375448,-191.165026,57.557031,0.018921,-0.057496,0.997330
1136,-887.464714,-184.695201,63.904784,0.341314,-0.512825,1.091691
1137,-1192.645152,-205.203326,189.150835,-0.523079,-1.219867,1.999969
1138,-449.713893,-80.628672,95.643549,-1.071672,-0.981338,1.999969
1139,271.671626,-29.602502,-70.862898,-0.336309,1.167864,1.999969
1140,314.030671,10.070954,-68.909743,-0.489265,1.576562,1.999969
1141,131.837949,2.197299,-58.045319,-0.456794,0.635874,1.767971
1142,21.240558,-37.415122,14.770733,-0.531136,0.436896,1.018936
1143,62.317845,-28.931106,24.231327,-0.280888,0.252689,0.720836
1144,165.651942,10.193027,3.601129,-0.304448,0.219242,0.429206
1145,156.557565,25.940337,4.577707,-0.181399,0.307378,0.183474
1146,101.686122,29.724575,12.512398,-0.179080,0.197513,0.314214
1147,110.475319,31.799802,13.855192,-0.145022,0.120974,0.531136
1148,141.420615,28.320745,12.268254,-0.096071,0.238407,0.670909
1149,142.336156,15.320058,13.855192,-0.049073,0.300664,0.911757
1150,155.397879,8.484016,11.963073,0.000000,0.286748,1.163836
1151,186.282139,12.268254,6.591897,0.018921,0.374029,1.410422
1152,206.179904,19.775692,-0.793469,0.039063,0.268193,1.493675
1153,232.181277,29.358358,-7.324331,0.021485,0.133181,1.557519
1154,260.502022,37.354086,-11.902037,-0.015259,0.010742,1.608667
1155,284.977493,45.471885,-13.244831,-0.042603,-0.129641,1.577050
1156,306.889448,53.101396,-12.146181,-0.033326,-0.231815,1.521630
1157,322.819867,61.158160,-9.460594,0.000122,-0.317876,1.423728
1158,330.632486,65.308614,-6.286717,0.036988,-0.385626,1.369162
1159,331.914244,63.599603,-2.990768,0.085451,-0.444465,1.383200
1160,334.355688,60.303655,-2.319371,0.131960,-0.500008,1.279194
1161,333.745327,61.158160,-6.164645,0.264042,-0.552865,0.999161
1162,305.851835,71.473259,-16.174563,0.415290,-0.669566,0.780041
1163,273.624781,92.042420,-27.161059,0.528084,-0.663951,0.701427
1164,233.279927,89.662013,-40.711070,0.494270,-0.570687,0.933486
1165,198.855573,65.980011,-50.354772,0.488655,-0.403082,1.700832
1166,190.859846,43.579767,-63.538567,0.464118,-0.369024,1.999969
1167,218.936446,44.495308,-78.736553,0.396002,-0.540047,1.999969
1168,270.695048,66.224155,-98.329137,0.311162,-0.787610,1.999969
1169,276.310369,91.004807,-107.301442,0.137819,-0.919326,1.999969
1170,247.074083,98.695354,-102.723735,-0.066041,-1.057389,1.999969
1171,248.111696,93.629358,-90.821698,-0.134646,-1.116838,1.999969
1172,264.774548,89.173724,-77.637903,-0.047608,-1.106218,1.999969
1173,274.784466,92.042420,-65.980011,0.101198,-1.144671,1.999969
1174,272.648203,99.794003,-56.580453,0.204715,-1.265400,1.735012
1175,261.173419,100.282292,-47.669184,0.151003,-1.464988,1.446921
1176,242.557412,94.911116,-34.729534,0.051637,-1.713405,1.235126
1177,219.974060,85.999847,-17.944610,0.033570,-2.000031,1.126482
1178,191.165026,80.201419,-1.709010,0.194827,-2.000031,1.026383
1179,160.341802,86.182956,9.399557,0.391485,-2.000031,0.670787
1180,135.683223,106.630045,9.948882,0.493172,-2.000031,-0.132692
1181,108.400092,110.902571,4.577707,0.395392,-2.000031,-0.887465
1182,36.377508,64.881361,28.870069,0.291508,-2.000031,-1.239765
1183,-58.106355,-20.752270,63.660639,0.214603,-2.000031,-0.393317
1184,-101.136797,-90.516518,88.197147,0.414313,-2.000031,-2.000031
1185,-238.895247,-194.338903,86.121920,1.010025,-0.412970,0.632944
1186,-153.383688,-171.023117,42.053864,0.651377,-0.428595,1.999969
1187,-58.106355,-78.919661,29.480430,-0.125246,1.499779,1.999969
1188,-162.722210,-91.126879,38.086519,-0.357671,0.797498,-0.109255
1189,-320.378424,-107.545586,68.055238,0.190799,-0.483284,-0.836683
1190,-340.825513,-101.197833,73.304341,0.912367,-0.492683,1.732326
1191,-330.937667,-75.501640,60.242618,1.540063,-0.238407,1.999969
1192,-181.338216,-5.737392,13.183795,1.048844,-0.519783,1.999969
1193,-116.762036,18.860151,-8.361944,-0.265995,-0.011109,1.694240
1194,-193.606470,-19.897765,34.363317,-1.287984,-0.604623,1.999969
1195,-66.346227,-68.055238,41.504540,-0.312505,-0.398199,1.528222
1196,-42.908370,-81.544213,24.597543,1.163470,0.243656,1.999969
1197,-45.349813,-25.635157,9.277485,0.850355,-0.010132,1.682155
1198,-28.198672,2.441444,8.300908,-0.651499,-0.019165,0.940322
1199,-37.415122,-38.574807,11.291676,-0.196658,0.069825,1.008438
1200,-33.264668,-36.804761,0.000000,0.602670,0.167971,1.395895
1201,-41.443503,-4.089418,2.380407,0.013428,0.021241,1.193500
1202,-29.297322,-4.272526,2.136263,-0.141360,-0.001099,1.143328
1203,-22.278172,-7.751583,1.342794,0.115724,-0.012451,1.164569
1204,-12.817578,1.525902,1.464866,0.005859,0.019898,1.089738
1205,-11.352712,1.281758,1.525902,-0.076417,0.021851,0.971206
1206,-12.573434,-1.037613,2.380407,0.047364,0.067750,1.001236
1207,-17.822538,4.272526,2.380407,0.038575,0.006836,0.941909
1208,-18.616007,3.723201,4.577707,-0.024537,0.017700,1.007950
1209,-16.784924,2.685588,4.211490,0.010864,0.038941,1.028092
1210,-17.029068,3.601129,4.028382,0.002564,0.031617,1.037369
1211,-13.916228,2.868696,3.784237,0.008545,0.014649,1.056168
1212,-10.315099,3.845274,2.990768,-0.011597,0.020386,1.034684
1213,-8.545052,3.418021,2.929732,-0.030030,0.010254,1.005386
1214,-7.812619,2.868696,2.990768,-0.015625,0.020874,0.994034
1215,-7.446403,2.380407,3.051804,-0.040650,0.026368,0.988418
1216,-8.484016,0.854505,2.746624,-0.039551,0.019654,0.967178
1217,-8.850233,-1.037613,2.380407,-0.037598,0.021607,0.948501
1218,-10.681315,-3.418021,2.136263,-0.041505,0.031983,0.944106
1219,-13.122759,-3.356985,-1.342794,0.002319,-0.179934,0.776867
1220,-14.221408,-6.775006,0.549325,-0.037110,0.014282,1.042741
1221,-17.883574,-8.728161,2.197299,-0.022095,-0.022461,0.979507
1222,-14.282444,-8.422980,1.709010,-0.016846,0.002441,1.016983
1223,-16.845960,-6.469825,0.061036,0.048707,-0.186160,0.845106
1224,-10.986496,-6.713970,1.220722,-0.026856,0.003418,1.071427
1225,-14.831769,-7.995727,2.319371,-0.025025,-0.001953,0.932876
1226,-16.906996,-9.887846,2.685588,-0.029297,0.016602,0.935195
1227,-21.972992,-11.841001,2.502480,-0.025635,-0.004150,0.991592
1228,-20.691234,-12.878614,2.441444,-0.005493,-0.029175,0.949966
1229,-21.484703,-13.916228,2.014191,-0.032593,0.023072,1.017960
1230,-22.583352,-12.817578,-0.183108,0.123293,-0.142458,0.736584
1231,-16.968032,-13.305867,-0.183108,0.001709,-0.017823,1.116716
1232,-21.606775,-12.878614,1.037613,0.010864,-0.040406,0.989517
1233,-18.799115,-12.451362,1.159686,0.023804,-0.040284,0.985977
1234,-19.775692,-11.352712,1.342794,0.027344,-0.034180,0.997452
1235,-21.789883,-11.657893,2.136263,0.009766,-0.052003,1.026017
1236,-19.470512,-10.925460,2.136263,0.007691,-0.047242,0.994278
1237,-19.958801,-11.657893,2.014191,-0.000122,-0.017334,0.980728
1238,-23.804074,-12.207218,2.014191,-0.002564,-0.011841,0.975113
1239,-26.001373,-13.122759,1.037613,-0.009644,-0.020264,0.951186
1240,-29.480430,-14.831769,0.122072,0.003418,-0.003906,0.974502
1241,-35.523003,-16.174563,-0.610361,0.008179,-0.046509,0.977066
1242,-32.166018,-14.892805,-1.525902,0.047242,-0.034180,0.986465
1243,-36.011292,-14.404517,-1.953155,-0.000244,-0.069825,0.979507
1244,-36.255436,-15.503166,0.183108,0.048219,-0.069947,1.038712
1245,-33.447776,-14.160372,1.342794,0.018921,-0.083131,0.962295
1246,-38.818952,-11.535821,5.371176,0.113405,-0.073732,1.134417
1247,-37.415122,-3.112840,11.413748,0.090089,-0.077638,1.083024
1248,-43.701839,-0.976577,13.305867,0.034791,-0.092653,1.016373
1249,-40.650034,1.953155,11.963073,0.041871,-0.042725,0.992935
1250,-52.246891,1.831083,9.521630,-0.042725,-0.126101,1.082658
1251,-59.205005,0.183108,8.239872,0.012818,-0.061036,0.939467
1252,-53.650721,0.366217,2.014191,-0.032227,-0.078859,1.001602
1253,-56.458381,-1.525902,-5.981537,-0.055299,-0.088502,1.055192
1254,-48.584726,-3.173877,-17.273213,-0.020752,-0.259281,1.018326
1255,-57.557031,5.615320,-34.790570,-0.002930,-0.048341,1.071183
1256,-57.801175,8.545052,-47.425040,0.085451,-0.393927,1.044572
1257,-37.354086,-1.709010,-23.743038,0.215335,-0.432624,1.009415
1258,-3.234913,-4.089418,5.493248,0.077516,-0.049928,1.029923
1259,-33.630884,0.732433,-4.760815,-0.052369,0.261723,0.989517
1260,-114.259556,12.024109,-23.498894,0.142336,0.255985,0.956924
1261,-158.144503,22.827497,-16.845960,-0.043580,0.265751,0.931411
1262,-221.194781,4.028382,-33.630884,-0.191531,0.467414,-0.103639
1263,-241.580835,-44.251164,8.606088,0.067872,0.923232,1.068864
1264,-461.432822,-44.373236,-29.419394,0.354253,0.985733,1.607080
1265,-641.977569,-111.268788,-23.682002,-0.831678,-0.222171,1.845975
1266,-757.213703,-186.709392,52.735180,-0.172366,-0.101320,1.089738
1267,-838.941024,-211.551080,83.436332,0.029664,-0.150637,0.774426
1268,-928.480964,-211.429007,88.807507,0.702403,-2.000031,1.393454
1269,-1080.094606,-192.019532,241.275654,0.360357,-1.811429,1.999969
1270,-321.416037,-119.264515,-28.931106,0.133669,-1.749538,1.999969
1271,176.516365,-88.014038,-74.341955,0.300908,1.216938,1.999969
1272,163.881895,-34.912642,-95.216297,0.203616,1.945830,1.999969
1273,42.847333,-0.610361,-83.070115,-0.349981,0.909682,1.999969
1274,71.595331,-2.441444,-59.693294,-0.567514,0.333867,1.999969
1275,214.419776,54.200046,-64.576181,-0.578866,0.066041,1.171771
1276,262.027924,62.928206,-49.866484,-0.600351,0.107790,0.283696
1277,206.546120,50.965133,-22.827497,-0.594369,0.027344,0.004883
1278,175.356680,34.668498,3.418021,-0.597543,-0.112306,0.187259
1279,195.559625,18.799115,21.911955,-0.560922,-0.144289,0.271122
1280,198.184176,2.685588,40.405890,-0.427131,-0.025757,0.411261
1281,188.174258,-7.019150,53.040360,-0.254887,0.029541,0.770153
1282,203.006027,-4.333562,54.444190,-0.074464,0.125490,1.189105
1283,225.650416,9.033341,48.401617,0.066529,0.225956,1.486351
1284,243.472953,27.832456,35.645075,0.143557,0.143069,1.685328
1285,275.944152,47.913329,23.498894,0.175174,0.040162,1.683497
1286,307.804990,59.998474,14.648661,0.197513,-0.020752,1.593042
1287,326.726177,64.759289,8.728161,0.260990,-0.091066,1.553735
1288,337.590600,65.918975,3.784237,0.329961,-0.241215,1.637720
1289,355.474174,64.637217,-1.953155,0.397467,-0.325811,1.631739
1290,373.601892,61.768521,-12.024109,0.462654,-0.454597,1.404440
1291,372.381170,61.524376,-24.475471,0.501228,-0.639292,0.870130
1292,347.661555,73.731594,-39.917601,0.629160,-0.857923,0.353521
1293,304.875258,82.520790,-43.030442,0.547616,-0.623056,0.400153
1294,246.585794,43.945983,-50.415808,0.616098,-0.479866,0.941421
1295,232.059205,11.047532,-65.125505,0.626719,-0.300175,1.813016
1296,231.692988,8.606088,-86.671244,0.567880,-0.285771,1.999969
1297,234.805829,40.344854,-104.066529,0.385260,-0.489387,1.999969
1298,260.013733,69.459068,-114.564736,0.124025,-0.699351,1.999969
1299,292.118715,79.041733,-111.696040,-0.101076,-0.882948,1.999969
1300,328.984512,75.074388,-100.831617,-0.151736,-1.074601,1.999969
1301,354.375525,83.802548,-88.685435,0.028809,-1.133928,1.999969
1302,338.689250,105.897612,-78.919661,0.217411,-1.161883,1.811307
1303,302.861067,120.729381,-70.069429,0.380865,-1.206928,1.683131
1304,282.230869,121.889067,-63.965820,0.495979,-1.291890,1.782254
1305,267.215991,113.954376,-58.533608,0.558114,-1.552148,1.681788
1306,248.416876,103.883421,-54.261082,0.713878,-2.000031,1.437034
1307,209.353780,102.845808,-59.571221,0.922011,-2.000031,1.191180
1308,157.106889,126.405737,-68.299382,1.023331,-2.000031,0.591073
1309,124.391547,171.999695,-92.286564,0.700206,-2.000031,-0.329961
1310,139.589532,174.990463,-84.168765,0.137453,-2.000031,-1.531762
1311,42.908370,74.158846,-42.175937,-0.329473,-2.000031,-1.879301
1312,-84.351873,-67.322805,38.574807,-0.643687,-2.000031,-0.764904
1313,-218.997482,-223.147936,80.262455,0.437140,-2.000031,-0.524910
1314,-293.644617,-259.098192,88.624399,1.146014,-0.340948,1.970733
1315,-144.411383,-125.795377,41.992828,0.311040,0.328130,1.999969
1316,-118.898299,-93.995575,38.452735,-0.151369,0.966690,1.521996
1317,-207.583734,-115.724422,64.026856,0.296025,0.301640,-0.301030
1318,-309.330892,-99.000534,61.890593,0.642710,-0.389532,-0.256352
1319,-374.456397,-99.183642,73.182269,0.837537,-0.194095,1.999969
1320,-344.914931,-71.473259,55.970092,1.485496,-0.426520,1.999969
1321,-175.844968,7.873655,8.361944,0.397711,-0.662242,1.999969
1322,-101.808194,-17.456321,6.713970,-1.113298,0.025879,1.999969
1323,-158.327611,-69.886320,39.368276,-0.909071,-0.396735,1.999969
1324,-28.625925,-110.048066,25.024796,1.446555,-0.043091,1.999969
1325,-15.747311,-26.123445,-7.995727,1.451316,0.146853,1.616114
1326,-53.772793,32.227054,2.075227,-0.560555,0.041871,0.984756
1327,-63.233387,-8.728161,15.625238,-0.511116,-0.069093,1.147967
1328,-33.447776,-20.508125,3.601129,0.604868,0.078859,1.298848
1329,-40.955215,8.972305,0.000000,0.054200,0.036500,1.209857
1330,-37.598230,3.295949,2.868696,-0.270756,-0.069581,0.969497
1331,-25.207904,-7.995727,0.549325,0.190066,0.019776,1.146014
1332,-26.672770,2.014191,1.586938,-0.045167,-0.065797,1.129168
1333,-16.540780,-1.403830,2.685588,-0.026856,-0.037964,1.075090
1334,-8.789197,-0.915541,2.014191,0.058839,0.027100,1.037736
1335,-11.779965,0.793469,2.380407,-0.054810,0.001221,0.965347
1336,-10.437171,-2.258335,2.929732,0.031373,0.004150,1.035538
1337,-8.545052,0.244144,2.685588,0.012451,0.000488,0.995987
1338,-9.155413,0.366217,3.906310,-0.017090,0.002808,1.000259
1339,-7.873655,-0.732433,4.089418,0.008789,0.052613,0.998550
1340,-10.803388,-1.647974,5.127031,-0.020996,0.014771,0.976089
1341,-11.169604,-3.173877,5.127031,-0.033448,0.018555,1.008072
1342,-11.169604,-5.004959,4.760815,-0.020264,-0.003296,0.995377
1343,-9.826810,-6.591897,3.723201,-0.025635,-0.004028,0.968276
1344,-12.085145,-7.446403,2.563516,-0.090089,0.229374,1.358907
1345,-8.667124,-9.887846,3.356985,0.002075,0.000610,0.959854
1346,-13.550011,-12.268254,1.892119,-0.002930,-0.015015,0.953628
1347,-12.634470,-12.146181,0.671397,0.002319,-0.010132,1.019791
1348,-11.535821,-12.329290,0.366217,0.006958,-0.010986,0.986343
1349,-13.122759,-12.024109,0.854505,0.001831,-0.011231,0.993057
1350,-9.216449,-13.366903,-0.122072,-0.034058,0.057862,1.024430
1351,-12.512398,-12.451362,0.671397,0.018555,-0.017456,0.994278
1352,-13.916228,-12.024109,1.525902,-0.010254,-0.017456,1.050919
1353,-10.864424,-11.657893,1.831083,0.010376,0.014649,0.988052
1354,-13.061723,-11.841001,1.709010,0.000732,-0.022827,0.992569
1355,-14.526589,-12.573434,1.586938,-0.007568,-0.018677,0.966079
1356,-14.404517,-14.038300,0.732433,-0.001099,-0.002930,0.953506
1357,-16.479744,-15.686275,1.342794,0.021607,-0.017212,1.000381
1358,-15.625238,-14.953841,0.549325,0.027344,-0.033326,1.046036
1359,-13.977264,-13.305867,0.366217,0.028443,-0.026246,1.005509
1360,-14.404517,-12.634470,-0.366217,0.018311,0.015137,0.992569
1361,-17.395285,-12.512398,-0.122072,0.042969,-0.015869,0.994522
1362,-19.348440,-11.657893,-0.366217,0.040284,-0.039185,1.017838
1363,-20.263981,-10.437171,-0.488289,0.051270,-0.040528,1.003311
1364,-22.705425,-9.582666,0.366217,0.048341,-0.037720,0.992203
1365,-25.207904,-8.606088,0.671397,0.042847,-0.060182,1.029801
1366,-22.766461,-7.080186,1.525902,0.040894,-0.071901,1.002823
1367,-19.592584,-5.798428,2.563516,0.041505,-0.048707,0.992935
1368,-22.827497,-5.188067,2.807660,0.026734,-0.032105,0.974258
1369,-27.588312,-5.981537,3.356985,0.036500,-0.027710,0.988540
1370,-26.367590,-5.432212,2.929732,0.022583,-0.035889,1.027237
1371,-29.175250,-5.310140,2.258335,0.052369,-0.041260,0.961807
1372,-33.752956,-6.286717,2.136263,0.011597,-0.071290,0.984024
1373,-35.034714,-7.202258,2.197299,0.063233,-0.049195,1.097063
1374,-38.452735,-4.211490,1.831083,0.030030,-0.085695,0.854383
1375,-35.889220,-4.577707,4.577707,0.104738,-0.067018,0.975967
1376,-40.466926,1.159686,8.728161,0.016602,-0.045899,1.016373
1377,-53.528649,-0.183108,11.169604,0.067262,-0.115480,1.013809
1378,-47.302968,2.624552,9.521630,0.023682,-0.076417,1.005509
1379,-54.139010,1.464866,6.897078,0.026123,-0.072511,1.013565
1380,-58.411536,1.037613,3.418021,0.006592,-0.114382,1.019669
1381,-56.153201,0.915541,-2.075227,0.022339,-0.131228,1.067277
1382,-37.232013,1.342794,-5.310140,-0.032959,-0.143435,1.019669
1383,-29.419394,3.845274,-15.625238,-0.025391,-0.148562,0.940688
1384,-43.701839,4.699779,-21.545739,0.010010,-0.155642,1.067643
1385,-53.284504,5.188067,-37.048905,0.000244,-0.224491,1.048356
1386,-42.114900,-1.098650,-34.546426,0.158816,-0.374762,1.026139
1387,-19.104295,-0.061036,-12.268254,0.202152,-0.265507,1.101335
1388,-22.339208,2.319371,0.488289,0.059693,0.149783,1.014664
1389,-76.783398,14.587625,-21.179522,0.076661,0.263310,0.920424
1390,-132.692454,23.743038,-34.851606,0.135622,0.153201,0.995377
1391,-178.408484,21.545739,-32.898451,-0.163943,0.513436,0.422614
1392,-171.023117,-36.743725,-12.146181,-0.410285,0.372808,0.847669
1393,-288.517586,-47.730220,-38.086519,-0.013306,1.091814,1.245380
1394,-482.917525,-93.385214,-68.909743,-0.309331,-0.049683,0.717052
1395,-606.454566,-203.555352,20.630198,-0.308843,0.066407,1.478660
1396,-738.048371,-308.964675,45.288777,0.018555,-0.034424,0.810193
1397,-828.198673,-285.893034,88.624399,0.382940,-0.073243,0.812146
1398,-1032.547494,-284.428168,155.214771,1.040787,-2.000031,1.999969
1399,-643.869688,-135.133898,187.319753,-0.777234,-0.230350,1.999969
1400,132.387274,-52.307927,-69.092851,-0.203128,0.305180,1.999969
1401,339.787900,40.100710,-47.852293,-0.628305,1.252949,1.999969
1402,200.503548,32.898451,-58.289464,-0.726574,0.689464,1.802762
1403,76.295109,6.469825,31.067369,-0.823011,0.643198,0.751232
1404,52.552071,-10.864424,58.594644,-0.469490,0.207156,0.439094
1405,128.725109,15.747311,42.175937,-0.366583,0.032837,0.378058
1406,161.379416,29.297322,44.190127,-0.314458,0.231449,0.203006
1407,115.846494,24.963760,52.857252,-0.263920,0.194949,0.378912
1408,116.395819,22.339208,57.312886,-0.243656,0.106447,0.750500
1409,154.360266,23.682002,55.970092,-0.119875,0.186526,0.895155
1410,167.483024,22.888533,53.345541,0.036744,0.276493,1.111467
1411,178.286412,25.146868,46.448463,0.162234,0.248783,1.325948
1412,207.766842,33.691920,33.081559,0.227176,0.215579,1.395529
1413,234.805829,41.321431,17.883574,0.278569,0.165164,1.302510
1414,248.172732,47.058824,3.051804,0.358526,0.078004,1.308125
1415,259.159228,55.542840,-12.390326,0.438483,-0.004761,1.335836
1416,269.901579,66.956588,-30.151827,0.494759,-0.120485,1.385397
1417,282.963302,77.027543,-46.570535,0.498421,-0.253788,1.337301
1418,291.203174,79.285878,-58.411536,0.388190,-0.379278,1.253315
1419,293.034257,72.449836,-63.477531,0.334600,-0.446784,1.263325
1420,289.799344,62.928206,-66.041047,0.335943,-0.505745,1.361471
1421,286.808576,59.510185,-68.299382,0.350225,-0.594247,1.467674
1422,285.648890,61.036088,-70.740826,0.315435,-0.686046,1.509545
1423,284.489204,61.768521,-72.510872,0.244144,-0.769177,1.495628
1424,283.939879,61.158160,-71.534295,0.164431,-0.796155,1.447898
1425,276.920729,56.702525,-67.933165,0.083497,-0.796521,1.407736
1426,264.957656,54.444190,-62.500954,0.000977,-0.785290,1.387472
1427,255.313954,55.725948,-56.885634,-0.026612,-0.765393,1.344381
1428,241.397726,64.026856,-52.246891,-0.041016,-0.715709,1.315206
1429,219.729915,72.571908,-47.791257,-0.000855,-0.665660,1.438376
1430,203.433280,81.910430,-44.556344,0.028321,-0.649546,1.683742
1431,195.986877,87.159533,-40.955215,0.044312,-0.650523,1.935454
1432,199.588006,89.356832,-37.170977,0.059815,-0.687144,1.999969
1433,211.306935,92.286564,-33.264668,0.123903,-0.728405,1.999969
1434,220.706493,98.023957,-30.273899,0.198734,-0.759777,1.797391
1435,215.579461,98.329137,-26.611734,0.168338,-0.870008,1.527977
1436,201.846342,91.981384,-20.447089,0.143923,-1.024308,1.345968
1437,189.944305,84.657053,-13.183795,0.075441,-1.156634,1.223651
1438,171.206226,77.698940,-4.150454,0.053834,-1.331685,1.172869
1439,151.491569,73.243305,8.178836,0.055177,-1.535668,1.207050
1440,136.415656,69.214923,21.057450,0.164431,-1.791287,1.108293
1441,119.813840,66.773480,28.686961,0.342535,-2.000031,0.980240
1442,98.817426,73.792630,26.367590,0.572885,-2.000031,0.752331
1443,83.619440,90.394446,21.179522,0.562142,-2.000031,0.261112
1444,59.693294,86.243992,20.813306,0.399786,-2.000031,-0.246342
1445,8.728161,40.527962,37.476158,0.236820,-1.899565,-0.479011
1446,-66.529335,-37.842374,54.749371,0.046143,-2.000031,-2.000031
1447,-216.678111,-202.029450,98.390173,0.782727,-1.173968,-1.002335
1448,-166.384375,-194.583047,59.143969,0.953017,-0.283452,1.236713
1449,-120.363165,-91.737240,32.410163,0.020264,1.244648,1.999969
1450,-200.381476,-88.014038,48.584726,-0.179446,0.834119,0.880385
1451,-330.693523,-130.495155,68.848707,0.224979,-0.320317,0.554086
1452,-300.541695,-98.451209,68.055238,0.599008,-0.591928,1.208392
1453,-251.468681,-82.581827,53.284504,1.297261,-0.140139,1.999969
1454,-251.285573,-45.654994,30.395972,1.112566,-0.307866,1.999969
1455,-160.219730,0.061036,7.141222,0.014649,-0.415656,1.931792
1456,-159.304189,-44.068055,23.743038,-0.913588,-0.314458,1.999969
1457,-103.883421,-70.374609,30.273899,0.034302,-0.537118,1.999969
1458,2.929732,-51.758602,8.056764,0.962417,0.198611,1.728908
1459,-40.650034,-16.723888,5.065995,0.239872,0.098390,1.084367
1460,-72.816052,-16.052491,12.939651,-0.289067,-0.067384,1.143694
1461,-40.466926,-30.090791,5.920500,0.067628,-0.069093,1.301411
1462,-19.897765,-21.240558,-0.610361,0.276493,0.133059,1.262715
1463,-32.471199,-10.986496,-1.525902,0.012207,-0.001831,1.079362
1464,-23.743038,-10.925460,-2.685588,0.016480,-0.032715,1.106096
1465,-15.747311,-8.422980,-3.173877,0.087892,0.012329,1.057267
1466,-20.202945,-3.479057,-1.342794,0.048585,-0.028809,1.093645
1467,-12.512398,0.732433,-0.122072,0.054444,-0.025757,1.110124
1468,-6.897078,4.333562,1.098650,0.064820,-0.003052,1.027237
1469,-8.850233,7.446403,2.685588,0.040772,0.009155,1.014420
1470,-9.338521,9.460594,4.028382,0.037598,0.019532,1.002823
1471,-11.963073,10.681315,4.577707,0.026368,0.035889,0.953506
1472,-14.709697,10.131991,5.127031,0.015625,0.014527,1.002335
1473,-13.916228,10.131991,4.272526,-0.023316,0.007935,0.967544
1474,-16.601816,8.117800,3.723201,0.000732,0.027222,0.970352
1475,-21.057450,6.775006,3.356985,-0.019409,-0.002319,0.984512
1476,-20.935378,5.981537,3.051804,0.001465,-0.019898,1.019059
1477,-19.531548,5.859464,2.990768,0.000000,-0.043214,1.040055
1478,-15.136950,6.408789,2.990768,0.011841,-0.043458,1.036027
1479,-12.512398,6.836042,3.051804,-0.003784,-0.038087,1.024796
1480,-12.268254,6.652934,3.051804,-0.014282,-0.017090,1.000748
1481,-12.085145,5.310140,2.380407,-0.023560,-0.007324,0.972305
1482,-13.794156,3.601129,1.831083,-0.028687,-0.013672,0.964858
1483,-15.442130,1.281758,1.220722,-0.022461,-0.010498,0.976455
1484,-19.409476,-0.061036,0.854505,-0.121584,0.067262,1.313375
1485,-12.573434,-0.427253,1.464866,0.003662,-0.062501,1.023331
1486,-16.601816,-1.525902,1.159686,-0.014038,-0.060670,0.950576
1487,-14.770733,-1.831083,0.854505,-0.010376,-0.062257,1.005386
1488,-13.183795,-2.258335,0.854505,-0.009277,-0.053834,1.029191
1489,-12.085145,-2.441444,1.220722,-0.020996,-0.067872,1.036759
1490,-7.446403,-3.356985,0.976577,-0.031250,-0.063111,0.998062
1491,-5.310140,-5.249104,0.671397,-0.028199,-0.036988,0.967178
1492,-7.385367,-8.484016,0.305180,-0.047730,-0.036011,0.924453
1493,-9.521630,-13.000687,0.427253,-0.034424,-0.026612,0.945205
1494,-12.329290,-16.479744,-0.427253,-0.023926,-0.038209,0.976455
1495,-10.620279,-18.677043,-2.441444,0.009766,-0.010864,1.008072
1496,-10.315099,-15.869383,-1.770047,0.010986,-0.061402,1.026017
1497,-12.024109,-13.977264,-0.244144,0.045533,-0.051270,1.059342
1498,-9.399557,-11.352712,0.000000,0.014771,-0.050660,1.020279
1499,-10.925460,-10.559243,0.549325,0.027466,-0.053101,1.009781
1500,-11.108568,-9.216449,0.366217,0.005859,-0.057984,0.999649
1501,-11.047532,-8.728161,0.000000,0.008179,-0.052613,1.006729
1502,-13.000687,-8.361944,0.122072,0.015747,-0.038697,0.984390
1503,-13.611048,-8.545052,-0.488289,0.000244,-0.050538,0.950088
1504,-17.273213,-9.765774,-0.488289,0.002930,-0.026001,0.947036
1505,-20.752270,-11.047532,-0.854505,-0.003906,-0.029541,0.948135
1506,-24.902724,-12.451362,-1.098650,0.020752,-0.057008,0.978408
1507,-25.452049,-12.024109,-0.549325,0.029664,-0.058228,0.993179
1508,-27.038987,-12.085145,-0.183108,0.030030,-0.113893,0.976577
1509,-25.207904,-11.169604,-0.549325,0.053956,-0.072877,1.017350
1510,-27.710384,-8.850233,-0.549325,0.071168,-0.042603,1.085344
1511,-27.222095,-4.943923,-0.183108,0.051270,-0.090211,0.974014
1512,-33.264668,-1.403830,2.746624,0.073854,-0.104616,1.046159
1513,-34.790570,0.366217,5.798428,0.035523,-0.149660,1.028946
1514,-26.977951,2.868696,6.897078,0.061891,-0.073976,0.983658
1515,-38.696880,4.638743,7.934691,0.014527,-0.078614,0.982315
1516,-44.007019,3.540093,8.056764,0.025879,-0.112673,1.008560
1517,-39.307240,3.845274,5.432212,-0.004761,-0.097169,1.038590
1518,-38.147555,3.845274,2.441444,-0.001099,-0.089235,0.993423
1519,-41.077287,1.464866,-1.647974,-0.035279,-0.097902,1.011246
1520,-39.551385,0.061036,-7.507439,-0.007691,-0.159426,1.002457
1521,-43.274586,0.366217,-15.625238,-0.027588,-0.135256,0.998795
1522,-50.110628,6.042573,-37.293050,-0.009033,-0.242069,1.095598
1523,-51.026169,7.080186,-40.161746,0.103273,-0.389899,1.062394
1524,-28.076600,-0.854505,-16.968032,0.152956,-0.293706,1.021500
1525,-16.845960,-2.258335,-4.943923,0.028565,-0.018067,0.952407
1526,-41.687648,1.953155,-15.136950,0.026734,0.189456,1.021988
1527,-99.549859,12.451362,-29.846647,0.135378,0.190433,0.913222
1528,-139.955749,21.545739,-26.672770,0.046021,0.215457,0.662242
1529,-149.355306,-1.770047,-29.541466,-0.096315,0.253178,0.796399
1530,-179.446098,-21.972992,-29.419394,0.175540,0.757580,0.798718
1531,-376.348516,-15.197986,-63.843748,0.075441,0.755261,1.606348
1532,-569.222553,-43.640803,-13.794156,-0.703380,-0.114748,1.302266
1533,-649.423972,-142.275120,37.293050,-0.518441,-0.284550,1.193744
1534,-706.981003,-205.935760,72.693980,-0.049317,-0.253788,0.816907
1535,-773.083085,-235.477226,81.483177,0.200320,-0.440070,0.815686
1536,-961.928740,-277.042802,165.407797,0.217533,-1.796780,1.999969
1537,-523.689632,-198.550393,159.304189,-0.678965,-0.324956,1.999969
1538,143.251698,-117.311360,-35.828183,0.185550,0.726940,1.999969
1539,299.565118,-7.934691,-42.725261,-0.119265,1.270161,1.999969
1540,145.265888,49.256123,-63.233387,-0.387823,0.700572,1.858305
1541,41.077287,22.400244,2.197299,-0.664927,0.476081,0.952163
1542,71.595331,23.620966,20.935378,-0.502327,0.202762,0.532113
1543,158.937972,30.945296,18.554971,-0.481331,0.104128,0.267948
1544,147.402152,19.226368,33.264668,-0.307134,0.200443,0.113893
1545,110.780499,4.882887,45.716030,-0.204227,0.161868,0.450324
1546,134.767681,3.418021,45.716030,-0.010742,0.226078,0.727794
1547,166.811627,11.718929,34.180209,0.176516,0.395514,0.956313
1548,174.380102,19.409476,21.850919,0.317876,0.476204,1.274556
1549,201.602197,29.297322,3.723201,0.452399,0.453498,1.485618
1550,244.754711,41.260395,-18.432898,0.547738,0.427741,1.473045
1551,268.436713,49.073014,-42.969406,0.850843,0.286625,1.394430
1552,279.301137,68.909743,-78.187228,0.811902,-0.112673,1.419821
1553,303.532464,90.089265,-103.761349,0.626108,-0.359136,1.156878
1554,314.641032,85.389487,-119.020371,0.581308,-0.527840,1.005509
1555,313.298238,68.238346,-127.138170,0.482673,-0.680308,0.766613
1556,307.560845,43.518730,-131.715877,0.416266,-0.803479,0.496834
1557,282.352941,22.461280,-137.575341,0.416144,-0.978408,0.204593
1558,238.651102,24.353399,-138.612955,0.255863,-1.011856,0.357794
1559,190.920882,30.518044,-133.119707,-0.051759,-0.963882,0.758312
1560,166.323339,33.325704,-120.485237,-0.364263,-0.917250,1.313985
1561,161.684596,39.917601,-98.146029,-0.662608,-0.830945,1.911650
1562,167.666133,53.223468,-64.698253,-0.812879,-0.834241,1.999969
1563,193.911650,70.923934,-30.212863,-0.800061,-0.974624,1.999969
1564,217.532616,93.873503,3.662165,-0.681041,-1.011490,1.923247
1565,212.832837,110.902571,35.400931,-0.507210,-0.992691,1.766262
1566,210.208286,113.160906,62.439918,-0.318242,-0.967910,1.831693
1567,224.429694,112.123293,82.215610,-0.133547,-1.012467,1.438376
1568,219.974060,121.889067,92.896925,0.156741,-1.029923,0.740856
1569,172.182803,124.208438,101.380941,0.360601,-0.905531,0.726452
1570,128.786145,101.869230,101.686122,0.518929,-0.829480,1.328389
1571,136.476692,96.925307,90.943771,0.850843,-0.731456,1.527611
1572,140.199893,117.250324,65.064469,0.980850,-0.640269,1.278218
1573,111.451896,123.781186,44.556344,0.738537,-0.713146,1.138933
1574,99.916075,106.630045,31.616693,0.453132,-0.830335,1.093034
1575,101.747158,76.234073,25.268940,0.205203,-0.837781,1.158587
1576,94.666972,46.265354,26.672770,0.077882,-0.861463,1.303243
1577,101.441978,28.809033,28.442817,0.023560,-0.888441,1.418601
1578,110.109102,12.390326,31.616693,0.033814,-0.891981,1.503685
1579,124.391547,-0.610361,34.485389,0.047120,-0.945937,1.337789
1580,136.659800,-9.582666,35.767147,0.082765,-0.988540,1.045182
1581,125.978485,-9.582666,37.598230,0.075074,-1.054093,0.839246
1582,113.038834,-8.056764,37.476158,0.074098,-1.127337,0.678965
1583,101.380941,-5.493248,34.729534,0.087526,-1.151995,0.544930
1584,83.863584,-1.709010,29.907683,0.100221,-1.152728,0.510262
1585,28.809033,-4.577707,19.348440,0.211307,-1.990387,-1.428977
1586,-101.075761,-25.879301,29.785611,0.076173,-1.503441,-0.770397
1587,-152.224002,-45.777066,30.640116,0.337530,-2.000031,-1.372580
1588,-142.214084,-45.044633,18.799115,0.277348,-0.343877,0.025757
1589,-120.973526,-39.124132,-11.779965,-0.026246,0.816785,1.599268
1590,-215.945678,-33.875029,8.178836,-0.523445,0.746227,1.994171
1591,-268.436713,-51.087205,28.259709,-0.446784,-0.441901,1.194842
1592,-206.912337,-40.588998,34.729534,-0.023194,-0.478279,0.828870
1593,-195.864805,-41.809720,30.762188,0.677501,-0.111696,1.999969
1594,-205.813687,-59.571221,43.823911,-0.109255,0.090333,1.999969
1595,-106.935225,-65.247578,26.550698,-0.241215,-0.851575,1.886015
1596,13.488975,-61.890593,8.484016,0.156985,0.166384,1.822293
1597,-74.647135,-52.613108,18.127718,0.887953,-0.032105,1.654566
1598,-34.180209,-6.836042,9.277485,0.011719,0.041627,1.194842
1599,-46.814679,-17.761501,7.934691,-0.364141,0.017823,0.882216
1600,-56.397345,-33.020523,7.934691,0.251225,0.048341,1.186419
1601,-43.762875,-17.395285,0.732433,0.097047,-0.048219,1.167376
1602,-42.298009,-17.639429,0.671397,-0.149538,-0.094362,1.164080
1603,-23.437858,-20.691234,-2.746624,0.111208,-0.052857,1.115618
1604,-19.043259,-11.413748,-3.295949,0.065797,-0.012696,1.110613
1605,-22.949569,-7.202258,-0.305180,0.024292,-0.081544,1.170916
1606,-5.004959,-0.488289,-0.244144,0.059327,-0.043214,1.095232
1607,-3.295949,4.211490,0.976577,0.003784,0.007324,1.015518
1608,-6.713970,4.821851,2.014191,-0.006592,0.006226,0.993545
1609,-5.188067,4.943923,1.525902,0.003296,0.017700,0.984146
1610,-10.193027,5.065995,1.892119,-0.000366,0.000122,1.019181
1611,-8.361944,5.615320,1.831083,-0.012085,-0.004150,1.006485
1612,-8.667124,5.371176,1.770047,-0.001465,-0.005249,1.019547
1613,-8.789197,5.859464,1.892119,-0.021118,-0.017945,1.027726
1614,-4.272526,5.188067,0.976577,-0.031983,-0.004517,0.992935
1615,-6.103609,3.418021,0.549325,-0.009400,-0.011597,1.009049
1616,-4.577707,2.929732,0.488289,-0.035401,-0.027344,1.010880
1617,-1.953155,1.770047,0.244144,-0.017090,-0.016724,1.006119
1618,-1.892119,1.098650,0.000000,-0.024781,-0.009155,0.990860
1619,-2.441444,0.000000,-0.305180,-0.020752,0.004273,0.987564
1620,-3.601129,-0.793469,-0.610361,-0.016480,-0.000122,0.985489
1621,-4.455634,-1.464866,-0.793469,-0.020020,-0.004761,0.982315
1622,-5.371176,-1.892119,-1.037613,-0.012451,-0.010620,1.000504
1623,-6.408789,-1.709010,-0.976577,0.003296,-0.013672,1.013077
1624,-5.920500,-0.061036,-0.427253,0.002686,-0.026368,1.024308
1625,-4.028382,1.647974,0.366217,-0.017945,-0.024659,0.997696
1626,-4.333562,1.770047,1.220722,-0.021363,-0.011475,0.968276
1627,-5.493248,0.488289,1.098650,-0.038087,-0.021851,0.998184
1628,-3.784237,-0.793469,0.427253,-0.024659,-0.020142,0.997330
1629,-4.028382,-1.525902,0.122072,-0.023072,-0.010132,0.996597
1630,-4.089418,-2.502480,-0.183108,-0.029908,-0.007202,0.987930
1631,-5.737392,-3.601129,-0.549325,-0.018189,-0.011719,0.992691
1632,-6.286717,-4.333562,-0.732433,-0.018921,-0.018311,0.998062
1633,-5.249104,-4.760815,-1.159686,-0.027100,0.002319,0.954238
1634,-9.887846,-6.164645,-0.976577,-0.018555,-0.009766,0.988418
1635,-10.742351,-6.591897,-0.976577,-0.000122,-0.043824,1.034073
1636,-6.652934,-5.432212,-1.098650,0.005371,-0.033692,1.001602
1637,-8.117800,-4.882887,-0.793469,-0.003906,-0.022339,0.996109
1638,-6.530861,-5.554284,0.427253,0.011597,0.106081,0.994888
1639,-9.094377,-3.540093,0.671397,-0.013184,-0.030518,0.994278
1640,-10.193027,-3.295949,0.427253,-0.005249,-0.046143,1.034195
1641,-7.019150,-2.563516,0.061036,0.005005,-0.053101,1.047135
1642,-5.920500,-1.770047,0.488289,-0.001465,-0.055299,1.042496
1643,-1.281758,-0.671397,0.122072,-0.006836,-0.037476,1.014664
1644,-2.319371,-0.610361,0.000000,-0.005982,-0.053590,1.019303
1645,1.525902,0.671397,-0.122072,-0.019043,-0.038209,1.003677
1646,2.319371,-1.098650,-0.610361,-0.057130,0.018311,0.942397
1647,-7.202258,-4.821851,-0.976577,-0.021485,-0.041749,0.988418
1648,-3.173877,-5.371176,-1.586938,-0.007691,-0.062379,1.037369
1649,0.854505,-4.943923,-2.380407,-0.016602,-0.014160,0.990982
1650,-4.028382,-6.164645,-2.441444,0.014649,-0.046876,1.004532
1651,-1.464866,-4.394598,-2.197299,0.021485,-0.081178,1.053605
1652,3.356985,-1.342794,-1.159686,0.032837,-0.068360,1.052262
1653,6.897078,0.915541,-0.488289,0.011231,-0.051270,1.024430
1654,8.056764,2.075227,-0.183108,0.009888,-0.065553,0.982437
1655,8.850233,2.502480,0.183108,-0.015259,-0.015991,0.955459
1656,1.403830,1.342794,0.854505,0.002930,-0.060670,0.979019
1657,3.479057,1.770047,0.793469,-0.010132,-0.018189,1.007950
1658,1.709010,1.159686,0.671397,-0.024903,0.015747,0.986587
1659,-0.671397,0.000000,0.305180,-0.018921,-0.025025,0.977066
1660,-1.403830,-0.976577,0.000000,-0.011719,-0.013306,0.973281
1661,-4.272526,-1.892119,-0.122072,-0.005982,-0.046509,1.032120
1662,-0.427253,-1.709010,-0.366217,0.006226,-0.060182,1.037003
1663,1.953155,-0.732433,0.000000,0.025147,-0.045899,1.024063
1664,3.418021,0.732433,0.000000,0.004639,0.015625,1.011368
1665,2.807660,0.915541,0.549325,-0.001831,-0.030152,1.001846
1666,0.305180,0.549325,0.976577,-0.023194,-0.004761,1.007095
1667,3.356985,0.427253,0.305180,-0.015137,-0.062745,0.920546
1668,-1.831083,-1.953155,0.671397,-0.024292,0.003784,0.980972
1669,-1.281758,-4.333562,0.000000,-0.028443,-0.017700,0.978164
1670,-3.479057,-6.530861,-0.976577,-0.007202,-0.015991,0.989639
1671,-3.112840,-6.775006,-1.220722,0.003418,-0.000610,0.977798
1672,-7.690547,-5.737392,-0.793469,0.017823,-0.034302,1.003189
1673,-9.521630,-4.211490,0.427253,0.030884,-0.097292,1.077409
1674,1.586938,-0.671397,0.671397,0.032593,-0.105470,1.011490
1675,2.197299,0.671397,1.586938,0.008057,-0.037110,1.036149
1676,9.277485,1.403830,1.525902,-0.010498,0.028199,0.942519
1677,-1.709010,-0.610361,1.770047,-0.019654,0.009766,0.955337
1678,-3.295949,-1.892119,1.342794,-0.012207,-0.007080,1.017350
1679,-3.051804,-2.807660,0.793469,-0.013428,-0.022217,0.982803
1680,-4.638743,-4.150454,0.366217,-0.035645,0.017578,0.934585
1681,-8.972305,-7.324331,-0.610361,-0.041138,0.006714,0.950088
1682,-14.953841,-10.437171,-1.281758,-0.006348,-0.059937,1.028946
1683,-7.019150,-9.216449,-2.197299,0.051026,-0.052857,1.012467
1684,-7.873655,-8.239872,-1.647974,0.026001,-0.065431,1.016983
1685,-2.197299,-6.591897,-1.647974,0.029541,-0.016968,0.980850
1686,-6.286717,-6.408789,-1.037613,0.022461,-0.050660,1.048966
1687,-0.549325,-3.906310,-0.488289,0.054810,-0.046632,1.003067
1688,-0.915541,-1.831083,-0.671397,0.028077,-0.012207,1.017227
1689,-7.446403,-0.305180,0.549325,0.062013,-0.064088,1.070695
1690,1.892119,3.662165,1.098650,0.013916,-0.026978,0.979995
1691,-4.516670,2.075227,0.671397,-0.029664,-0.021851,0.957778
1692,-11.169604,-1.586938,-0.610361,-0.038941,-0.045533,0.999527
1693,-7.812619,-3.845274,-1.342794,0.040650,-0.065553,1.068254
1694,-0.671397,-2.136263,-1.586938,0.013794,-0.040162,1.004044
1695,-7.141222,-3.112840,-1.098650,-0.005737,-0.098024,1.035416
1696,2.807660,-3.112840,-1.586938,0.026978,-0.095216,1.071427
1697,8.239872,-2.075227,-1.953155,0.053468,-0.072267,1.060075
1698,9.704738,0.854505,-0.976577,0.059937,-0.080690,1.082292
1699,16.357671,5.371176,0.122072,0.060670,-0.048707,1.056901
1700,15.503166,9.155413,1.586938,0.053101,-0.056153,1.050187
1701,19.165332,12.634470,1.220722,0.033326,-0.062623,0.945449
1702,17.395285,10.742351,1.464866,-0.098390,-0.023682,0.888808
1703,12.634470,2.380407,-0.610361,-0.053712,0.040528,0.978042
1704,10.009918,-2.197299,-2.441444,-0.010986,-0.057862,1.046769
1705,18.371862,-2.563516,-3.356985,0.008423,-0.022217,0.966201
1706,17.700465,-2.502480,-3.051804,-0.043458,0.093507,0.852674
1707,-3.845274,-5.554284,-0.427253,0.036500,0.069947,0.932265
1708,-13.000687,-3.051804,0.671397,0.023926,-0.034180,1.017838
1709,-7.202258,-1.831083,0.793469,0.019898,-0.057984,1.049699
1710,-2.868696,-0.732433,0.549325,0.018067,-0.030884,1.025406
1711,-1.647974,-1.159686,-0.122072,-0.006836,-0.008179,0.970596
1712,-5.798428,-3.173877,-0.671397,-0.002930,-0.022339,0.987198
1713,-4.211490,-3.906310,-1.220722,0.020752,-0.023804,1.024552
1714,-4.760815,-3.234913,-1.281758,0.016602,-0.041627,1.013809
1715,-2.136263,-3.234913,-1.464866,0.008179,-0.031495,0.987076
1716,-2.746624,-3.662165,-1.342794,0.016480,-0.020996,0.980484
1717,-5.249104,-3.845274,-1.281758,0.022583,-0.026001,1.008316
1718,-4.272526,-2.929732,-1.281758,0.023926,-0.034058,1.017838
1719,-3.723201,-1.953155,-0.976577,0.016602,-0.006592,1.048234
1720,-3.173877,-0.549325,-0.244144,0.032837,-0.045533,1.036393
1721,0.488289,1.037613,-0.305180,0.025757,-0.028565,1.020768
1722,-1.342794,1.647974,0.000000,0.012329,-0.036744,1.016739
1723,1.342794,1.525902,-0.305180,0.010010,-0.041627,1.024796
1724,2.929732,1.342794,-0.610361,0.009522,-0.031861,1.002701
1725,2.380407,0.000000,-0.610361,0.002686,-0.058961,1.032364
1726,7.324331,-0.244144,-0.915541,0.015869,-0.060914,1.041276
1727,12.390326,0.122072,-1.281758,0.022827,-0.025513,1.013809
1728,10.864424,0.671397,-1.220722,0.003540,-0.008545,0.968887
1729,7.934691,0.244144,-0.793469,-0.012451,0.010132,0.933852
1730,3.845274,-0.671397,-0.549325,-0.005005,0.062379,0.928603
1731,-9.643702,-1.892119,0.122072,0.025391,-0.005859,0.969253
1732,-9.826810,-1.525902,0.000000,0.003052,-0.072999,1.047623
1733,0.854505,-1.342794,-0.427253,0.028931,-0.024048,1.028702
1734,-3.540093,-1.098650,-0.244144,0.005737,0.001953,1.007706
1735,-3.356985,-0.061036,-1.770047,0.012818,-0.012818,0.993545
1736,-5.615320,-0.976577,-2.380407,0.007813,-0.044434,1.018570
1737,-2.624552,-1.831083,-1.159686,0.012207,-0.048219,1.031144
1738,0.671397,-1.220722,-0.427253,0.017700,-0.026001,1.014542
1739,1.403830,-0.793469,-0.183108,0.013306,-0.014038,0.986954
1740,-0.183108,-1.281758,0.122072,0.016114,-0.020020,1.003433
1741,-0.549325,-0.732433,0.000000,0.018677,-0.031983,1.019059
1742,0.366217,-0.366217,0.000000,0.015991,-0.023804,1.003189
1743,-1.098650,-0.183108,0.000000,0.016968,-0.028443,0.997574
1744,0.061036,-0.122072,0.061036,0.014282,-0.033326,1.015274
1745,1.831083,0.061036,0.061036,0.018189,-0.020386,1.001358
1746,1.647974,0.000000,-0.122072,0.017090,-0.031739,1.004166
1747,1.953155,-0.122072,0.000000,0.018555,-0.034668,1.022843
1748,2.868696,0.793469,-0.305180,0.020264,-0.023682,1.006485
1749,1.647974,1.220722,-0.244144,0.018677,-0.037842,1.014908
1750,1.709010,1.403830,-0.610361,0.017700,-0.037110,1.025040
1751,4.089418,1.220722,0.244144,0.017090,-0.037354,1.020768
1752,6.469825,1.342794,0.183108,0.033692,-0.036988,1.012955
1753,8.056764,2.075227,0.183108,0.030396,-0.043214,0.996963
1754,9.582666,2.441444,0.549325,0.009277,-0.019776,0.959976
1755,8.728161,1.770047,0.488289,-0.005493,0.023926,0.960342
1756,3.540093,1.098650,0.305180,0.006714,-0.004639,0.979873
1757,4.577707,1.159686,-0.122072,-0.000610,-0.031983,1.009781
1758,4.211490,0.366217,0.366217,0.040894,-0.003784,0.986954
1759,2.319371,1.220722,-0.183108,0.016846,-0.015381,1.007340
1760,3.418021,1.037613,-0.122072,0.017456,-0.016358,1.007584
1761,3.112840,1.403830,-0.244144,0.033448,-0.015625,0.987076
1762,2.868696,1.342794,-0.122072,-0.005005,-0.032593,0.979263
1763,2.136263,0.793469,0.061036,0.010010,-0.002075,0.971450
1764,-0.610361,0.305180,0.000000,-0.007813,0.010132,0.965347
1765,-6.897078,-0.732433,0.366217,0.016724,0.001343,1.000015
1766,-4.699779,-0.854505,0.915541,-0.004883,-0.034424,1.013931
1767,-0.122072,-1.037613,0.732433,0.016114,-0.019043,1.001358
1768,-0.488289,-0.427253,0.305180,0.011475,-0.018067,0.998672
1769,0.671397,0.122072,0.000000,0.012940,-0.012451,1.010513
1770,0.427253,0.427253,0.000000,0.001953,-0.008301,0.993545
1771,-0.854505,0.061036,-0.793469,0.011597,-0.017090,1.004898
1772,0.671397,0.732433,-2.502480,0.016724,-0.010498,1.008560
1773,0.671397,0.915541,-4.455634,0.003784,-0.016358,0.989029
1774,2.136263,1.098650,-5.859464,0.006958,-0.006592,1.011612
1775,2.990768,0.549325,-3.845274,0.007813,-0.024414,1.012711
1776,6.164645,0.305180,-1.342794,0.016602,-0.004761,0.985367
1777,2.685588,-0.488289,0.366217,0.012329,-0.012451,1.007095
1778,2.258335,-0.427253,0.671397,0.017945,-0.010498,1.013809
1779,2.319371,0.061036,0.671397,0.013428,-0.006348,1.003067
1780,-0.183108,0.000000,0.854505,0.014649,-0.014038,1.004288
1781,1.220722,0.549325,0.366217,-0.000122,-0.015259,1.006851
1782,2.075227,0.244144,0.305180,0.003662,-0.016724,1.009171
1783,4.699779,0.427253,0.427253,0.010132,-0.019532,1.010025
1784,5.798428,0.671397,0.366217,0.011109,-0.004883,0.988296
1785,4.211490,0.549325,0.000000,0.003418,0.008789,0.971450
1786,2.441444,0.244144,-0.305180,0.015869,0.016724,0.986099
1787,-0.183108,0.427253,-0.366217,0.009033,0.008423,0.969253
1788,-2.502480,0.122072,-1.037613,0.006836,0.008545,0.988540
1789,-4.089418,0.000000,-1.586938,0.000366,-0.009155,0.995499
1790,-3.295949,-0.366217,-1.281758,0.015137,-0.018433,1.016617
1791,-0.427253,-0.061036,-0.732433,0.011719,-0.018555,1.025528
1792,1.037613,0.000000,0.000000,0.014649,-0.006470,1.005875
1793,-0.061036,0.122072,0.000000,0.010132,-0.009155,0.992813
1794,0.000000,-0.183108,-0.305180,0.004028,-0.012696,1.003311
1795,1.342794,-0.366217,-0.366217,0.019409,-0.005127,1.002213
1796,3.418021,0.244144,-0.976577,0.011963,-0.002441,0.999161
1797,0.854505,0.488289,-2.441444,0.025879,0.011109,0.985611
1798,1.159686,1.464866,-4.821851,0.017456,0.021363,0.965469
1799,-3.051804,1.709010,-6.530861,0.005493,-0.008057,0.988174
1800,-3.967346,0.976577,-3.601129,-0.003052,-0.019287,0.982193
1801,-3.356985,0.061036,-0.427253,0.011841,-0.009400,1.017105
1802,-0.488289,0.122072,-0.244144,0.010986,-0.014160,0.995865
1803,-1.831083,-0.244144,-0.305180,-0.000488,-0.012940,1.012345
1804,-1.525902,-0.427253,-0.732433,0.006714,-0.011597,1.004532
1805,-1.709010,-0.732433,-0.854505,0.009644,-0.013794,1.007340
1806,-2.014191,-0.305180,-0.976577,0.023682,-0.007935,1.004410
1807,-3.479057,0.488289,-1.220722,0.013306,-0.003906,1.004044
1808,-2.624552,0.854505,-2.258335,-0.012085,-0.013672,1.017716
1809,-0.427253,0.366217,-2.746624,-0.000122,-0.007324,1.001358
1810,-1.220722,0.122072,-1.892119,0.002564,-0.010498,0.997208
1811,0.366217,-0.244144,-1.647974,0.002075,-0.003418,0.988540
1812,1.586938,-0.122072,-1.892119,0.015259,0.012329,0.966201
1813,-5.127031,-0.061036,-3.723201,-0.001221,-0.003296,1.005020
1814,-3.784237,-0.427253,-2.319371,0.029053,-0.107424,0.954726
1815,-0.854505,0.854505,-3.173877,0.009766,-0.006592,1.015518
1816,-4.821851,0.122072,-1.831083,-0.000488,-0.023804,1.004410
1817,-2.563516,0.305180,-1.220722,0.005737,-0.011719,0.999893
1818,-2.990768,-0.183108,-0.976577,0.003662,-0.015991,1.006119
1819,-1.464866,-0.854505,-0.915541,0.007813,-0.021729,1.000381
1820,-1.098650,-0.671397,-0.732433,0.008789,-0.014527,0.997696
1821,-1.342794,-0.793469,-0.427253,0.008057,-0.018189,1.001480
1822,-1.892119,-0.549325,-0.244144,0.007446,-0.012451,1.001114
1823,-1.403830,-0.366217,-0.305180,0.012573,-0.013794,1.000992
1824,-2.990768,-0.427253,-0.366217,0.010498,-0.008789,0.992081
