Packet number,Gyroscope X (deg/s),Gyroscope Y (deg/s),Gyroscope Z (deg/s),Accelerometer X (g),Accelerometer Y (g),Accelerometer Z (g)
0,0.183108,0.244144,-0.122072,0.006592,-0.007691,1.003555
1,0.000000,0.183108,-0.122072,-0.005005,-0.004517,1.011490
2,0.427253,0.183108,-0.122072,0.006592,-0.002319,0.996963
3,0.183108,0.305180,-0.122072,-0.002564,-0.005371,1.000992
4,0.427253,0.244144,-0.122072,0.005737,-0.006348,1.001846
5,0.671397,0.244144,-0.122072,0.000244,-0.002075,1.000992
6,0.305180,0.244144,-0.122072,0.002930,-0.006226,0.998917
7,0.732433,0.244144,-0.183108,-0.007691,-0.012451,1.007218
8,0.915541,0.244144,-0.183108,0.001709,-0.000122,0.987808
9,-0.244144,-0.061036,-0.122072,-0.011963,-0.010132,1.001968
10,1.220722,0.061036,-0.244144,0.005249,-0.001221,1.005875
11,-0.366217,-0.061036,-0.122072,-0.008057,-0.010986,0.997452
12,0.854505,0.183108,-0.122072,0.002075,0.000366,0.995621
13,0.183108,0.061036,0.000000,0.003174,-0.007935,0.990738
14,0.427253,0.366217,0.000000,0.001953,-0.002564,0.995987
15,-0.183108,0.305180,0.061036,0.001587,-0.009155,1.001602
16,0.183108,0.427253,0.061036,-0.001831,-0.005737,0.999405
17,0.183108,0.488289,0.000000,0.005371,-0.004150,0.998917
18,0.122072,0.427253,0.000000,-0.000366,-0.008423,0.999649
19,0.366217,0.366217,0.000000,0.005005,-0.001343,0.996109
20,0.061036,0.427253,0.000000,-0.001953,-0.003662,1.000381
21,0.732433,0.305180,-0.122072,-0.000732,-0.003662,1.003067
22,0.366217,0.183108,0.000000,-0.000732,0.000122,0.992325
23,0.122072,0.000000,-0.122072,-0.004028,-0.002808,1.004898
24,0.671397,0.000000,-0.183108,-0.000977,-0.004028,1.005753
25,0.610361,-0.122072,-0.183108,-0.004761,0.000244,0.998062
26,0.061036,-0.305180,-0.183108,-0.000366,0.000366,0.996597
27,0.061036,-0.305180,-0.244144,0.001587,0.002197,1.003067
28,-0.122072,-0.305180,-0.183108,0.001221,-0.000366,0.993668
29,-0.305180,-0.244144,0.000000,0.000244,-0.006104,0.998795
30,0.000000,0.061036,0.000000,-0.001709,-0.000366,0.999893
31,-0.488289,-0.061036,0.000000,-0.005859,-0.006104,0.994888
32,-0.366217,-0.061036,0.000000,0.003784,-0.005859,1.007584
33,0.366217,0.000000,-0.122072,0.000977,-0.001221,0.992081
34,-0.183108,-0.183108,0.000000,-0.006226,-0.005127,0.999161
35,0.244144,-0.244144,0.000000,-0.000855,-0.004028,1.002945
36,-0.061036,-0.366217,-0.122072,0.003418,-0.002319,0.988785
37,-0.061036,-0.244144,0.000000,0.002930,-0.007080,1.000259
38,0.366217,-0.183108,0.000000,-0.000732,-0.002564,0.997208
39,0.244144,0.000000,0.000000,0.004028,-0.003174,0.995377
40,0.366217,0.061036,0.000000,0.005737,-0.000610,0.999527
41,0.305180,0.061036,0.061036,-0.002319,0.001099,0.994522
42,0.000000,0.061036,0.000000,-0.005371,0.003296,0.998917
43,-0.366217,-0.061036,0.000000,0.000000,-0.000610,0.999527
44,-0.305180,-0.061036,-0.122072,0.002075,0.005249,0.998672
45,-0.671397,-0.183108,-0.122072,-0.005005,-0.003662,1.005753
46,-0.488289,-0.061036,0.000000,-0.002319,-0.003174,1.007340
47,-0.183108,-0.183108,0.000000,0.005371,-0.003662,0.998062
48,-0.244144,-0.305180,0.000000,0.002808,-0.002441,0.992569
49,0.000000,-0.183108,-0.122072,-0.001099,0.000244,1.007340
50,0.183108,0.000000,0.000000,-0.003662,0.003174,0.987686
51,-0.854505,-0.488289,0.000000,-0.000366,-0.005615,1.001968
52,0.000000,-0.305180,0.000000,-0.000610,0.001343,0.988540
53,-0.793469,-0.488289,0.000000,-0.005127,-0.000610,0.995377
54,-0.488289,-0.427253,-0.122072,-0.002441,0.004273,0.998184
55,-0.793469,-0.488289,0.000000,-0.000855,0.001099,1.002335
56,-1.220722,-0.488289,0.000000,0.003784,-0.000610,1.009659
57,-0.671397,-0.244144,-0.122072,-0.000977,-0.001465,1.005753
58,-0.671397,-0.183108,0.000000,0.001709,-0.004517,0.997574
59,-0.549325,-0.244144,0.000000,-0.001709,-0.003540,0.995010
60,-0.488289,-0.244144,0.000000,-0.004639,0.006226,1.016983
61,-1.647974,-0.549325,0.061036,0.001099,-0.017945,1.005875
62,1.281758,-0.183108,0.000000,0.004028,0.004517,0.979751
63,-0.915541,-0.366217,0.000000,-0.001221,-0.006958,0.998306
64,0.488289,-0.244144,-0.122072,0.003296,-0.001709,1.004044
65,-0.122072,-0.305180,0.000000,0.003174,0.000244,0.998062
66,-0.122072,-0.427253,0.000000,-0.003052,-0.003174,0.998428
67,0.061036,-0.244144,0.000000,0.001709,0.000855,1.001724
68,-0.488289,-0.244144,0.000000,-0.001099,-0.001953,0.998795
69,-0.183108,-0.366217,0.000000,0.000732,-0.003540,0.994888
70,-0.671397,-0.305180,0.000000,-0.004150,-0.002197,0.996475
71,-0.671397,-0.305180,-0.183108,0.002564,0.000855,0.994522
72,-0.671397,-0.427253,-0.183108,0.001465,-0.003662,1.001114
73,-0.122072,-0.366217,0.000000,0.002686,-0.005615,1.002823
74,0.305180,0.000000,0.000000,-0.000977,0.001953,0.991104
75,-0.183108,-0.244144,0.000000,0.006836,-0.001953,1.010513
76,0.610361,-0.122072,0.000000,-0.000855,0.002319,0.992569
77,0.061036,0.000000,0.000000,-0.003540,0.000977,0.995621
78,0.000000,-0.183108,0.000000,0.000488,0.000000,0.996353
79,-0.061036,-0.183108,0.000000,-0.003418,0.003052,0.998917
80,-0.244144,-0.305180,-0.122072,0.003418,0.001953,0.994644
81,-0.732433,-0.488289,-0.122072,0.001221,-0.004639,0.996597
82,-0.183108,-0.366217,0.000000,0.004273,-0.000855,1.003922
83,-0.610361,-0.305180,-0.122072,-0.001953,-0.000488,1.000870
84,-0.366217,-0.366217,0.000000,0.002075,-0.005005,1.003799
85,0.000000,0.000000,0.000000,0.000610,-0.000488,0.999405
86,-0.183108,-0.061036,0.000000,-0.001221,-0.000244,0.994644
87,-0.305180,-0.244144,0.000000,-0.003540,-0.003052,1.006973
88,0.061036,0.000000,-0.122072,-0.002564,0.002686,0.999405
89,-0.061036,-0.244144,-0.122072,-0.003784,-0.000855,0.995865
90,-0.061036,-0.305180,-0.122072,0.001099,-0.002075,0.994644
91,-0.061036,-0.366217,-0.183108,0.000732,-0.000244,1.003067
92,-0.122072,-0.427253,-0.183108,0.001709,0.001953,0.995254
93,-0.305180,-0.366217,-0.183108,0.003906,-0.000855,1.004410
94,-0.244144,-0.488289,-0.122072,-0.001831,0.001099,1.000015
95,-0.793469,-0.427253,0.000000,0.002197,0.002808,0.999161
96,-0.976577,-0.366217,-0.122072,-0.000122,-0.004028,1.002701
97,-0.366217,-0.183108,-0.122072,0.001709,-0.000244,1.002213
98,-0.427253,0.061036,0.000000,0.002197,0.003784,1.003189
99,-0.427253,0.122072,0.061036,0.001221,-0.004761,0.992691
100,-0.366217,0.122072,0.000000,-0.001587,0.001831,0.997208
101,-0.061036,0.305180,0.000000,0.003174,-0.000732,1.009293
102,0.061036,0.427253,0.000000,-0.002075,0.001831,1.005509
103,-0.183108,0.244144,-0.122072,-0.002319,-0.001831,0.996353
104,-0.122072,0.244144,0.000000,-0.005859,-0.003784,0.996109
105,0.061036,0.366217,-0.122072,-0.003296,0.004761,0.997452
106,-0.122072,0.061036,-0.183108,-0.004761,0.002686,1.004288
107,-0.183108,0.000000,-0.122072,-0.000977,0.003906,0.999039
108,-0.244144,-0.244144,-0.122072,-0.002441,0.004517,0.995743
109,-0.732433,-0.366217,-0.183108,0.002564,0.005371,0.998062
110,-1.037613,-0.305180,-0.122072,-0.005859,-0.001709,1.000992
111,-0.671397,-0.244144,-0.183108,0.004395,-0.004395,0.999283
112,-0.488289,0.000000,0.000000,-0.000122,0.000366,1.004166
113,-0.854505,0.000000,-0.183108,-0.000977,0.001953,0.999161
114,-0.305180,0.122072,-0.183108,0.005493,-0.001953,1.003067
115,-0.183108,0.122072,0.000000,0.001343,0.000977,1.000870
116,-0.122072,0.122072,0.000000,0.000122,0.001709,1.009903
117,-0.305180,0.183108,-0.122072,-0.002197,-0.008423,1.007706
118,0.671397,0.183108,-0.122072,-0.004517,0.003052,0.987686
119,-0.122072,0.000000,0.000000,-0.003784,-0.000610,1.000748
120,0.183108,0.000000,0.000000,-0.001465,0.000366,1.014054
121,0.244144,-0.122072,-0.183108,-0.003418,0.004028,1.000504
122,-0.366217,-0.244144,-0.122072,-0.007080,-0.000488,1.000381
123,-0.061036,-0.244144,-0.183108,0.001709,-0.002441,1.001358
124,0.061036,0.000000,-0.122072,0.001343,0.004273,0.997696
125,-0.183108,-0.061036,0.000000,-0.001099,0.004517,0.994766
126,-0.183108,-0.061036,0.000000,-0.005005,-0.000366,0.999893
127,0.000000,0.061036,0.000000,-0.001343,0.002075,1.000137
128,0.061036,0.061036,0.000000,-0.002441,-0.002197,0.992081
129,-0.183108,-0.549325,-0.122072,-0.002930,0.011719,1.004410
130,-0.732433,-0.854505,0.000000,0.006348,-0.001709,1.000015
131,0.305180,-0.427253,-0.305180,-0.006592,-0.008789,0.998184
132,-0.061036,-0.610361,-0.122072,-0.000122,-0.000977,0.998550
133,0.122072,-0.549325,-0.183108,0.000000,0.000366,1.011734
134,0.671397,-0.488289,-0.183108,0.003296,-0.001709,0.992447
135,0.366217,-0.427253,-0.122072,0.002441,0.005371,0.991104
136,-0.061036,-0.244144,-0.122072,-0.005493,0.002808,0.990494
137,-0.732433,-0.610361,0.000000,0.007813,-0.000855,0.999039
138,0.000000,-0.183108,0.061036,-0.003418,0.004273,0.999649
139,-0.488289,-0.244144,0.000000,-0.001953,-0.001221,1.003433
140,-0.183108,-0.244144,0.000000,0.000366,0.005005,1.003799
141,-0.244144,-0.244144,0.000000,-0.003052,-0.002441,1.002579
142,-0.427253,-0.244144,0.000000,-0.005737,0.000000,1.003189
143,-0.122072,-0.427253,-0.122072,0.001709,0.000122,0.993301
144,-0.610361,-0.366217,0.000000,0.000732,-0.004517,1.004654
145,0.244144,-0.122072,0.000000,0.000366,0.003052,0.988418
146,-0.061036,-0.244144,0.000000,-0.008667,0.004761,0.996719
147,-0.122072,-0.366217,0.000000,0.003662,0.006470,0.998917
148,-0.244144,-0.427253,0.000000,-0.005737,0.008789,0.990860
149,-1.403830,-0.671397,0.000000,-0.001221,0.002319,0.997696
150,-1.464866,-0.488289,-0.183108,-0.006104,0.002441,0.993179
151,-1.403830,-0.305180,0.000000,0.007202,-0.000855,1.007828
152,-1.220722,-0.183108,0.000000,-0.005737,0.000488,1.000259
153,-1.098650,0.000000,0.000000,0.004150,0.005982,0.999527
154,-0.854505,0.061036,0.000000,0.006714,0.007446,1.001358
155,-1.403830,-0.061036,-0.122072,-0.001465,0.007080,1.008682
156,-2.136263,-0.366217,-0.183108,-0.002197,-0.013550,1.004410
157,0.549325,0.000000,-0.244144,0.003174,0.002930,0.994888
158,-0.732433,-0.244144,0.000000,-0.002686,-0.005005,1.001480
159,0.610361,-0.122072,-0.244144,-0.004150,0.003052,1.001968
160,0.244144,0.000000,-0.122072,-0.002319,0.001587,0.996231
161,0.366217,-0.183108,-0.122072,0.000977,0.005127,0.995499
162,0.122072,-0.122072,0.000000,0.004395,0.001953,0.992813
163,-0.183108,-0.183108,0.000000,-0.002808,0.002686,1.000748
164,-0.305180,-0.305180,0.000000,0.000122,0.003052,0.997940
165,-0.854505,-0.305180,0.000000,-0.002930,-0.001343,1.004044
166,-0.427253,-0.488289,-0.122072,0.000122,0.002075,1.006119
167,-0.061036,-0.122072,-0.122072,0.002441,-0.002197,0.998917
168,-0.244144,-0.305180,0.000000,0.005005,0.000366,1.001236
169,-0.244144,-0.427253,-0.122072,-0.003540,0.005859,0.998672
170,-0.061036,-0.427253,-0.244144,-0.004639,-0.003662,1.002823
171,0.305180,-0.610361,-0.122072,0.001709,-0.005005,0.999283
172,0.488289,-0.671397,-0.122072,-0.006714,-0.000122,1.000259
173,0.732433,-0.610361,-0.122072,-0.002930,0.000855,1.010636
174,0.915541,-0.427253,0.000000,-0.004883,-0.005737,1.002335
175,1.586938,-0.549325,0.000000,-0.001465,0.002319,1.003555
176,1.464866,-0.610361,0.000000,-0.004395,0.000122,1.006729
177,2.136263,-0.549325,-0.122072,0.003662,-0.003052,1.017838
178,4.089418,0.793469,-0.305180,-0.011841,-0.011109,0.981460
179,5.371176,0.549325,0.061036,0.002441,-0.001099,1.005631
180,4.455634,0.488289,0.122072,-0.003540,-0.007691,1.015763
181,6.713970,0.488289,0.122072,0.002686,0.005249,1.010025
182,6.286717,0.366217,0.000000,-0.005005,0.000977,0.987076
183,6.042573,0.366217,0.061036,-0.007324,0.007202,0.980606
184,5.615320,-0.122072,0.061036,-0.005371,0.019409,1.001114
185,5.065995,-0.488289,0.183108,-0.000244,0.011475,0.986831
186,5.188067,-0.610361,0.122072,-0.001343,0.007568,0.993179
187,5.310140,-0.732433,0.122072,0.001831,0.018677,0.987686
188,4.516670,-0.915541,0.122072,0.001709,0.014893,0.985855
189,4.089418,-0.793469,0.183108,-0.000122,0.010132,1.002823
190,4.638743,-0.549325,0.366217,-0.005615,0.013062,0.994522
191,4.699779,-1.037613,0.122072,0.003540,0.027344,0.994156
192,2.685588,-1.220722,0.244144,-0.006714,0.018311,0.990860
193,3.418021,-1.342794,0.183108,0.006470,0.021851,1.001968
194,2.624552,-0.854505,0.305180,0.006348,0.024903,1.003311
195,2.502480,-0.732433,0.427253,-0.001709,0.017945,1.008560
196,2.380407,-0.610361,0.488289,-0.001221,0.020630,0.988418
197,2.197299,-0.610361,0.427253,0.002564,0.024414,0.995865
198,2.075227,-0.732433,0.488289,0.002564,0.026368,0.990249
199,1.770047,-0.488289,0.305180,0.006348,0.027344,0.970596
200,-0.122072,-0.732433,0.244144,0.001099,0.028077,0.985122
201,-0.488289,-0.427253,0.366217,0.006104,0.013062,1.011856
202,1.037613,0.427253,0.671397,-0.005615,0.016846,0.989273
203,0.488289,-0.244144,0.671397,-0.007813,0.023682,0.981460
204,0.000000,-0.610361,0.366217,-0.019409,0.015625,0.957412
205,0.488289,-1.586938,0.671397,-0.008423,0.028077,0.980240
206,-0.610361,-2.319371,0.671397,-0.002808,0.038087,0.974014
207,-1.098650,-2.868696,0.549325,0.005615,0.033204,0.989517
208,-3.540093,-2.807660,0.427253,0.000488,0.019654,1.000870
209,-1.831083,-2.929732,0.488289,-0.001221,0.019165,0.990616
210,-2.807660,-2.746624,0.732433,0.017090,0.028199,1.001602
211,-2.990768,-2.380407,1.342794,0.007446,0.018555,1.028336
212,-0.183108,-1.892119,1.098650,0.018189,0.014649,1.012589
213,-1.220722,-1.464866,1.098650,0.002197,-0.010742,0.998062
214,0.610361,-1.831083,1.098650,-0.004517,0.034180,0.979141
215,-0.183108,-2.624552,1.098650,0.015625,0.045533,0.958022
216,-4.028382,-3.418021,0.854505,-0.000366,0.009277,0.988174
217,-2.075227,-3.479057,0.366217,0.002441,0.026368,0.988785
218,-3.540093,-4.272526,0.244144,0.009400,0.016968,0.963149
219,-4.150454,-4.760815,0.305180,-0.000122,0.026246,0.985855
220,-5.065995,-5.676356,0.671397,0.011353,0.045289,1.030167
221,-3.967346,-5.004959,0.549325,0.025269,-0.010498,1.046647
222,-1.647974,-3.784237,0.305180,0.020752,0.010254,1.009781
223,-2.502480,-3.295949,0.488289,0.012818,0.034302,1.038956
224,-0.488289,-2.502480,0.305180,0.024903,-0.020386,1.017350
225,0.610361,-2.014191,0.061036,0.019165,-0.035401,0.968032
226,0.427253,-2.319371,0.000000,0.004639,0.012451,0.970962
227,-0.305180,-2.990768,-0.244144,0.009033,-0.009400,0.948135
228,-1.525902,-3.234913,0.000000,0.015747,-0.019409,1.008682
229,-0.427253,-3.051804,0.183108,0.019409,0.054688,1.024796
230,-0.488289,-2.807660,0.183108,0.031128,0.006958,1.005875
231,-0.122072,-1.831083,-0.488289,0.013794,0.005005,1.013931
232,1.647974,-1.342794,0.000000,0.025879,0.010986,1.014786
233,1.953155,-0.549325,-0.427253,0.012329,0.025391,1.006729
234,3.051804,-0.122072,-0.244144,0.023926,0.019776,1.016007
235,3.234913,0.671397,-0.610361,0.031495,-0.061891,0.960220
236,2.380407,0.671397,-0.122072,0.018677,0.027100,0.979873
237,0.976577,0.671397,-0.366217,0.022705,-0.033570,0.935683
238,0.000000,0.732433,0.061036,0.012940,0.017090,0.993790
239,-0.427253,0.610361,-0.122072,0.009644,0.033936,0.984878
240,-1.831083,0.488289,0.000000,0.016968,0.017578,1.006485
241,-1.037613,0.427253,-0.305180,0.013794,0.013184,1.001358
242,-0.061036,0.488289,-0.488289,0.016724,0.019043,0.994888
243,-0.915541,0.000000,-0.549325,0.008423,0.014771,1.008194
244,0.488289,0.244144,-0.610361,0.026490,0.006714,1.010758
245,0.793469,0.732433,-0.549325,0.009888,0.009888,0.994034
246,1.709010,0.732433,-0.488289,0.017823,0.017090,0.999893
247,1.098650,1.037613,-0.366217,0.013794,0.009277,1.001358
248,2.563516,0.915541,-0.305180,0.009522,0.022705,0.970230
249,0.244144,0.488289,-0.244144,0.013794,0.024781,0.992691
250,0.854505,0.671397,-0.305180,0.013672,0.013306,0.999161
251,1.525902,0.854505,-0.854505,0.010498,-0.011841,0.941787
252,0.000000,0.244144,-0.183108,0.006348,0.035889,1.004654
253,0.183108,-0.244144,-0.305180,0.002930,0.020020,0.986221
254,-0.305180,-0.732433,-0.427253,0.010986,0.015381,0.993423
255,0.244144,-1.098650,-0.427253,0.005371,0.023682,0.989517
256,-0.427253,-1.831083,-0.244144,0.017823,0.017334,0.989883
257,-1.037613,-1.831083,-0.244144,0.008179,0.019532,0.978042
258,-1.037613,-2.014191,-0.183108,0.020020,0.040772,0.972427
259,-5.188067,-2.014191,0.000000,0.012451,0.016602,1.004166
260,-3.784237,-1.159686,0.000000,0.029664,0.014771,0.996109
261,-4.333562,-0.610361,0.122072,0.013062,0.018311,0.989395
262,-4.455634,-0.427253,0.061036,0.028931,0.012940,0.998550
263,-4.516670,-0.061036,0.366217,0.024781,0.011109,1.010269
264,-3.173877,0.244144,0.305180,0.015015,0.021241,1.003677
265,-3.845274,-0.366217,0.244144,0.012085,0.056764,1.000870
266,-5.493248,-1.159686,0.854505,-0.000855,0.010498,0.979019
267,-2.990768,-1.220722,-0.305180,0.007446,0.003418,0.894911
268,-11.047532,-3.418021,0.732433,0.006958,0.050294,0.979751
269,-12.512398,-3.906310,1.464866,0.006592,0.034546,0.973281
270,-12.512398,-3.540093,0.305180,0.018921,-0.009400,0.944594
271,-17.639429,-3.967346,0.915541,0.035035,-0.008179,1.036515
272,-13.122759,-1.770047,1.037613,0.038209,-0.010986,1.039322
273,-12.329290,-0.610361,1.647974,0.017334,-0.017212,1.025406
274,-9.277485,0.000000,1.586938,0.033082,-0.051637,1.003311
275,-9.277485,0.305180,1.770047,0.029786,-0.052003,1.002579
276,-7.446403,0.244144,2.075227,-0.003296,0.010986,0.973648
277,-10.131991,-1.709010,2.319371,-0.005127,0.022827,0.928603
278,-14.587625,-4.455634,2.685588,-0.010132,0.008789,0.943130
279,-17.151141,-6.591897,2.502480,-0.001465,0.010864,0.962295
280,-20.080873,-8.056764,2.380407,0.000000,0.007568,0.978897
281,-23.132677,-8.972305,2.380407,0.011841,-0.029664,0.991104
282,-21.301595,-8.484016,2.014191,0.016358,-0.014649,1.003677
283,-21.606775,-8.300908,2.014191,0.031983,-0.019043,1.004532
284,-22.583352,-7.324331,2.014191,0.030152,-0.020264,0.998917
285,-23.010605,-6.775006,1.709010,0.017823,-0.009522,0.992203
286,-24.414435,-7.080186,1.098650,0.019043,-0.012818,0.989883
287,-28.015564,-7.934691,0.183108,0.039307,-0.021241,0.908583
288,-32.166018,-7.080186,-0.244144,0.100099,0.096559,0.881117
289,-51.453422,-1.342794,0.244144,-0.040040,0.072633,0.935195
290,-66.529335,-5.004959,2.380407,0.116579,-0.049561,1.072282
291,-52.307927,2.319371,0.061036,-0.003296,0.002686,1.013077
292,-60.364691,2.441444,-1.770047,0.037232,-0.036744,0.992325
293,-60.059510,6.530861,1.342794,0.047974,-0.090822,0.977066
294,-51.392386,9.460594,0.122072,0.028321,-0.071778,1.073136
295,-59.205005,8.789197,-2.807660,-0.072999,0.033692,1.034073
296,-84.229801,-1.831083,-20.569162,-0.041627,-0.131472,1.023941
297,-86.915389,1.281758,-15.381094,0.202396,-0.118166,0.973770
298,-72.877089,9.338521,-11.535821,0.067018,-0.132204,1.034562
299,-64.332036,7.568475,-7.324331,-0.050294,0.143679,0.880385
300,-47.547112,33.447776,-13.794156,0.400763,-0.434821,-0.133669
301,-152.834363,16.968032,-9.399557,0.069093,0.313115,1.073625
302,-212.344549,6.530861,19.226368,-0.017823,0.621225,0.720714
303,-289.860380,11.657893,-0.732433,0.104738,0.171756,1.448631
304,-392.523079,1.709010,29.602502,-0.240238,-0.029908,1.319112
305,-450.690471,-0.488289,43.823911,0.324468,-0.062379,1.789212
306,-492.072938,3.967346,26.733806,0.215824,-0.008179,1.850736
307,-508.064393,62.867170,72.999161,0.232792,-0.349737,1.999969
308,-595.468071,37.964446,133.607996,-1.573388,0.747326,1.999969
309,-156.679637,-5.981537,10.742351,-0.045655,-0.611948,1.999969
310,229.251545,53.772793,-23.865110,-0.470954,0.826795,1.888579
311,95.155261,38.147555,-37.842374,0.145632,0.485603,0.715831
312,-79.285878,-12.939651,17.700465,0.168460,0.598520,0.512337
313,-74.769207,-22.583352,21.484703,0.273442,0.422492,0.800549
314,46.509499,1.709010,-25.207904,0.195438,0.389410,0.757336
315,44.556344,-0.305180,-36.194400,0.151858,0.561776,0.602304
316,6.103609,-11.413748,-36.194400,-0.003296,0.407843,0.888808
317,55.725948,-11.535821,-41.199359,-0.113039,0.383673,0.964614
318,82.948043,-17.700465,-40.161746,-0.178958,0.467903,0.873060
319,80.872816,-27.832456,-33.630884,-0.220829,0.380865,0.957900
320,108.766308,-27.771420,-30.518044,-0.239261,0.340093,1.007584
321,128.725109,-23.926146,-27.222095,-0.258671,0.342168,0.965591
322,136.171511,-18.738079,-22.705425,-0.302373,0.267460,1.014054
323,152.529183,-11.291676,-17.700465,-0.344488,0.202518,1.044450
324,165.590906,-5.310140,-10.864424,-0.376349,0.160403,1.042130
325,174.868391,-3.234913,-2.807660,-0.374029,0.103517,1.030045
326,185.915923,-4.333562,5.249104,-0.331548,0.093385,1.052262
327,194.155795,-5.920500,10.620279,-0.252934,0.094240,1.119036
328,201.113909,-2.502480,13.427939,-0.186038,0.075319,1.226215
329,209.903105,4.211490,13.183795,-0.153567,0.044312,1.300191
330,217.715724,12.268254,11.596857,-0.123659,0.005859,1.310201
331,222.049287,20.141909,9.155413,-0.102663,-0.055909,1.218280
332,221.927214,27.649348,6.225681,-0.070924,-0.131838,1.016739
333,211.673152,34.241245,2.746624,-0.040406,-0.165774,0.943496
334,192.690929,39.185168,0.000000,-0.042359,-0.152590,1.193744
335,181.094072,41.443503,-2.014191,-0.011231,-0.079835,1.670069
336,183.840696,41.809720,-5.920500,0.039429,-0.065675,1.999969
337,204.592966,44.190127,-11.596857,0.146365,-0.125978,1.999969
338,228.213931,48.035401,-19.836728,0.185306,-0.202762,1.999969
339,236.636912,45.960174,-27.100023,0.178592,-0.290532,1.967803
340,239.017319,38.330663,-33.325704,0.145998,-0.400031,1.873686
341,243.595026,32.227054,-38.696880,0.102052,-0.463142,1.759792
342,242.435340,29.480430,-42.969406,0.076295,-0.501228,1.605371
343,235.172045,28.992142,-46.753643,0.032227,-0.516732,1.537255
344,225.101091,31.128405,-49.500267,-0.031373,-0.515633,1.524559
345,215.579461,34.790570,-50.720989,-0.087770,-0.539071,1.508446
346,206.363012,40.161746,-50.415808,-0.112917,-0.595468,1.453391
347,195.681697,46.570535,-48.523690,-0.104860,-0.663462,1.353902
348,185.244526,52.979324,-45.654994,-0.074220,-0.736706,1.174945
349,170.046540,55.481804,-42.542153,0.002564,-0.793713,1.012345
350,149.904631,54.566262,-40.161746,0.057862,-0.888075,0.913222
351,130.006867,53.833829,-39.307240,0.127443,-0.994278,0.892592
352,110.658427,54.322118,-39.856565,0.208377,-1.137957,0.853285
353,92.103456,55.420768,-41.382467,0.266239,-1.304463,0.759899
354,72.205692,54.749371,-41.077287,0.255741,-1.461326,0.588266
355,51.636530,48.096437,-36.804761,0.222171,-1.544091,0.397223
356,30.273899,27.649348,-26.489662,0.150149,-1.465721,0.262211
357,8.422980,-4.150454,-12.512398,0.072999,-1.268452,0.290410
358,-14.709697,-30.579080,1.770047,-0.017578,-1.073259,0.528573
359,-31.738766,-42.420081,14.343481,-0.091432,-0.891371,0.766857
360,-39.307240,-42.664225,24.719615,-0.164065,-0.749035,0.913100
361,-43.823911,-35.645075,34.302281,-0.370733,-0.644297,0.807874
362,-144.594492,-98.512245,41.931792,0.051881,-1.142840,-1.303487
363,-156.069276,-123.598077,50.782025,0.187625,-0.152956,1.030533
364,-120.119020,-56.153201,40.344854,0.097292,0.619394,1.234516
365,-145.693141,-52.063783,44.312200,-0.221683,0.973404,0.824598
366,-237.247272,-101.808194,49.561303,0.323125,0.139040,0.372320
367,-263.370718,-90.394446,46.265354,0.495491,-0.317632,1.028580
368,-230.655375,-71.351186,39.551385,0.520638,-0.038453,1.999969
369,-206.790265,-44.678416,28.137636,0.708385,0.006958,1.999969
370,-152.040894,-26.489662,6.225681,0.434211,-0.134646,1.999969
371,-114.259556,-15.075914,-2.014191,-0.090455,-0.104616,1.816190
372,-104.798962,-1.831083,7.568475,-0.403449,-0.095827,1.506859
373,-95.765621,-5.615320,23.132677,-0.425788,-0.048951,1.207782
374,-90.577554,-37.232013,33.752956,-0.099001,-0.151369,1.399924
375,-63.172351,-53.467613,29.053178,0.326421,0.213260,1.759670
376,-68.299382,-46.448463,14.770733,0.703990,0.032349,1.991730
377,-34.241245,-15.930419,4.028382,-0.040406,-0.005127,0.982925
378,-43.884947,-25.268940,-1.586938,-0.369512,0.005615,1.263813
379,-53.589685,-44.068055,6.469825,0.175296,-0.068605,1.235737
380,-15.747311,-26.367590,-1.159686,0.182132,0.037110,1.212787
381,-29.846647,-20.263981,2.380407,-0.034913,0.012451,1.052750
382,-22.217136,-19.958801,1.403830,0.063111,0.016602,1.181048
383,-11.779965,-14.587625,-1.281758,0.063111,0.041260,1.008316
384,-19.165332,-10.376135,0.366217,0.062257,0.032105,1.065812
385,-17.029068,-5.798428,1.647974,0.029175,-0.000977,1.077653
386,-9.948882,-1.709010,2.136263,0.067018,0.018433,0.998795
387,-14.038300,1.281758,3.906310,0.046754,0.026490,1.014054
388,-14.160372,1.770047,4.455634,-0.016358,0.037720,0.999161
389,-13.244831,1.159686,3.601129,0.026368,0.034668,1.013565
390,-13.183795,1.281758,2.929732,0.016846,-0.017823,1.023331
391,-10.559243,1.586938,2.197299,0.007446,0.031861,0.969009
392,-14.404517,1.159686,1.342794,-0.004517,0.045167,0.979751
393,-16.601816,0.732433,1.586938,0.004761,0.009400,1.008927
394,-13.672084,0.061036,1.525902,0.008667,0.010864,0.990372
395,-13.977264,-0.549325,1.892119,0.018555,0.015503,1.005142
396,-13.855192,-0.610361,2.014191,0.020020,-0.038575,0.963516
397,-13.183795,-1.159686,2.380407,0.019287,-0.011475,1.023697
398,-10.925460,-0.488289,1.892119,0.027222,-0.019898,0.984390
399,-9.521630,-0.793469,1.892119,-0.001343,0.030518,0.990494
400,-11.718929,-2.380407,2.075227,-0.000122,0.012573,1.011490
401,-9.033341,-2.014191,0.915541,0.018311,-0.048463,0.961074
402,-8.850233,-2.502480,0.976577,0.004761,0.003662,1.002945
403,-10.376135,-2.990768,0.793469,0.007080,0.002441,1.014908
404,-8.545052,-2.624552,0.671397,0.018677,-0.038331,0.982315
405,-7.324331,-2.441444,0.671397,0.010132,-0.009155,0.988663
406,-9.155413,-3.112840,0.854505,0.002197,0.000122,0.989029
407,-9.460594,-3.784237,0.549325,-0.001221,-0.001953,0.984268
408,-10.376135,-4.333562,0.549325,0.022339,-0.040650,0.953628
409,-10.803388,-4.760815,0.671397,0.015259,-0.033448,0.987686
410,-11.902037,-5.859464,0.915541,0.004273,0.016480,0.985733
411,-13.672084,-6.836042,1.220722,0.013794,0.017090,0.993179
412,-15.320058,-7.019150,1.037613,0.026734,-0.015869,1.007218
413,-15.197986,-6.652934,0.671397,0.030396,-0.028077,1.002945
414,-14.221408,-5.859464,0.671397,0.041871,-0.025269,0.997208
415,-15.686275,-5.065995,1.159686,0.023804,-0.016236,0.973892
416,-17.822538,-4.882887,2.136263,0.046876,0.010620,0.953017
417,-24.536507,-4.089418,2.685588,0.026856,-0.018311,0.983291
418,-26.672770,-4.089418,3.112840,0.032715,-0.036011,1.015518
419,-25.207904,-2.502480,3.418021,0.054932,-0.019532,1.031022
420,-26.916915,-1.037613,3.356985,0.024292,-0.038941,1.024918
421,-24.658579,0.183108,3.356985,0.037476,-0.033814,1.007706
422,-25.452049,0.610361,3.356985,0.017090,-0.030884,0.974502
423,-29.785611,-0.915541,3.906310,0.012696,-0.036378,0.965591
424,-30.457008,-2.746624,3.479057,0.003174,-0.044678,0.987320
425,-31.372549,-5.004959,2.746624,0.009277,-0.033204,0.957046
426,-36.499580,-7.019150,2.319371,0.035889,-0.030030,1.033829
427,-34.607462,-1.770047,1.098650,0.050294,-0.086305,1.000259
428,-31.738766,-0.793469,2.990768,-0.005859,-0.095583,1.034806
429,-33.081559,1.525902,4.333562,0.057252,-0.080934,1.048844
430,-36.194400,1.525902,5.127031,0.010742,-0.091432,0.981216
431,-36.804761,1.953155,5.493248,0.028199,-0.069093,0.964981
432,-43.091478,-0.244144,4.211490,-0.016358,-0.104494,0.932631
433,-45.105669,-1.892119,0.488289,-0.001831,-0.060670,1.007340
434,-48.157473,-2.746624,-3.540093,0.016480,-0.086549,1.041398
435,-50.110628,-1.831083,-5.432212,-0.024537,-0.104250,0.985000
436,-48.096437,-4.028382,-7.995727,-0.109987,-0.031617,1.254170
437,-40.772107,-4.699779,-23.010605,-0.068971,0.030396,0.946792
438,-53.101396,-3.234913,-34.851606,0.061524,-0.092042,1.011612
439,-51.514458,-1.281758,-26.855879,0.118166,-0.248661,1.102068
440,-31.006332,3.295949,-16.418708,0.108644,-0.291752,1.127459
441,-18.432898,4.028382,-4.882887,0.087526,-0.089967,1.007095
442,-37.354086,9.216449,-5.188067,0.035157,0.142702,0.976455
443,-88.868544,15.136950,-11.902037,0.105959,0.164065,0.922866
444,-129.945830,23.193713,-4.821851,0.098512,0.037720,0.892103
445,-135.133898,12.207218,10.254063,-0.158938,0.140261,0.746349
446,-131.410697,-15.320058,-1.342794,-0.322881,0.857801,1.250263
447,-312.321660,-21.301595,-41.443503,0.150271,0.783825,1.507225
448,-518.806745,-39.551385,7.263294,-0.262455,0.319463,1.226947
449,-654.123751,-102.967880,36.438544,-0.300298,-0.079347,1.221942
450,-730.540932,-131.898985,53.528649,0.161746,-0.099123,1.474510
451,-776.989395,-128.603037,64.759289,0.633799,-1.052384,1.340963
452,-965.590906,-128.664073,188.296330,-1.483787,-0.267826,1.999969
453,-280.888075,-34.302281,22.339208,-0.307744,-1.308370,1.999969
454,256.351568,39.490349,-53.101396,-0.175296,0.427619,1.999969
455,152.101930,66.773480,-62.500954,-0.137087,1.011978,1.485863
456,-36.377508,-1.464866,8.239872,-0.493660,0.812146,0.879774
457,-118.654154,-50.171664,31.616693,-0.155032,0.315190,1.080705
458,22.949569,-10.864424,17.517357,-0.097414,0.255009,1.130755
459,107.179370,10.070954,2.807660,0.037842,0.592172,0.661387
460,49.073014,4.211490,2.563516,0.091432,0.558358,0.721935
461,55.542840,-1.647974,-1.892119,0.057130,0.382086,0.921401
462,118.104829,-7.385367,-11.718929,0.046998,0.454353,0.887221
463,128.603037,-20.080873,-15.136950,0.023072,0.472541,0.887343
464,129.579614,-27.954528,-17.029068,-0.010010,0.367559,1.064714
465,162.600137,-21.606775,-22.705425,-0.031373,0.317510,1.208515
466,186.037995,-11.535821,-26.428626,-0.077760,0.275029,1.246967
467,200.930800,-2.075227,-27.527276,-0.140871,0.163943,1.245869
468,224.551766,7.507439,-26.550698,-0.206058,0.042481,1.129290
469,239.871824,13.855192,-21.728847,-0.283085,-0.050538,1.008194
470,243.228809,17.883574,-13.061723,-0.315801,-0.154299,0.958633
471,249.393454,22.156100,-3.479057,-0.296269,-0.208621,0.961074
472,251.285573,24.048219,5.676356,-0.245121,-0.220584,1.050309
473,253.910124,24.353399,13.855192,-0.172976,-0.173953,1.223041
474,257.694362,25.757229,16.784924,-0.024903,-0.230228,1.317159
475,263.309682,29.785611,13.855192,0.162844,-0.246342,1.511986
476,268.436713,34.729534,4.699779,0.263920,-0.281010,1.640406
477,278.324559,44.007019,-9.094377,0.299199,-0.342046,1.729152
478,284.061952,54.871443,-21.301595,0.312993,-0.451789,1.604150
479,283.207446,61.524376,-31.372549,0.286381,-0.551034,1.396994
480,272.770275,59.266041,-39.551385,0.260502,-0.586801,1.236103
481,254.947738,53.040360,-46.326390,0.237430,-0.570199,1.210346
482,235.049973,48.096437,-52.613108,0.225711,-0.508309,1.375998
483,216.800183,47.547112,-58.411536,0.194583,-0.441901,1.791897
484,209.719997,47.241932,-63.843748,0.171756,-0.434455,1.999969
485,224.551766,49.500267,-70.008392,0.124025,-0.494636,1.999969
486,246.646830,54.932479,-73.609522,0.052491,-0.559213,1.999969
487,252.872511,59.571221,-71.717403,-0.010010,-0.641001,1.999969
488,253.055619,60.425727,-66.895552,-0.034424,-0.716808,1.790311
489,247.623407,60.914015,-60.791943,-0.013184,-0.726940,1.664088
490,234.073396,62.500954,-55.298695,0.057252,-0.760266,1.604517
491,222.598611,66.285191,-51.758602,0.124758,-0.821057,1.521141
492,210.330358,68.055238,-50.720989,0.138430,-0.930800,1.444724
493,191.470207,66.773480,-49.561303,0.103761,-1.136614,1.428977
494,174.868391,66.285191,-47.119860,0.125124,-1.451560,1.397482
495,157.961395,71.534295,-42.908370,0.309209,-1.842679,1.276753
496,135.866331,85.694667,-39.673457,0.527962,-2.000031,1.009903
497,126.283665,101.258869,-30.457008,0.554940,-2.000031,0.338750
498,99.183642,104.921035,-37.598230,0.522103,-2.000031,-0.479744
499,46.204318,63.599603,-10.986496,0.245121,-2.000031,-0.813245
500,-26.062409,-11.596857,21.850919,0.098268,-1.686671,-0.216800
501,-54.749371,-68.482490,44.983597,0.072877,-1.282856,0.661997
502,-61.646448,-82.398718,57.373922,0.089967,-0.892958,1.324361
503,-58.533608,-67.811093,59.510185,0.235355,-1.155047,-1.335714
504,-174.135958,-78.370336,64.332036,0.245243,0.324956,0.755016
505,-143.129625,-92.042420,36.743725,0.255863,-0.232303,1.341207
506,-78.614481,-32.104982,31.250477,0.259892,1.030167,1.503929
507,-153.627832,-51.331350,27.588312,0.238895,0.669566,0.040894
508,-229.861906,-58.289464,29.358358,0.160037,0.049683,-0.436042
509,-278.080415,-47.302968,37.659266,0.081178,-0.152346,0.501961
510,-316.716259,-46.265354,44.739452,0.420783,-0.114504,1.999969
511,-276.981765,-6.225681,34.607462,0.422858,-0.349615,1.999969
512,-192.202640,1.525902,19.592584,0.313848,-0.412238,1.999969
513,-131.715877,26.977951,13.611048,-0.177127,-0.247807,1.928008
514,-138.796063,-14.892805,28.870069,-0.677134,-0.398688,1.999969
515,-48.950942,-26.672770,28.747997,-0.437263,-0.393439,1.145892
516,-17.761501,-55.909056,32.043946,0.120241,0.303349,1.199481
517,-69.153887,-59.021897,26.977951,0.522713,0.074464,1.427756
518,-30.579080,-42.786297,10.620279,0.133425,-0.077272,1.490867
519,-7.995727,-41.382467,3.601129,-0.153323,-0.016602,1.040177
520,-19.226368,-51.392386,5.432212,0.122927,0.138064,1.142962
521,-33.386740,-45.105669,4.577707,0.182376,0.033570,1.277241
522,-21.362631,-34.546426,1.098650,-0.004639,-0.007446,1.167010
523,-14.770733,-31.372549,0.549325,0.062867,0.043336,1.103410
524,-18.127718,-25.391012,1.037613,0.086793,0.056519,1.054582
525,-17.944610,-20.019837,0.732433,-0.005493,0.093751,0.909194
526,-30.884260,-18.432898,1.709010,0.102296,0.070924,1.100603
527,-33.264668,-10.559243,0.976577,0.083009,-0.049561,1.093156
528,-17.578393,-5.676356,0.427253,-0.008789,0.024781,1.006363
529,-26.184482,-6.530861,2.319371,0.033570,0.022461,1.025284
530,-25.085832,-5.432212,2.136263,0.007568,-0.031617,1.060319
531,-16.296635,-4.638743,1.037613,0.011475,0.015259,1.020890
532,-19.775692,-4.455634,1.098650,0.022461,0.009033,0.994400
533,-19.043259,-4.638743,0.671397,-0.018067,-0.000977,0.993423
534,-17.822538,-5.981537,0.366217,0.009766,0.006104,0.999649
535,-18.616007,-6.042573,0.915541,0.031373,-0.010132,1.007218
536,-18.249790,-6.347753,0.732433,-0.000366,-0.006592,0.988174
537,-18.005646,-7.263294,0.854505,0.028199,-0.009277,1.002213
538,-18.677043,-6.897078,0.976577,0.024048,-0.034791,1.027237
539,-16.906996,-6.530861,1.159686,0.015137,-0.026734,1.021500
540,-16.052491,-6.164645,1.159686,0.016358,-0.032593,0.994766
541,-14.526589,-5.920500,0.671397,0.019898,-0.005371,1.000259
542,-17.273213,-6.164645,0.732433,0.012329,-0.023804,1.008072
543,-16.174563,-6.103609,0.732433,0.029908,-0.029664,0.998062
544,-15.747311,-5.188067,0.976577,0.028687,-0.035523,1.000259
545,-16.418708,-4.943923,1.342794,0.020020,-0.034546,1.008438
546,-16.540780,-4.333562,1.403830,0.045411,-0.041871,0.987808
547,-17.578393,-3.479057,1.709010,0.035889,-0.036133,1.012345
548,-18.066682,-3.234913,2.075227,0.024781,-0.039307,0.986465
549,-18.982223,-4.211490,2.441444,0.026246,-0.021363,0.980484
550,-22.156100,-4.760815,2.441444,0.020752,-0.036378,0.994766
551,-21.789883,-5.249104,1.831083,0.034302,-0.058473,1.009903
552,-20.447089,-4.943923,1.464866,0.029297,-0.056519,0.993301
553,-21.484703,-5.127031,1.403830,0.031250,-0.061524,1.001114
554,-20.202945,-4.821851,1.403830,0.040528,-0.073610,1.026871
555,-18.554971,-3.906310,1.342794,0.032715,-0.072023,1.024063
556,-15.991455,-3.601129,1.525902,0.028321,-0.078004,0.987686
557,-14.465553,-3.845274,2.014191,0.036500,-0.049195,1.000259
558,-19.836728,-3.051804,2.258335,0.011597,-0.077516,0.970596
559,-17.639429,-3.784237,2.990768,0.045045,-0.058839,0.962539
560,-21.362631,-4.516670,2.868696,0.008789,-0.044068,0.938857
561,-29.724575,-6.408789,3.906310,0.070924,-0.049928,1.067399
562,-29.724575,-3.112840,3.723201,0.031250,-0.083864,1.010880
563,-30.151827,-2.441444,3.356985,0.061524,-0.072511,0.991592
564,-36.194400,-0.854505,3.540093,0.036011,-0.090089,0.988174
565,-38.208591,0.610361,3.662165,-0.014893,-0.121218,1.401877
566,-38.452735,3.173877,4.028382,0.005982,-0.124392,1.029557
567,-45.960174,3.418021,6.713970,0.067506,-0.114260,0.948501
568,-48.462654,6.286717,9.704738,0.026734,-0.114015,1.022477
569,-48.828870,8.422980,11.169604,0.052125,-0.135744,1.003799
570,-50.720989,10.315099,13.000687,0.024781,-0.211185,1.059709
571,-40.650034,10.131991,10.498207,-0.029053,-0.166140,1.059586
572,-30.518044,9.338521,6.836042,-0.006958,-0.102541,0.946426
573,-33.508812,8.239872,0.671397,-0.013672,-0.164309,0.993668
574,-30.151827,4.821851,-5.554284,-0.150515,-0.184573,1.024430
575,-15.197986,4.211490,-11.291676,-0.016358,-0.182254,0.949111
576,-31.250477,-4.211490,-22.034028,0.033204,-0.243290,1.089860
577,-27.100023,-5.127031,-16.357671,0.091798,-0.294438,0.994522
578,-6.652934,-3.723201,-7.568475,0.138552,-0.207767,1.140764
579,6.713970,3.234913,-11.657893,0.016602,-0.135744,1.099748
580,-17.578393,2.746624,-15.197986,-0.007324,0.100465,1.007706
581,-55.237659,3.723201,-16.052491,0.093874,0.151003,0.838636
582,-107.545586,15.259022,-8.667124,0.117067,0.232303,0.955947
583,-148.378729,22.827497,-11.169604,0.000855,0.444709,0.661387
584,-149.416342,-5.737392,-8.361944,-0.250370,0.259281,0.787976
585,-269.962615,-11.596857,0.488289,0.062989,0.997940,1.378073
586,-497.261006,-21.667811,-8.850233,-0.134035,0.276371,1.220722
587,-659.189746,-75.623713,32.227054,-0.282597,0.305180,1.763455
588,-766.308080,-93.690394,37.903410,0.099977,-0.033448,1.558373
589,-820.935378,-85.572595,43.152514,0.247929,-0.392584,1.174945
590,-1073.136492,-108.705272,159.731441,-1.090471,-0.692027,1.999969
591,-402.777142,-39.185168,90.272374,-1.310689,-1.084245,1.999969
592,258.487831,8.484016,-45.471885,-0.495979,0.533455,1.999969
593,244.266423,17.456321,-22.461280,-0.191043,1.264302,1.040177
594,34.424353,-32.898451,14.404517,-0.462287,0.797009,1.195087
595,-107.423514,-90.394446,48.523690,-0.216190,0.414679,1.000015
596,-7.324331,-55.909056,37.293050,0.011841,0.160647,1.019303
597,118.593118,-13.977264,11.169604,0.037598,0.504158,0.560189
598,67.994202,-10.681315,4.577707,0.142702,0.574350,0.574105
599,38.696880,-12.268254,1.525902,0.024659,0.417731,0.961440
600,97.535668,-18.249790,-6.958114,-0.030640,0.426642,1.094499
601,134.340429,-35.828183,-10.437171,-0.028565,0.531014,1.085344
602,141.054398,-53.772793,-12.146181,0.009033,0.493904,1.191913
603,172.854200,-50.659953,-20.996414,0.037720,0.427619,1.198383
604,200.137331,-33.813993,-32.837415,0.023194,0.397345,1.050919
605,206.057832,-16.174563,-41.504540,-0.039551,0.297002,0.965347
606,216.433967,-1.403830,-47.058824,-0.105470,0.188968,0.953506
607,231.021592,8.300908,-48.706798,-0.152224,0.161868,1.000504
608,239.078355,12.085145,-46.997787,-0.165042,0.104250,1.129412
609,251.895933,14.892805,-43.823911,-0.160647,0.064698,1.299702
610,270.206760,18.066682,-41.016251,-0.093141,0.041016,1.436423
611,288.029297,21.850919,-40.100710,-0.009888,0.018067,1.466331
612,302.067597,23.620966,-40.955215,0.065187,-0.031861,1.440818
613,311.100938,24.963760,-44.861524,0.105470,-0.176028,1.199481
614,308.171206,33.386740,-51.087205,0.174197,-0.346807,0.886244
615,286.320287,52.857252,-57.312886,0.221927,-0.436042,0.768444
616,259.891661,72.266728,-60.975052,0.201053,-0.403082,0.943740
617,239.993896,82.459754,-63.904784,0.206302,-0.264775,1.193988
618,224.734875,81.727321,-65.674830,0.185183,-0.261845,1.671656
619,216.678111,84.351873,-62.561990,0.136477,-0.294804,1.999969
620,224.612802,82.032502,-58.838788,0.088624,-0.384161,1.999969
621,243.717098,82.215610,-53.101396,0.039796,-0.557259,1.999969
622,255.313954,87.586786,-43.640803,0.016114,-0.634775,1.999969
623,256.412604,83.375296,-31.555657,0.018921,-0.691539,1.999969
624,271.366445,74.097810,-21.362631,0.045533,-0.785168,1.999969
625,297.306783,72.938125,-16.296635,0.168093,-0.870008,1.999969
626,296.818494,81.788357,-14.404517,0.355474,-0.883192,1.833646
627,276.859693,90.150301,-15.014878,0.366339,-0.979507,1.746242
628,265.384909,89.295796,-13.916228,0.298589,-1.125994,1.674342
629,254.398413,78.980697,-9.094377,0.236088,-1.275776,1.664454
630,236.758984,65.796902,-1.098650,0.190066,-1.539208,1.617334
631,221.438926,58.655680,6.286717,0.220340,-1.884184,1.348043
632,194.644083,61.463340,10.254063,0.474372,-2.000031,0.929091
633,156.191348,63.233387,18.188754,0.595712,-2.000031,0.865370
634,84.596017,84.290837,-10.498207,1.065446,-2.000031,0.080201
635,74.464027,116.212711,-41.687648,0.601938,-2.000031,-0.277470
636,33.386740,94.728008,-31.433585,-0.125978,-2.000031,-0.800305
637,-136.964981,-5.188067,13.977264,-0.206424,-2.000031,-2.000031
638,-310.490578,-176.821546,56.580453,0.453376,-2.000031,-0.560555
639,-173.769741,-141.969940,37.964446,0.413703,-0.375860,1.999969
640,-113.710231,-57.495995,18.738079,-0.453986,1.039445,1.999969
641,-170.107576,-64.148928,40.161746,-0.700328,0.825330,0.747936
642,-310.856794,-105.775540,63.050278,-0.138918,-0.340215,-0.005127
643,-320.805676,-83.192187,75.562676,0.320684,-0.522225,1.576074
644,-291.264210,-53.528649,74.219883,1.102800,-0.214237,1.999969
645,-213.260090,-8.789197,44.861524,1.543114,-0.227909,1.999969
646,-130.434119,19.592584,1.709010,0.942885,-0.002686,1.488670
647,-135.378042,31.799802,-12.695506,-0.372076,-0.103151,1.536278
648,-177.676051,-14.465553,13.000687,-1.536034,-0.642710,1.999969
649,-74.341955,-81.055924,32.776379,-0.729625,-0.542977,1.448264
650,-33.386740,-110.536355,21.911955,1.299092,0.192752,1.999969
651,-39.429313,-46.082246,7.385367,1.112688,0.047608,1.501366
652,-38.574807,-14.038300,-5.981537,-0.739269,0.071656,1.037369
653,-57.801175,-56.580453,13.183795,-0.219974,0.024537,1.291035
654,-22.156100,-48.401617,3.356985,0.618540,0.134157,1.232563
655,-38.269627,-20.019837,-0.183108,0.040284,0.135866,1.269429
656,-48.706798,-21.484703,3.356985,-0.125490,-0.143923,1.143450
657,-3.662165,-21.728847,-3.967346,0.121096,0.054322,1.051286
658,-25.452049,-14.709697,-0.671397,0.118166,0.020264,1.092912
659,-24.353399,-9.399557,2.868696,0.009277,-0.042969,1.122332
660,-9.948882,-5.249104,2.441444,0.129641,0.039673,1.025528
661,-19.653620,0.122072,4.028382,0.039429,0.008179,1.047379
662,-16.235599,0.732433,4.760815,0.024659,-0.007568,1.037858
663,-13.855192,1.525902,4.272526,0.052979,0.046998,1.020645
664,-15.808347,1.464866,4.943923,0.023438,0.021607,1.025895
665,-14.099336,0.915541,3.723201,0.000977,0.022583,0.991104
666,-15.442130,-0.976577,2.502480,-0.014038,0.047364,1.003799
667,-18.066682,-3.295949,2.685588,0.003174,0.005249,0.985122
668,-17.883574,-4.028382,2.014191,0.009277,0.004395,1.000137
669,-19.836728,-5.188067,2.014191,0.023072,-0.022950,1.019547
670,-16.845960,-4.638743,1.709010,0.032837,-0.001221,0.993912
671,-19.409476,-5.004959,2.258335,0.015381,0.003540,0.995010
672,-17.639429,-5.432212,1.892119,0.025269,-0.026612,1.008682
673,-16.235599,-5.493248,1.464866,0.037964,-0.035157,1.039689
674,-13.366903,-4.821851,0.854505,0.027955,-0.038941,1.032364
675,-11.474784,-4.821851,0.366217,0.032837,-0.030762,1.014298
676,-9.643702,-4.577707,0.000000,0.022827,-0.034546,1.006241
677,-10.254063,-4.882887,0.488289,0.023194,-0.015991,1.024552
678,-7.934691,-4.577707,0.732433,0.030396,-0.044923,0.976211
679,-8.361944,-5.188067,0.671397,0.012207,-0.024903,0.971939
680,-11.474784,-6.286717,0.854505,0.028687,-0.021729,0.995132
681,-10.864424,-6.713970,0.305180,0.026001,-0.026490,1.002701
682,-11.657893,-7.263294,-0.183108,0.026978,-0.034546,0.990494
683,-12.451362,-7.202258,-0.244144,0.048951,-0.040162,1.006973
684,-12.451362,-6.897078,-0.366217,0.032349,-0.042359,0.987076
685,-13.244831,-7.019150,-0.671397,0.043091,-0.032715,0.975113
686,-16.052491,-7.324331,-0.366217,0.035401,-0.061769,1.018082
687,-12.817578,-7.080186,0.000000,0.047120,-0.054566,0.996231
688,-13.427939,-6.836042,0.366217,0.054688,-0.048829,0.986343
689,-14.709697,-6.530861,1.159686,0.043458,-0.047242,0.979019
690,-16.113527,-6.530861,1.220722,0.036866,-0.036011,0.950332
691,-20.263981,-7.263294,1.220722,0.045045,-0.039063,0.961440
692,-22.705425,-7.812619,0.854505,0.036866,-0.030274,0.951431
693,-25.635157,-8.545052,1.464866,0.056519,-0.023804,1.013687
694,-28.931106,-6.408789,0.671397,0.094362,-0.056397,1.033219
695,-30.579080,-2.990768,0.732433,0.054566,-0.044068,1.035904
696,-30.579080,-1.831083,0.366217,0.035767,-0.061891,0.967788
697,-33.875029,-2.441444,1.098650,0.038453,-0.084840,0.995499
698,-33.508812,1.953155,1.464866,-0.062989,-0.153567,0.919814
699,-32.837415,-1.525902,5.554284,0.096559,-0.031250,1.063371
700,-44.190127,3.723201,5.127031,0.012573,-0.077272,1.026627
701,-51.148241,0.610361,6.713970,0.046632,-0.053956,0.962905
702,-52.185855,1.464866,1.037613,0.035645,-0.068116,1.001114
703,-56.214237,1.709010,-1.586938,0.031373,-0.131594,1.036881
704,-43.335622,2.014191,-8.667124,-0.021363,-0.134890,1.041642
705,-42.664225,3.845274,-14.221408,0.022950,-0.080201,0.878431
706,-58.777752,1.525902,-20.263981,-0.016114,-0.258061,0.941787
707,-49.500267,-4.150454,-22.644388,0.063233,-0.243534,1.058732
708,-29.602502,-2.990768,-21.972992,0.224735,-0.281132,0.986343
709,-11.047532,-0.854505,-11.718929,0.183230,-0.165652,0.974136
710,-17.944610,0.366217,3.784237,0.138430,-0.077394,1.124651
711,-46.692607,16.968032,-3.967346,0.163088,0.056031,0.994522
712,-67.383841,24.963760,-10.070954,0.113161,0.151492,0.959609
713,-107.301442,29.541466,-14.282444,-0.018189,0.405890,0.771740
714,-181.643397,22.095064,-30.151827,-0.159792,0.577279,0.511116
715,-218.753338,-21.728847,-9.399557,-0.250980,0.230594,0.633433
716,-310.307469,-45.105669,-4.272526,-0.097169,0.798596,1.322652
717,-493.171588,-104.005493,-23.193713,-0.543465,0.331304,1.257588
718,-701.731899,-162.722210,13.672084,0.133547,0.274418,1.311421
719,-840.772107,-174.196994,31.860838,0.178225,-0.145510,1.368795
720,-896.559091,-130.739300,56.519417,1.133928,-2.000031,1.999969
721,-911.757076,-17.456321,206.912337,-0.897108,-0.088014,1.999969
722,3.662165,36.377508,-52.674144,-0.335332,-1.144060,1.999969
723,379.583429,93.446250,-34.180209,-0.590951,0.583139,1.999969
724,190.310521,65.552758,-28.259709,-0.531258,0.546639,0.918715
725,3.173877,-44.373236,61.097124,-0.603403,0.496590,0.088869
726,-60.242618,-107.911803,78.919661,-0.096925,0.292119,0.452155
727,49.011978,-73.975738,53.650721,0.091920,0.219730,0.718761
728,104.005493,-26.001373,29.480430,0.194583,0.599619,0.616342
729,58.167391,8.056764,13.427939,0.231205,0.565560,0.753063
730,62.439918,30.334936,-1.770047,0.078614,0.430182,0.886122
731,110.719463,29.724575,-14.709697,-0.006958,0.440314,0.873793
732,123.292897,12.085145,-17.029068,-0.084718,0.440681,0.925063
733,133.363851,-2.441444,-15.686275,-0.122316,0.338384,1.112810
734,163.637751,-2.929732,-16.296635,-0.137697,0.287114,1.242817
735,188.540475,5.371176,-16.357671,-0.137331,0.252934,1.287373
736,206.118868,15.869383,-15.503166,-0.155886,0.159792,1.302022
737,229.190509,28.442817,-13.672084,-0.159060,0.067994,1.249897
738,248.233768,37.170977,-10.742351,-0.141482,-0.006470,1.094621
739,256.778820,41.016251,-6.713970,-0.096681,-0.054200,1.034195
740,261.356527,41.077287,-2.807660,-0.018311,-0.072999,1.101823
741,265.934234,37.476158,-1.281758,0.072145,-0.062745,1.296773
742,275.150683,35.095750,-3.723201,0.184573,-0.082765,1.471092
743,288.273442,36.865797,-10.864424,0.286870,-0.154177,1.421897
744,296.208133,41.870756,-23.193713,0.369757,-0.283085,1.117082
745,288.944839,53.772793,-37.964446,0.405402,-0.425055,0.788586
746,261.539635,69.031815,-48.889906,0.356817,-0.452644,0.724254
747,225.223163,72.693980,-54.261082,0.273075,-0.397833,1.044938
748,204.715038,63.904784,-55.970092,0.228885,-0.341680,1.657862
749,206.607156,57.312886,-56.519417,0.188724,-0.343755,1.999969
750,224.917983,58.472572,-56.580453,0.129763,-0.439216,1.999969
751,245.548180,64.820325,-54.932479,0.060792,-0.545052,1.999969
752,253.665980,69.459068,-49.195087,-0.038087,-0.591928,1.999969
753,253.299763,64.026856,-39.368276,-0.080323,-0.639414,1.999969
754,270.328832,58.594644,-31.189441,-0.015869,-0.707652,1.999969
755,290.104524,61.341268,-26.733806,0.099123,-0.707530,1.980011
756,282.169833,66.590372,-24.597543,0.215579,-0.733410,1.649805
757,270.389868,68.848707,-25.452049,0.266361,-0.711315,1.569238
758,254.459449,66.712444,-26.977951,0.267704,-0.717784,1.678737
759,243.961242,64.454108,-28.320745,0.234012,-0.826673,1.714137
760,238.895247,65.308614,-28.992142,0.142947,-1.015396,1.596826
761,224.673838,67.689021,-25.940337,0.053834,-1.298604,1.323018
762,201.907378,70.862898,-19.653620,0.034791,-1.675074,1.009537
763,166.201267,79.041733,-10.803388,0.216068,-2.000031,0.754284
764,118.959335,89.051652,-2.624552,0.597177,-2.000031,0.738415
765,80.750744,103.517205,-10.376135,0.781750,-2.000031,0.689830
766,77.088579,113.405051,-14.526589,0.791028,-2.000031,-0.043214
767,47.974365,66.407263,1.770047,0.678111,-2.000031,-0.756725
768,-30.762188,-30.518044,26.855879,0.612192,-1.826810,-0.372564
769,-72.816052,-101.441978,40.161746,0.491218,-1.436423,0.705333
770,-110.963607,-146.791791,13.977264,0.803479,-1.743069,-0.357671
771,-181.826505,-99.488823,14.648661,0.139651,0.378790,1.371359
772,-133.852140,-79.530022,-5.981537,-0.504891,0.384405,1.964630
773,-71.656367,-44.495308,-2.624552,-0.750622,0.952407,0.904555
774,-209.170672,-62.195773,23.376822,-0.854505,0.232547,-0.828504
775,-284.672313,-70.862898,50.171664,-0.450568,-0.168093,-0.423224
776,-343.694209,-85.572595,72.510872,0.503792,-0.074952,1.999969
777,-311.100938,-31.311513,59.205005,1.239521,-0.487068,1.999969
778,-178.591592,18.127718,19.775692,1.187396,-0.104738,1.999969
779,-138.124666,45.410849,-7.019150,0.436530,0.002808,1.999969
780,-159.060044,25.085832,7.690547,-1.292378,-0.460700,1.999969
781,-61.219196,-10.925460,22.766461,-1.193622,-0.736950,1.223651
782,-18.432898,-64.698253,35.156786,0.057496,0.318608,1.297749
783,-59.937438,-65.980011,32.715343,1.077531,0.277592,1.568017
784,-32.043946,-28.442817,10.193027,0.081422,0.053956,1.506249
785,-27.222095,-36.011292,14.343481,-0.605478,-0.073976,0.832654
786,-25.696193,-64.271000,14.892805,0.090089,0.211795,1.098528
787,-35.339895,-51.453422,5.371176,0.494148,0.129763,1.315816
788,-35.095750,-28.809033,3.906310,-0.159670,0.024659,1.178729
789,-29.602502,-33.752956,3.234913,-0.078492,0.038453,1.109148
790,-25.879301,-28.931106,1.220722,0.210819,0.055909,1.252461
791,-21.789883,-13.794156,1.525902,0.042237,0.045533,1.077043
792,-19.409476,-8.911269,2.075227,-0.011353,0.081910,1.043839
793,-22.583352,-6.897078,2.746624,0.085573,0.046021,1.040299
794,-18.982223,-0.732433,1.586938,0.005371,0.051881,1.032975
795,-20.569162,0.671397,2.685588,-0.024170,0.058473,1.009781
796,-20.935378,0.488289,2.746624,0.011231,0.030152,1.024308
797,-20.019837,1.159686,2.807660,-0.046876,0.025757,0.997330
798,-20.569162,0.732433,2.014191,0.013184,0.044312,1.016007
799,-20.263981,2.746624,2.380407,-0.019165,0.051881,0.987686
800,-22.766461,2.441444,2.807660,-0.012451,0.031373,1.019913
801,-21.484703,4.028382,2.807660,-0.006226,0.010498,1.048600
802,-18.738079,5.737392,3.234913,-0.009155,0.020874,1.016129
803,-18.554971,5.981537,3.479057,-0.015991,0.020386,1.003677
804,-17.822538,5.310140,3.418021,-0.028809,0.023926,0.972183
805,-18.310826,4.272526,0.915541,-0.047974,-0.000488,0.883925
806,-20.202945,1.770047,2.685588,-0.061402,0.039063,1.025895
807,-21.423667,-0.244144,3.051804,-0.031006,-0.004639,1.026749
808,-16.784924,0.061036,2.441444,-0.020874,-0.016480,0.993668
809,-16.479744,0.854505,2.563516,-0.007202,-0.003906,1.033341
810,-14.160372,2.014191,2.441444,-0.031617,-0.001221,0.991592
811,-14.404517,2.258335,2.563516,-0.018433,-0.001953,1.007218
812,-14.526589,2.197299,2.746624,-0.042115,0.001831,0.987808
813,-14.831769,0.183108,2.075227,-0.041871,0.005737,0.981094
814,-18.860151,-1.953155,1.892119,-0.043214,-0.018067,1.007218
815,-16.968032,-1.220722,0.671397,-0.035645,0.071534,1.222553
816,-9.643702,-0.671397,0.732433,-0.028687,-0.040406,1.093400
817,-14.648661,-3.356985,1.586938,-0.023438,-0.042603,0.956435
818,-10.498207,-3.112840,1.037613,-0.031617,-0.025879,1.011978
819,-9.948882,-3.540093,0.732433,-0.029297,-0.015259,1.005753
820,-12.329290,-4.394598,1.037613,-0.020874,-0.025635,1.003433
821,-12.268254,-3.723201,1.220722,-0.014038,-0.013550,1.023453
822,-13.305867,-3.295949,1.709010,-0.005493,-0.014038,1.023087
823,-11.230640,-1.953155,1.647974,-0.012085,-0.015991,1.010025
824,-12.024109,-2.136263,1.586938,-0.019654,-0.010742,0.986831
825,-13.305867,-2.746624,1.586938,-0.034668,-0.008545,0.945571
826,-16.235599,-2.014191,0.549325,0.092775,-0.046876,0.701427
827,-20.691234,-4.943923,2.441444,-0.030152,0.042847,1.085466
828,-30.884260,-8.361944,3.356985,-0.048951,-0.028199,0.925063
829,-36.621653,-11.169604,4.577707,0.003662,-0.024048,0.984634
830,-42.114900,-9.155413,4.333562,0.000366,-0.052735,1.002457
831,-38.391699,-8.606088,2.807660,-0.006592,-0.056886,1.014664
832,-34.729534,-7.263294,0.976577,-0.036500,-0.055055,0.984390
833,-37.109941,-7.263294,1.709010,-0.071778,-0.047608,1.005386
834,-37.781338,-8.056764,2.807660,0.012696,-0.076661,1.034440
835,-38.879988,-5.920500,4.089418,-0.034424,-0.121096,1.021134
836,-29.846647,-4.150454,4.455634,0.014771,-0.105592,1.017227
837,-19.836728,-0.366217,6.897078,-0.050660,-0.047242,1.071427
838,-20.630198,-3.356985,-0.305180,-0.046632,-0.069337,0.988174
839,-25.757229,-6.530861,-1.220722,-0.057252,-0.044434,0.995010
840,-33.264668,-9.948882,-1.647974,-0.058961,-0.055543,0.948257
841,-40.344854,-16.723888,-8.178836,-0.043946,-0.033326,1.085466
842,-54.322118,-20.080873,-20.630198,-0.018799,-0.000366,0.962905
843,-64.271000,-20.141909,-19.409476,0.062623,-0.218387,1.019547
844,-58.472572,-9.399557,-5.554284,0.031617,-0.168460,1.038102
845,-27.893492,8.178836,-6.775006,0.227543,-0.528817,0.611704
846,-37.293050,-7.446403,-9.643702,0.083619,-0.155520,0.945449
847,-41.321431,-3.906310,-9.887846,0.042603,-0.116335,0.959365
848,-68.909743,-4.333562,-16.418708,-0.023804,0.022705,0.975723
849,-74.708171,-7.873655,-20.386053,0.058717,0.088502,0.868299
850,-104.493782,-9.582666,-13.366903,0.073365,0.222538,0.791150
851,-147.646296,-3.234913,-17.273213,0.097292,0.369512,0.795544
852,-206.546120,6.958114,-30.701152,0.302617,0.571054,0.894179
853,-345.952544,3.295949,-49.195087,0.262577,0.615244,1.251484
854,-540.840772,15.014878,3.234913,-0.091066,0.967422,1.999969
855,-715.403983,0.061036,39.734493,-0.156497,-0.023804,1.340719
856,-770.702678,5.065995,70.008392,0.203738,-0.126711,0.976577
857,-824.292363,13.000687,46.387427,0.111208,-0.888808,1.012955
858,-990.432593,-12.146181,183.413443,-1.711330,-0.842542,1.999969
859,-419.317922,-48.706798,15.197986,-1.287129,-1.931426,1.999969
860,98.573281,-31.494621,-28.809033,-0.770397,0.051392,1.999969
861,20.935378,-9.399557,-21.606775,-0.541878,0.974746,1.999969
862,-154.238193,-49.683375,63.721675,-0.692760,0.711559,1.999969
863,-156.374456,-94.300755,94.483864,-0.315801,0.327520,1.999969
864,34.973678,-69.642176,85.206378,-0.104616,0.505867,1.999969
865,119.996948,-69.825284,72.144656,0.110964,0.799817,1.640406
866,103.639277,-78.431373,61.951629,0.309331,0.733654,1.671168
867,141.237507,-62.684062,40.222782,0.362188,0.560189,1.630030
868,207.034409,-37.293050,7.385367,0.359991,0.508064,1.229389
869,220.889601,-26.062409,-17.395285,0.312383,0.394415,0.792737
870,223.147936,-21.667811,-35.400931,0.207889,0.212772,0.561654
871,233.707179,-24.170291,-48.279545,0.063600,0.118410,0.373297
872,233.157855,-34.973678,-54.200046,-0.057496,0.056397,0.276127
873,225.101091,-48.706798,-53.528649,-0.168093,0.000366,0.448615
874,224.185550,-59.815366,-50.659953,-0.251591,-0.031250,0.686656
875,230.228122,-64.515145,-46.814679,-0.299809,-0.024537,0.942275
876,236.942092,-61.158160,-42.786297,-0.334112,-0.029297,1.194476
877,247.257191,-49.500267,-40.100710,-0.352300,-0.055055,1.516991
878,265.995270,-31.433585,-36.560616,-0.380621,-0.107912,1.716579
879,289.616236,-9.277485,-32.898451,-0.387579,-0.167605,1.788479
880,309.330892,11.291676,-27.405203,-0.385748,-0.270146,1.706691
881,326.176852,26.550698,-20.141909,-0.376226,-0.358648,1.535424
882,332.524605,34.729534,-12.756542,-0.256718,-0.443000,1.361471
883,327.763790,43.518730,-9.033341,-0.094118,-0.557137,1.093523
884,316.289006,49.439231,-11.413748,0.078614,-0.584848,0.867933
885,291.752499,57.801175,-18.005646,0.253666,-0.545174,0.699229
886,249.637598,51.148241,-26.672770,0.278935,-0.531380,0.954482
887,225.772488,48.157473,-37.476158,0.310063,-0.452522,1.435935
888,203.738460,40.222782,-46.997787,0.249638,-0.340093,1.999969
889,207.766842,37.109941,-55.970092,0.179324,-0.399176,1.999969
890,255.863279,45.838102,-67.505913,0.151369,-0.549447,1.999969
891,293.278401,58.838788,-74.952316,0.086183,-0.591562,1.999969
892,289.494163,64.026856,-76.905470,0.050294,-0.703502,1.999969
893,287.174792,70.740826,-77.943084,0.067262,-0.793591,1.927886
894,280.949111,80.567636,-78.858625,0.092287,-0.804211,1.813993
895,264.774548,89.051652,-77.576867,0.072633,-0.841199,1.807767
896,255.497063,96.498054,-74.708171,0.056153,-0.857679,1.784207
897,244.754711,103.273060,-71.473259,0.133059,-0.916152,1.712673
898,223.636225,118.898299,-67.627985,0.194339,-1.124651,1.664820
899,197.817960,134.523537,-59.815366,0.151247,-1.504784,1.729885
900,172.549020,138.796063,-44.190127,0.274174,-2.000031,1.790799
901,144.838636,140.138857,-25.207904,0.464607,-2.000031,1.694118
902,140.871290,159.365225,-14.404517,0.648081,-2.000031,0.701183
903,175.173571,172.243839,-25.452049,0.604746,-2.000031,-0.859022
904,116.334783,127.443351,-13.427939,0.346197,-2.000031,-2.000031
905,-36.987869,12.146181,26.184482,0.068605,-2.000031,-1.496239
906,-187.563897,-136.720836,47.852293,0.246952,-2.000031,-1.629419
907,-301.762417,-244.266423,65.918975,0.863416,-1.137224,0.843275
908,-194.338903,-192.019532,41.687648,0.428840,-0.064698,1.999969
909,-99.305715,-143.923095,20.996414,-0.222904,1.098772,1.999969
910,-152.224002,-118.165866,35.950256,-0.552865,0.636118,0.519173
911,-274.235142,-112.672618,64.393072,-0.015381,0.023072,-0.598886
912,-332.768750,-115.053025,68.909743,0.814466,-0.430549,0.362799
913,-358.159762,-86.915389,66.651408,1.681178,-0.144045,1.999969
914,-295.658808,-39.856565,25.329976,1.894194,-0.317510,1.999969
915,-151.735714,26.245518,-28.625925,0.152346,-0.349371,1.999969
916,-172.304875,12.573434,-0.976577,-2.000031,-0.355596,1.999969
917,-146.303502,-85.694667,49.378195,-1.847196,-1.070695,1.433860
918,-23.559930,-156.557565,43.579767,1.138201,0.302129,1.999969
919,-26.184482,-81.910430,27.405203,1.999969,0.478279,1.999969
920,-36.865797,16.296635,-4.638743,-0.284550,0.075563,0.833143
921,-61.768521,-25.635157,4.089418,-1.075578,-0.196048,1.019303
922,-38.574807,-65.064469,9.948882,0.605112,0.037598,1.218769
923,-32.715343,-27.466239,-6.225681,0.432380,0.025147,1.490135
924,-42.664225,-19.897765,-1.098650,-0.332769,-0.190799,1.142840
925,-1.709010,-30.334936,-3.479057,0.164920,0.049073,1.001358
926,-16.479744,-21.972992,-2.563516,0.095094,0.084596,0.988663
927,-29.846647,-20.202945,1.525902,-0.039429,-0.071901,1.133440
928,-7.507439,-16.906996,0.366217,0.121096,0.019898,1.065324
929,-12.939651,-8.422980,1.892119,0.132692,0.040040,0.990127
930,-20.325017,-1.831083,3.784237,0.072633,0.017334,1.071427
931,-14.099336,1.831083,4.150454,0.078614,0.008301,1.036881
932,-15.686275,5.310140,4.211490,0.038209,-0.008057,1.014664
933,-14.648661,4.821851,3.906310,0.015503,-0.025635,0.930800
934,-12.878614,1.709010,3.234913,0.005615,0.013916,0.972915
935,-18.371862,-1.892119,2.563516,-0.032471,0.015137,0.976822
936,-16.357671,-5.371176,1.464866,-0.008667,-0.028321,1.035294
937,-10.986496,-6.775006,0.305180,0.035523,-0.079957,0.992081
938,-10.009918,-6.286717,0.671397,0.042359,-0.041138,1.028702
939,-6.286717,-4.882887,0.122072,0.046754,-0.071168,0.959487
940,-5.004959,-4.150454,0.976577,0.033204,-0.056397,1.052018
941,-4.211490,-3.845274,1.586938,0.049928,-0.009644,1.011612
942,-2.685588,-2.197299,2.014191,0.058106,0.010376,1.009415
943,-5.127031,-1.098650,2.258335,0.045655,-0.023804,0.985611
944,-3.418021,-0.305180,2.014191,0.036133,-0.047364,0.960220
945,-5.432212,-0.732433,1.525902,0.000488,0.023072,0.973648
946,-8.422980,-2.624552,1.586938,0.011353,0.016602,0.988663
947,-9.155413,-3.601129,0.854505,0.019165,-0.014771,0.954482
948,-11.657893,-4.821851,0.305180,0.010742,-0.020508,0.977798
949,-10.986496,-5.371176,0.061036,0.038697,-0.078981,0.937026
950,-10.864424,-6.225681,0.244144,0.037110,-0.078614,0.976089
951,-11.291676,-7.324331,-0.244144,0.046387,-0.048951,0.991470
952,-13.244831,-7.263294,-0.122072,0.044923,-0.047364,1.030655
953,-9.887846,-6.591897,0.244144,0.030640,-0.007813,1.012467
954,-9.826810,-6.469825,0.549325,0.034180,-0.004150,0.963027
955,-14.160372,-7.202258,0.305180,0.047730,-0.020874,0.975357
956,-16.418708,-7.019150,0.305180,0.044678,-0.027832,1.001602
957,-18.249790,-6.042573,0.915541,0.056153,-0.035279,0.999527
958,-18.799115,-4.760815,1.159686,0.050904,-0.037598,0.992691
959,-20.386053,-3.784237,1.647974,0.051637,-0.047852,0.989761
960,-19.470512,-3.479057,1.892119,0.046998,-0.039429,0.985489
961,-19.348440,-2.746624,1.403830,0.039307,-0.005859,0.952651
962,-29.053178,-4.028382,1.709010,0.029053,-0.040040,0.956802
963,-27.344167,-4.516670,1.220722,0.037598,-0.056031,0.955581
964,-30.701152,-6.164645,1.709010,0.097169,0.025879,1.128557
965,-34.546426,-1.892119,0.671397,0.037720,-0.056519,0.935439
966,-35.889220,-2.075227,0.000000,0.050782,-0.072511,1.014786
967,-38.391699,-1.647974,-0.610361,0.022461,-0.091432,1.033097
968,-34.180209,-1.159686,-1.037613,0.060182,-0.079957,0.978042
969,-34.790570,0.610361,0.061036,0.075685,-0.055177,0.940322
970,-47.058824,4.272526,4.577707,0.094972,-0.104616,1.065080
971,-50.476844,7.202258,7.263294,0.037110,-0.126955,1.022599
972,-42.664225,8.117800,6.042573,0.029786,-0.089845,1.036393
973,-47.241932,7.751583,4.333562,-0.006226,-0.099245,0.988418
974,-46.143282,4.516670,0.671397,-0.029053,-0.105226,1.019669
975,-37.781338,2.624552,-5.493248,-0.012940,-0.148806,0.958389
976,-26.184482,1.281758,-13.427939,-0.039185,-0.247074,1.009781
977,-32.227054,-0.488289,-28.259709,0.015381,-0.218875,0.976211
978,-41.077287,-2.929732,-26.062409,0.132448,-0.306645,1.038468
979,-21.667811,-3.295949,-12.573434,0.184085,-0.209720,1.099504
980,-8.178836,1.037613,-7.873655,0.119875,-0.314946,1.135393
981,-11.291676,7.995727,-1.525902,0.080568,0.058106,1.040299
982,-48.035401,21.606775,-16.357671,0.199466,0.246220,0.974258
983,-92.103456,37.109941,-18.554971,0.042359,0.313603,0.878676
984,-158.876936,42.481117,-23.498894,-0.015869,0.608652,0.581796
985,-211.795224,13.794156,-14.587625,-0.279789,0.299931,0.735363
986,-276.737621,-10.803388,5.127031,0.018555,1.250629,0.846326
987,-477.790494,-26.916915,-31.128405,0.204105,0.601572,1.353780
988,-705.455100,-84.962234,32.715343,-0.426398,0.103029,1.757351
989,-857.251850,-146.852827,73.731594,-0.041505,-0.080201,1.252583
990,-912.489509,-132.509346,84.718090,0.385626,-0.291386,0.867079
991,-1150.713359,-136.964981,186.770428,-0.718151,-1.233295,1.999969
992,-410.467689,-36.987869,76.844434,-1.337423,-1.724269,1.999969
993,265.079728,27.466239,-43.518730,-0.323247,0.761364,1.999969
994,265.568017,49.866484,-29.724575,-0.502937,1.357931,1.679225
995,57.923247,15.564202,14.892805,-0.647471,0.913588,1.272236
996,-62.867170,-65.125505,59.815366,-0.410651,0.467292,0.680186
997,-4.821851,-64.759289,59.266041,-0.093629,0.282597,0.643565
998,106.385901,-37.048905,36.865797,0.014038,0.439338,0.516732
999,87.281605,-22.949569,25.879301,0.213138,0.610361,0.599008
1000,62.012665,-15.747311,13.000687,0.229374,0.503426,0.935927
1001,113.405051,-13.672084,-6.164645,0.238407,0.526741,1.109514
1002,157.228962,-24.414435,-24.597543,0.243168,0.620615,1.138323
1003,168.642710,-38.086519,-38.269627,0.175540,0.540658,1.238056
1004,195.010300,-38.147555,-50.965133,0.131350,0.388067,1.246479
1005,227.115282,-22.217136,-65.918975,0.042359,0.295537,1.223529
1006,244.876783,-4.394598,-74.097810,-0.048707,0.180789,1.076188
1007,254.764630,6.225681,-76.112001,-0.167727,0.047974,1.035294
1008,266.971847,8.300908,-72.449836,-0.220218,-0.055543,0.978042
1009,276.554513,6.713970,-66.224155,-0.245975,-0.089845,1.038224
1010,281.254292,7.812619,-59.632258,-0.199832,-0.109499,1.081559
1011,288.334478,16.540780,-56.458381,-0.133059,-0.107424,1.160662
1012,290.348669,29.541466,-55.115587,-0.096193,-0.160159,1.178363
1013,287.357900,43.335622,-55.054551,-0.071778,-0.308598,1.008316
1014,278.568704,59.754330,-55.420768,0.023072,-0.423957,0.912123
1015,261.722744,73.975738,-53.894865,0.099367,-0.411994,1.010391
1016,246.768902,71.778439,-54.810407,0.166995,-0.335454,1.333150
1017,241.824979,69.581140,-59.143969,0.252323,-0.367926,1.883330
1018,242.191196,87.525750,-65.186542,0.268559,-0.381964,1.999969
1019,248.111696,110.231174,-65.735866,0.160403,-0.593271,1.999969
1020,266.971847,123.720150,-60.975052,0.061036,-0.652476,1.952789
1021,259.281300,118.898299,-47.913329,-0.039796,-0.687388,1.914946
1022,246.097505,93.629358,-30.884260,-0.036500,-0.760143,1.999969
1023,258.609903,79.591058,-18.127718,0.081300,-0.777722,1.999969
1024,278.080415,77.637903,-12.207218,0.204959,-0.794812,1.999969
1025,294.621195,80.567636,-11.535821,0.334966,-0.835096,1.999969
1026,299.748226,81.605249,-15.625238,0.487678,-0.817395,1.792874
1027,286.808576,77.637903,-22.827497,0.566659,-0.798474,1.698634
1028,272.098878,70.435645,-31.189441,0.506355,-0.865370,1.697902
1029,265.262837,62.317845,-38.635843,0.394781,-0.969253,1.671290
1030,252.384222,57.801175,-42.969406,0.233280,-1.153704,1.543236
1031,234.073396,59.937438,-43.335622,0.085817,-1.449241,1.299092
1032,208.072023,69.642176,-38.757916,0.022705,-1.830594,0.949966
1033,164.553292,84.168765,-28.992142,0.229007,-2.000031,0.638682
1034,107.057298,104.371710,-23.010605,0.489387,-2.000031,0.582284
1035,69.825284,133.974212,-24.963760,0.480476,-2.000031,0.528817
1036,45.654994,146.547646,-18.738079,0.353765,-2.000031,0.022705
1037,22.583352,98.023957,2.502480,0.034424,-2.000031,-0.254887
1038,-84.840162,-31.921874,39.246204,-0.027222,-2.000031,-1.912016
1039,-236.209659,-187.930114,78.980697,0.728283,-1.939483,-0.697276
1040,-246.097505,-192.751965,63.172351,0.899428,-0.977066,1.231098
1041,-126.710918,-114.564736,28.809033,0.074220,0.501595,1.999969
1042,-132.326238,-84.534981,39.917601,-0.301152,1.070329,1.955840
1043,-225.284199,-94.789044,59.082933,0.132082,0.361578,-0.071412
1044,-280.582895,-93.018997,55.054551,0.610239,-0.338994,-0.015869
1045,-310.002289,-77.088579,52.307927,0.952041,-0.099855,1.999969
1046,-279.606317,-41.504540,34.729534,1.101213,-0.251957,1.999969
1047,-156.679637,13.488975,0.000000,0.421027,-0.306767,1.912627
1048,-132.753491,41.626612,-5.981537,-0.338018,-0.064698,1.451560
1049,-179.873350,23.804074,27.954528,-1.331319,-0.023194,1.999969
1050,-140.260929,-57.495995,41.992828,-0.770520,-0.735607,1.838895
1051,-28.747997,-105.226215,32.288090,0.473640,0.236088,1.985992
1052,-66.468299,-91.187915,24.719615,1.306538,0.164675,1.999969
1053,-35.950256,-22.705425,6.286717,0.161135,-0.022339,1.343404
1054,-46.448463,-30.029755,9.948882,-0.530282,-0.003784,1.070329
1055,-43.213550,-51.087205,5.676356,0.362432,0.068727,1.331685
1056,-32.959487,-27.222095,-2.624552,0.275395,0.049561,1.237446
1057,-31.555657,-16.540780,-0.976577,-0.199466,0.012696,1.073991
1058,-25.391012,-23.804074,-2.746624,0.123659,0.034180,1.167498
1059,-20.691234,-13.427939,-4.943923,0.086427,-0.027222,1.094865
1060,-18.982223,-8.728161,-0.610361,-0.010254,0.027710,1.060563
1061,-16.418708,-7.080186,-0.122072,0.078248,0.031739,1.054459
1062,-15.808347,-2.258335,0.976577,0.044678,0.026856,1.050309
1063,-16.235599,0.427253,1.220722,0.012696,-0.013550,0.963149
1064,-16.113527,0.976577,2.990768,0.020630,0.013916,1.068132
1065,-14.038300,1.281758,3.723201,-0.001953,0.011353,1.030777
1066,-12.146181,0.244144,2.990768,-0.003296,0.016236,0.973404
1067,-13.733120,-1.281758,2.685588,-0.029053,0.035889,0.996475
1068,-13.000687,-4.638743,2.502480,-0.011719,0.113283,0.958389
1069,-15.930419,-4.760815,2.197299,0.008179,0.013550,0.987686
1070,-15.747311,-3.601129,2.014191,0.006104,0.000488,1.034928
1071,-14.709697,-3.051804,1.770047,0.009155,-0.005493,1.001724
1072,-15.320058,-2.685588,2.319371,0.008423,-0.003906,1.029801
1073,-13.794156,-2.136263,2.685588,0.021485,-0.013550,1.020035
1074,-12.451362,-1.647974,2.563516,0.009888,-0.011109,1.011368
1075,-10.131991,-2.319371,-0.183108,-0.048585,-0.069215,0.999893
1076,-10.864424,-3.112840,1.770047,0.016846,-0.021118,1.021866
1077,-9.887846,-4.028382,2.563516,-0.016236,-0.012940,1.027237
1078,-6.775006,-5.859464,1.342794,-0.035401,-0.004639,0.974380
1079,-6.958114,-7.812619,0.671397,0.002319,-0.009155,0.999161
1080,-7.690547,-7.995727,0.671397,-0.003906,0.002686,1.010880
1081,-6.286717,-7.751583,0.000000,-0.005615,-0.012451,0.969863
1082,-6.836042,-8.178836,0.488289,0.011475,-0.053101,0.958999
1083,-7.080186,-8.728161,0.488289,0.003174,0.034546,1.037736
1084,-6.225681,-10.193027,-1.037613,-0.011841,-0.011719,1.049210
1085,-4.943923,-8.178836,0.061036,0.032105,-0.038697,1.034684
1086,-3.479057,-6.103609,0.366217,0.035035,-0.052857,1.002701
1087,0.915541,-4.455634,0.183108,0.038819,-0.053834,0.945815
1088,-1.159686,-5.188067,0.549325,0.010498,0.014771,1.041154
1089,-2.258335,-5.432212,0.671397,0.016114,-0.027344,0.984512
1090,-3.967346,-5.920500,0.549325,0.015259,-0.015259,1.000626
1091,-4.089418,-4.943923,0.244144,0.078614,-0.085817,0.738170
1092,-9.826810,-7.202258,0.854505,0.024537,0.006714,0.937636
1093,-20.263981,-8.850233,1.831083,0.021973,0.016114,0.932876
1094,-24.902724,-9.460594,1.403830,0.034913,0.004761,0.952163
1095,-31.616693,-9.521630,1.464866,0.046632,-0.020264,1.003311
1096,-32.166018,-7.446403,1.709010,0.051637,-0.042603,1.038956
1097,-30.395972,-5.493248,1.770047,0.024781,-0.037720,1.009415
1098,-31.616693,-4.943923,2.380407,0.021851,-0.031495,1.001236
1099,-32.593271,-5.188067,2.197299,0.018067,-0.027344,0.993179
1100,-33.142596,-5.371176,2.014191,0.026978,-0.037476,0.977310
1101,-37.903410,-5.493248,3.356985,0.026246,-0.096559,1.004898
1102,-32.227054,-4.943923,5.004959,0.060426,-0.007324,0.931411
1103,-37.781338,2.258335,6.591897,0.071412,0.002197,1.135027
1104,-52.002747,2.502480,7.690547,-0.024048,-0.079835,1.037980
1105,-39.063096,3.173877,4.394598,0.011841,-0.028931,0.997574
1106,-40.161746,4.272526,-0.488289,0.018189,-0.055543,0.969253
1107,-38.147555,3.479057,-0.732433,-0.056397,-0.037232,1.059953
1108,-35.767147,1.525902,-7.507439,-0.005615,-0.172488,0.897353
1109,-49.439231,-3.723201,-18.249790,-0.048463,-0.028931,0.947524
1110,-72.327764,-8.728161,-31.189441,0.050782,-0.183230,1.072282
1111,-61.097124,-8.178836,-13.244831,0.181521,-0.215091,1.053605
1112,-53.223468,-1.647974,-9.460594,0.115724,-0.195560,1.048234
1113,-53.467613,2.258335,-3.479057,0.086305,0.010376,1.056657
1114,-81.300069,9.765774,-18.249790,0.146975,0.159426,0.994766
1115,-119.142443,22.888533,-23.743038,0.094972,0.262821,0.793347
1116,-166.750591,28.259709,-26.123445,-0.076661,0.600351,0.454841
1117,-219.607843,-8.850233,-18.554971,-0.353155,0.276860,0.727550
1118,-296.330205,-33.203632,-3.479057,0.062623,1.130510,1.018692
1119,-478.400855,-58.411536,-41.504540,-0.284794,-0.021241,1.243915
1120,-673.533227,-174.319066,26.489662,-0.408698,0.103029,1.716579
1121,-810.681315,-241.519799,57.129778,0.023072,0.132204,1.159319
1122,-905.836576,-230.228122,78.004120,0.412970,-0.448127,1.437400
1123,-1209.185931,-243.656062,229.007401,-1.112444,-0.392584,1.999969
1124,-339.848936,-115.419242,109.559777,-1.113909,-0.951797,1.999969
1125,325.810636,-11.718929,-33.875029,-0.239506,0.948745,1.999969
1126,301.335164,62.623026,-28.931106,0.117678,1.267475,1.562402
1127,107.179370,38.391699,6.042573,-0.635630,0.863172,0.874891
1128,-29.419394,-24.170291,44.800488,-0.362310,0.368170,0.214237
1129,4.516670,-22.217136,49.439231,-0.163943,0.233890,0.279789
1130,100.648508,-5.615320,33.569848,-0.046509,0.360723,0.302861
1131,78.614481,-4.150454,26.550698,0.139284,0.536629,0.429572
1132,50.904097,-0.732433,18.371862,0.164797,0.460090,0.849134
1133,95.460441,7.507439,2.563516,0.161624,0.483894,1.084245
1134,133.852140,7.812619,-12.146181,0.161013,0.571664,1.159808
1135,147.585260,4.943923,-21.972992,0.138796,0.532601,1.260517
1136,178.347448,9.704738,-33.020523,0.119020,0.438117,1.342306
1137,212.588693,19.165332,-42.725261,0.065064,0.355352,1.251850
1138,234.073396,26.550698,-47.180896,0.001587,0.296391,1.184710
1139,250.797284,31.982910,-50.049592,-0.018677,0.143801,1.120500
1140,269.718471,38.208591,-50.965133,-0.026246,0.046876,1.120378
1141,282.780194,43.762875,-50.232700,0.009522,-0.012573,1.106828
1142,293.461509,47.547112,-50.049592,0.040650,-0.070069,1.056413
1143,300.541695,48.462654,-50.049592,0.046387,-0.102663,0.979995
1144,299.992371,46.509499,-50.476844,0.054200,-0.160891,0.892958
1145,286.137179,46.814679,-52.246891,0.068116,-0.315557,0.840223
1146,269.779507,60.059510,-52.796216,0.122927,-0.406256,0.919570
1147,250.797284,78.492409,-54.688334,0.197513,-0.362921,1.140764
1148,237.918669,93.934539,-62.134737,0.415167,-0.274418,1.285054
1149,229.495689,102.235447,-70.679789,0.306279,-0.269413,1.719142
1150,221.194781,105.592432,-71.168078,0.138796,-0.393927,1.999969
1151,230.655375,102.784772,-66.163119,-0.039307,-0.524300,1.999969
1152,244.388495,100.282292,-56.458381,-0.058228,-0.668711,1.999969
1153,239.322499,104.615854,-41.687648,-0.053712,-0.733043,1.999969
1154,237.552453,100.099184,-26.367590,-0.044434,-0.824353,1.999969
1155,259.708553,91.981384,-13.794156,-0.015015,-0.884657,1.999969
1156,287.052720,88.197147,-2.746624,-0.054566,-0.955703,1.999969
1157,297.978180,83.375296,11.047532,-0.064088,-0.996719,1.999969
1158,293.583581,75.013352,25.696193,0.098146,-0.990127,1.864042
1159,290.165560,66.468299,34.180209,0.206668,-0.971572,1.815946
1160,279.484245,54.077974,37.048905,0.215824,-1.035660,1.844144
1161,271.671626,46.082246,36.133364,0.160403,-1.214862,1.803494
1162,260.135805,49.561303,35.584039,0.115358,-1.589746,1.522362
1163,232.486458,57.557031,38.269627,0.163455,-2.000031,1.099992
1164,189.700160,66.590372,45.593957,0.614145,-2.000031,0.725597
1165,133.363851,91.920348,22.400244,1.196674,-2.000031,0.218753
1166,103.517205,124.208438,-8.361944,1.372702,-2.000031,-0.662608
1167,62.867170,121.400778,-26.001373,0.891981,-2.000031,-1.054704
1168,-27.527276,27.832456,-3.112840,0.472297,-2.000031,-0.542977
1169,-78.614481,-76.966506,25.879301,0.265141,-2.000031,-1.519921
1170,-199.893187,-147.646296,22.705425,0.837049,-1.481224,-0.248783
1171,-251.895933,-144.533455,-2.258335,0.052125,-1.060319,1.143084
1172,-132.692454,-74.891279,-4.577707,-0.792126,0.556405,1.999969
1173,-142.641337,-69.947356,12.634470,-1.077653,0.940688,1.465965
1174,-265.568017,-89.295796,45.105669,-0.949966,0.065187,0.093507
1175,-325.383383,-113.954376,72.144656,-0.195560,-0.609628,0.924575
1176,-298.466468,-98.084993,84.840162,1.163348,-0.330327,1.999969
1177,-232.364385,-50.598917,54.383154,1.999969,-0.154910,1.999969
1178,-126.832990,2.136263,-1.525902,1.552270,-0.276005,1.931548
1179,-105.958648,28.809033,-26.611734,-0.104494,0.002564,1.666285
1180,-155.947204,5.981537,8.056764,-1.679591,-0.306767,1.999969
1181,-99.305715,-56.397345,34.363317,-0.834852,-0.429450,1.999969
1182,-32.471199,-97.718776,17.639429,1.228046,0.156008,1.999969
1183,-24.292363,-30.090791,-3.295949,0.917983,0.078492,1.261860
1184,-45.960174,0.732433,1.464866,-0.702403,-0.034424,1.125261
1185,-45.899138,-40.772107,9.948882,-0.187137,-0.042725,1.218402
1186,-16.540780,-37.964446,-5.065995,0.563607,0.119265,1.215839
1187,-32.471199,-8.361944,-0.488289,0.055665,0.058961,1.026627
1188,-37.720302,-10.498207,1.342794,-0.084596,-0.076783,1.298726
1189,-12.939651,-10.131991,-3.540093,0.131716,-0.006104,1.068376
1190,-15.747311,-0.427253,-1.403830,0.055299,0.019654,1.122332
1191,-12.512398,0.915541,1.098650,-0.030518,-0.013184,1.084611
1192,-4.882887,1.281758,-0.305180,0.083619,0.111208,0.986587
1193,-12.207218,6.530861,2.380407,0.031617,0.066529,1.014298
1194,-13.733120,8.117800,3.906310,-0.004028,0.038453,1.007828
1195,-11.291676,8.545052,3.356985,0.042237,0.077760,0.959487
1196,-17.944610,8.422980,5.249104,0.000855,0.040284,0.966323
1197,-18.188754,4.821851,5.004959,-0.050294,0.025757,0.966445
1198,-20.263981,-0.061036,4.821851,-0.011841,0.033936,0.989273
1199,-20.019837,-1.464866,3.723201,-0.018311,0.010864,0.998917
1200,-18.616007,-4.516670,3.601129,-0.035279,0.091676,1.040909
1201,-16.174563,-3.906310,2.746624,0.014527,0.008667,0.995377
1202,-17.334249,-4.089418,2.746624,-0.009888,-0.007324,1.032242
1203,-14.587625,-4.455634,2.197299,-0.016602,-0.011231,1.010025
1204,-12.695506,-4.943923,2.075227,-0.002197,0.004883,0.985245
1205,-15.625238,-5.615320,1.892119,-0.006714,-0.003906,0.995132
1206,-15.136950,-6.103609,1.831083,0.016236,0.023316,1.002701
1207,-14.953841,-6.897078,1.464866,-0.001953,0.006836,0.989639
1208,-16.601816,-7.385367,0.793469,-0.070924,0.055177,1.113787
1209,-13.550011,-8.972305,1.831083,0.037110,-0.000610,0.951797
1210,-15.259022,-8.667124,0.854505,0.002197,0.009277,0.993057
1211,-17.273213,-9.460594,1.159686,0.004150,-0.011719,1.006485
1212,-17.395285,-9.460594,0.366217,0.008423,-0.013184,0.997208
1213,-18.432898,-9.399557,0.793469,0.022461,0.005371,0.997818
1214,-20.080873,-9.582666,1.159686,0.016968,-0.006714,1.009903
1215,-19.653620,-9.704738,0.793469,0.013672,-0.011109,0.989029
1216,-20.141909,-8.850233,0.061036,0.033814,-0.041138,0.979385
1217,-21.179522,-7.812619,0.976577,0.028077,-0.034302,0.997574
1218,-22.949569,-7.568475,2.014191,0.021241,-0.018555,1.016007
1219,-23.437858,-6.897078,2.136263,0.022461,-0.031006,1.009171
1220,-24.780652,-6.408789,2.136263,0.029297,-0.040772,0.986221
1221,-26.062409,-5.432212,2.197299,0.036011,-0.027955,0.974868
1222,-31.311513,-5.127031,2.563516,0.031128,-0.047974,1.017472
1223,-29.236286,-3.845274,2.197299,0.032593,-0.057130,1.015152
1224,-27.527276,-2.929732,1.647974,0.037232,-0.058473,1.003922
1225,-28.564889,-2.319371,1.831083,0.035889,-0.072389,1.018570
1226,-27.466239,-1.709010,1.831083,0.035645,-0.068849,1.016617
1227,-28.686961,-1.403830,1.220722,0.015625,-0.072633,0.998672
1228,-29.724575,-2.319371,1.098650,0.026856,-0.057862,0.979629
1229,-31.433585,-2.807660,0.915541,-0.001099,-0.049805,0.952651
1230,-36.560616,-3.662165,4.089418,0.049073,-0.103517,1.127581
1231,-40.344854,2.014191,4.699779,0.017823,-0.130373,0.964004
1232,-34.180209,2.807660,6.286717,0.051148,-0.107668,1.004044
1233,-38.086519,5.737392,8.300908,0.025757,-0.100343,1.024063
1234,-41.077287,5.310140,8.484016,0.014649,-0.100954,1.002213
1235,-36.316472,5.432212,5.676356,-0.016602,-0.086915,0.982803
1236,-32.227054,4.943923,2.685588,0.047486,-0.122072,0.948135
1237,-30.457008,5.737392,3.418021,-0.008423,-0.108034,0.925307
1238,-36.255436,4.516670,-7.019150,-0.038941,-0.160281,0.909926
1239,-50.659953,-5.798428,-21.118486,-0.106935,0.051637,1.132341
1240,-63.660639,-5.981537,-26.062409,0.084230,-0.307622,1.115251
1241,-34.424353,-4.150454,-9.216449,0.111330,-0.311528,1.071305
1242,-13.305867,-0.244144,-6.713970,0.045655,-0.186404,1.068376
1243,-16.723888,-3.906310,-7.385367,0.066041,-0.095705,1.112078
1244,-40.283818,1.831083,-11.291676,0.003662,0.147951,0.907362
1245,-75.562676,3.845274,-18.921187,0.128298,0.212894,1.043229
1246,-121.828031,16.601816,-31.006332,0.056153,0.448493,0.647471
1247,-177.615015,15.808347,-38.574807,-0.070680,0.459846,0.613779
1248,-257.755398,-15.075914,-23.926146,-0.132448,1.082536,0.655528
1249,-443.976501,-23.682002,-52.491035,0.313237,1.429587,1.810697
1250,-720.347906,-78.309300,-14.709697,-0.946792,-0.036133,1.999969
1251,-883.863584,-171.511406,72.022583,-0.225589,-0.019287,1.212421
1252,-958.571756,-169.680324,102.540627,0.313725,-1.143694,1.768948
1253,-1219.256886,-144.228275,272.343023,-1.520043,-0.213016,1.999969
1254,-214.724956,-65.735866,48.157473,-0.622202,-2.000031,1.999969
1255,386.114290,34.729534,7.141222,-0.177981,0.681163,1.999969
1256,262.882429,86.182956,-7.568475,0.144778,0.873793,0.870741
1257,6.958114,25.391012,53.467613,-0.361212,0.690684,0.065431
1258,-115.358206,-32.593271,89.173724,0.063478,0.479744,0.146853
1259,-41.870756,-19.409476,60.975052,0.142214,0.251835,0.596078
1260,51.270314,6.469825,35.645075,0.219242,0.506111,0.568490
1261,27.466239,11.718929,25.085832,0.252567,0.663706,0.717174
1262,16.235599,4.699779,14.648661,0.189090,0.556649,1.008194
1263,69.764248,-6.225681,3.540093,0.155764,0.583505,1.133928
1264,110.536355,-28.931106,-5.127031,0.159915,0.641611,1.098161
1265,128.053712,-47.974365,-13.122759,0.203861,0.594003,1.161151
1266,156.008240,-49.988556,-25.207904,0.201419,0.503548,1.232197
1267,186.099031,-38.757916,-38.696880,0.154299,0.425910,1.212299
1268,205.203326,-25.207904,-49.622339,0.061524,0.324834,1.145281
1269,222.354467,-14.587625,-55.542840,-0.043336,0.204959,1.104387
1270,241.458763,-8.056764,-56.580453,-0.117311,0.119997,1.055070
1271,255.619135,-6.836042,-54.077974,-0.149905,0.055177,1.042008
1272,266.422522,-9.765774,-49.622339,-0.142336,0.008545,1.097063
1273,278.019379,-10.254063,-47.241932,-0.104494,-0.015137,1.193378
1274,288.700694,-4.821851,-46.814679,-0.048219,-0.036378,1.270527
1275,299.259937,5.371176,-50.049592,0.010986,-0.109255,1.215229
1276,300.724804,17.761501,-53.833829,-0.005493,-0.227787,1.060319
1277,294.499123,30.395972,-57.495995,0.052369,-0.404913,0.853529
1278,278.690776,38.635843,-58.960861,0.085451,-0.454475,0.892958
1279,258.854047,39.185168,-60.120546,0.171878,-0.356817,1.148577
1280,247.318227,39.002060,-67.444877,0.251713,-0.312993,1.480735
1281,244.937819,44.312200,-75.623713,0.235233,-0.332647,1.867582
1282,244.632639,64.942397,-81.055924,0.112184,-0.404059,1.999969
1283,246.952010,83.253223,-80.872816,-0.062013,-0.552132,1.999969
1284,245.914397,91.859312,-71.107042,-0.204227,-0.662486,1.999969
1285,248.050660,88.685435,-55.542840,-0.258183,-0.814710,1.999969
1286,261.112383,81.727321,-38.330663,-0.225345,-0.865614,1.999969
1287,272.587167,78.004120,-23.132677,-0.120729,-0.906874,1.999969
1288,290.409705,78.187228,-12.756542,-0.052247,-0.985855,1.999969
1289,301.274128,79.285878,-5.065995,0.010986,-1.016861,1.999969
1290,289.372091,77.210651,-0.366217,0.220829,-1.003555,1.787991
1291,275.822080,76.295109,-2.380407,0.321538,-1.012833,1.728298
1292,262.455177,73.975738,-8.484016,0.386847,-1.074113,1.657618
1293,247.318227,76.234073,-14.587625,0.397101,-1.252583,1.520775
1294,219.424735,74.769207,-16.723888,0.383429,-1.575586,1.329976
1295,182.192721,69.886320,-19.531548,0.609628,-2.000031,1.234882
1296,142.397192,72.571908,-24.841688,1.036637,-2.000031,1.148333
1297,106.996262,103.639277,-47.302968,1.283223,-2.000031,0.736217
1298,108.400092,147.219043,-69.581140,0.968399,-2.000031,-0.437140
1299,76.783398,121.644923,-64.393072,0.508675,-2.000031,-1.409934
1300,-30.273899,9.643702,-22.156100,-0.290532,-2.000031,-2.000031
1301,-196.841382,-186.892500,40.894179,0.404181,-1.878935,-1.440818
1302,-284.977493,-237.552453,35.523003,0.785046,-0.657847,1.999969
1303,-129.579614,-77.393759,6.225681,-0.337041,0.362432,1.999969
1304,-69.336996,-39.978637,12.207218,-1.016495,0.970352,1.046647
1305,-193.972686,-96.803235,45.288777,-0.649912,0.523445,-0.549081
1306,-328.984512,-116.517891,65.247578,-0.200931,-0.403571,0.346807
1307,-326.970321,-91.248951,84.107729,0.609995,-0.398810,1.999969
1308,-237.186236,-46.875715,64.026856,1.323384,-0.137942,1.999969
1309,-128.236820,4.882887,18.432898,1.435813,-0.142947,1.515648
1310,-164.492256,28.686961,-2.990768,0.580941,0.219120,1.323262
1311,-200.320439,25.940337,18.554971,-1.100237,0.125002,1.999969
1312,-155.153735,-55.848020,38.513771,-1.040421,-0.835340,1.999969
1313,-43.213550,-106.263828,21.057450,0.634165,-0.072389,1.999969
1314,-19.592584,-59.571221,0.427253,1.157733,0.137209,1.524193
1315,-37.170977,-3.906310,6.042573,-0.254032,0.124269,1.053117
1316,-52.491035,-30.457008,11.535821,-0.472053,-0.098634,1.177874
1317,-19.714656,-44.983597,-1.281758,0.434943,0.153689,1.393576
1318,-23.254749,-17.639429,-0.793469,0.179324,0.105226,1.068009
1319,-31.311513,-10.559243,2.014191,-0.121950,-0.059205,1.153338
1320,-8.422980,-16.784924,-3.784237,0.023194,0.064820,0.977920
1321,-17.761501,-12.878614,-3.295949,0.113527,0.090700,1.021378
1322,-24.353399,-8.545052,0.122072,-0.057984,-0.053101,1.090349
1323,-11.779965,-9.582666,-2.929732,0.092653,-0.026612,1.052750
1324,-12.146181,-2.990768,0.549325,0.045777,0.017945,1.014176
1325,-13.611048,-1.831083,3.479057,-0.013428,-0.017090,0.979019
1326,-10.070954,-2.075227,1.220722,0.026856,-0.046509,0.901747
1327,-12.634470,-2.014191,2.319371,0.043458,0.059815,1.088518
1328,-12.573434,-1.586938,4.333562,0.008545,0.052857,0.995254
1329,-13.611048,-1.892119,2.685588,0.011231,0.055299,0.976944
1330,-16.601816,-1.953155,2.014191,-0.004883,0.031739,0.972671
1331,-18.127718,-3.112840,2.075227,-0.041505,0.064820,1.073259
1332,-17.517357,-4.150454,2.746624,0.012573,0.049561,0.995499
1333,-17.456321,-3.112840,2.319371,0.011963,-0.000610,0.974746
1334,-17.700465,-2.929732,2.685588,0.008057,0.009888,1.016861
1335,-16.968032,-3.601129,2.258335,0.008911,0.001465,1.007462
1336,-17.090105,-3.906310,2.075227,0.008911,-0.014527,1.012589
1337,-13.611048,-3.906310,1.342794,0.009644,0.045045,1.077897
1338,-13.855192,-4.211490,1.647974,0.019165,0.003662,0.993057
1339,-13.122759,-4.394598,0.183108,0.009766,-0.061524,0.963882
1340,-16.052491,-5.615320,1.342794,0.023194,-0.001465,1.001968
1341,-18.005646,-4.760815,0.366217,0.037842,0.047608,1.017960
1342,-17.151141,-4.882887,2.136263,0.008545,0.003418,1.057389
1343,-18.127718,-5.310140,1.709010,0.006470,-0.038209,0.914931
1344,-17.700465,-5.615320,2.014191,0.024170,0.043214,1.047745
1345,-18.371862,-5.615320,1.892119,0.024537,-0.025391,0.992935
1346,-17.273213,-5.859464,1.159686,0.004639,-0.014282,0.973159
1347,-19.287404,-7.080186,0.671397,0.018555,-0.018189,0.981827
1348,-24.597543,-8.178836,1.342794,0.024414,0.002930,1.015396
1349,-24.963760,-7.690547,0.549325,0.027955,-0.028565,1.018570
1350,-23.987182,-6.713970,0.549325,0.046265,-0.050050,0.985122
1351,-23.315785,-5.554284,0.671397,0.023316,-0.031617,1.003067
1352,-23.010605,-4.943923,0.976577,0.034668,-0.051514,1.013565
1353,-20.996414,-4.089418,0.976577,0.033814,-0.037842,0.996475
1354,-23.498894,-3.601129,1.342794,0.042725,-0.035279,0.987076
1355,-26.611734,-2.380407,1.831083,0.050660,-0.065919,1.017227
1356,-24.963760,-1.709010,2.197299,0.047120,-0.063600,1.027970
1357,-25.268940,-1.220722,2.136263,0.028077,-0.079591,1.025895
1358,-22.705425,-1.464866,1.892119,0.009522,-0.057374,0.974136
1359,-23.071641,-3.051804,0.549325,0.018433,-0.040528,0.960586
1360,-26.123445,-4.150454,0.305180,0.051148,-0.010498,1.078386
1361,-30.884260,-3.540093,-2.197299,-0.009277,-0.053101,0.978775
1362,-30.334936,-3.173877,-0.122072,0.084352,-0.030640,0.937514
1363,-45.593957,2.502480,4.821851,0.033204,-0.111696,1.024186
1364,-40.283818,3.418021,8.484016,0.056397,-0.130495,1.010269
1365,-36.194400,7.446403,9.033341,0.053590,-0.078981,0.933364
1366,-42.359045,7.507439,10.070954,-0.006836,-0.067750,0.978286
1367,-40.466926,7.324331,8.606088,-0.020264,-0.072023,1.019303
1368,-30.029755,8.178836,2.868696,-0.019409,-0.143557,0.978286
1369,-21.301595,6.958114,0.732433,-0.051759,-0.078126,0.961685
1370,-39.185168,-2.136263,-14.953841,-0.073365,-0.078981,1.011978
1371,-56.641489,-1.647974,-31.006332,0.055665,-0.215579,1.014054
1372,-46.753643,-4.028382,-17.212177,0.144167,-0.332158,1.029313
1373,-26.001373,0.915541,-6.775006,0.078370,-0.218753,1.112810
1374,-19.043259,0.610361,-6.530861,0.050538,-0.136477,1.062882
1375,-32.959487,2.746624,-8.361944,0.025513,0.052979,0.969375
1376,-60.120546,8.117800,-18.371862,0.150393,0.145632,0.972915
1377,-112.672618,19.958801,-25.024796,0.051148,0.353277,0.760266
1378,-146.242466,15.808347,-32.227054,-0.222049,0.393317,0.760266
1379,-215.457389,-12.085145,-32.043946,-0.489143,0.273808,1.085222
1380,-340.154116,-29.541466,-28.503853,0.001465,1.240253,1.886748
1381,-575.204089,-61.341268,-29.846647,-0.499763,0.221439,1.356954
1382,-754.039826,-154.604410,52.796216,-0.498299,0.106447,1.270161
1383,-855.420768,-192.385748,75.318532,0.140139,-0.352300,1.117937
1384,-922.560464,-194.766155,107.118334,1.218891,-2.000031,1.999969
1385,-847.425040,-141.237507,205.935760,-0.228275,-0.997574,1.999969
1386,17.822538,-60.425727,-45.532921,0.045411,-0.552255,1.999969
1387,377.325093,13.183795,-46.448463,-0.414313,0.954726,1.999969
1388,192.996109,33.997101,-68.055238,-0.181277,1.053849,1.151507
1389,-27.649348,-18.005646,6.958114,-0.636606,0.685801,0.549325
1390,-88.990616,-46.448463,35.217823,-0.364141,0.428473,0.687388
1391,19.714656,-20.202945,25.513085,-0.302739,0.189212,0.696910
1392,100.160220,-3.418021,20.080873,-0.175662,0.465827,0.556527
1393,70.252537,-8.667124,24.597543,-0.093629,0.511849,0.598642
1394,66.102083,-12.756542,26.001373,-0.042969,0.419074,0.822278
1395,116.395819,-9.094377,18.921187,-0.006470,0.461555,0.936782
1396,139.223316,-12.451362,15.014878,0.003296,0.512093,0.969863
1397,150.026703,-16.784924,10.864424,0.059083,0.447639,1.085832
1398,181.216144,-12.512398,1.770047,0.105348,0.382818,1.133562
1399,207.034409,-2.929732,-8.422980,0.126955,0.338262,1.088151
1400,219.119554,5.065995,-16.784924,0.085206,0.248783,1.174334
1401,236.331731,11.291676,-22.339208,0.025391,0.119509,1.180560
1402,257.755398,17.212177,-25.696193,-0.022461,0.029786,1.152361
1403,269.108110,19.714656,-26.184482,-0.040284,-0.042847,1.144305
1404,278.446632,20.691234,-24.780652,-0.058106,-0.106447,1.160662
1405,289.127947,18.432898,-22.400244,-0.013306,-0.130617,1.182513
1406,294.743267,14.648661,-22.217136,0.050050,-0.158816,1.219623
1407,296.330205,16.418708,-25.940337,0.125856,-0.268193,1.076921
1408,286.564431,27.771420,-33.447776,0.209354,-0.429084,0.992935
1409,269.840543,47.364004,-38.025483,0.219486,-0.476326,1.023087
1410,250.919356,51.209277,-42.359045,0.215702,-0.442023,1.243305
1411,243.839170,50.232700,-48.218509,0.286503,-0.297246,1.453635
1412,234.744793,45.044633,-54.810407,0.192264,-0.357305,1.812894
1413,229.373617,52.307927,-56.519417,0.065187,-0.484993,1.999969
1414,233.401999,55.298695,-57.434958,0.011719,-0.583383,1.999969
1415,240.177005,60.364691,-55.176623,-0.040894,-0.677256,1.999969
1416,249.271382,62.928206,-52.124819,-0.076783,-0.742321,1.999969
1417,258.793011,64.271000,-46.936751,-0.067994,-0.799451,1.999969
1418,272.037842,67.017624,-42.542153,-0.022950,-0.867201,1.999969
1419,286.259251,76.661326,-40.283818,0.058350,-0.877089,1.999969
1420,277.775235,82.825971,-39.246204,0.201907,-0.863539,1.870512
1421,267.215991,85.267414,-42.603189,0.378424,-0.868788,1.738918
1422,257.755398,85.694667,-51.941711,0.551644,-0.842054,1.640528
1423,243.533989,86.488136,-65.980011,0.654185,-0.880507,1.548974
1424,229.068437,89.295796,-81.605249,0.658091,-0.996597,1.414084
1425,210.574502,94.422828,-96.314946,0.628183,-1.203876,1.215106
1426,185.976959,100.709545,-107.362478,0.546395,-1.567529,0.990372
1427,148.378729,105.836576,-112.001221,0.487312,-2.000031,0.910780
1428,106.813153,117.067216,-105.165179,0.374762,-2.000031,0.860731
1429,100.770581,126.039521,-92.835889,0.229374,-2.000031,0.163699
1430,95.704585,103.578241,-68.177310,-0.008545,-2.000031,-0.663340
1431,24.536507,30.701152,-21.301595,-0.142458,-2.000031,-0.845106
1432,-45.410849,-53.162432,20.508125,-0.162234,-1.637964,-0.083742
1433,-69.275959,-92.286564,48.706798,-0.308110,-1.364889,0.622934
1434,-152.895399,-150.698100,69.581140,-0.135622,-1.510155,-0.441047
1435,-245.181964,-205.691615,91.981384,0.272587,-0.922499,1.059953
1436,-135.439078,-112.001221,79.652094,0.108522,0.024414,1.999969
1437,-104.615854,-41.077287,81.422141,-0.048341,1.036149,1.565332
1438,-171.084154,-85.023270,82.276646,0.532845,0.594369,-0.197513
1439,-254.093233,-104.493782,73.060197,1.050065,-0.003784,0.033936
1440,-281.986725,-75.440604,61.097124,1.323018,0.001587,1.548730
1441,-290.409705,-46.692607,39.490349,1.368795,0.092164,1.999969
1442,-208.621347,-9.399557,11.718929,0.911269,-0.170169,1.999969
1443,-126.039521,23.865110,-16.235599,-0.062623,-0.317998,1.999969
1444,-116.884108,20.202945,7.629511,-1.581323,-0.075563,1.999969
1445,-124.818799,-64.576181,42.603189,-1.413230,-0.625376,1.288472
1446,-47.241932,-120.241093,35.400931,0.907118,0.494270,1.999969
1447,-83.619440,-70.496681,4.089418,1.913237,-0.258915,1.992462
1448,-32.410163,15.014878,-2.197299,-0.465705,0.042359,1.198993
1449,-52.246891,-30.945296,3.234913,-0.784680,-0.080323,0.889174
1450,-35.706111,-60.547799,-3.662165,0.642466,0.136721,1.484031
1451,-27.405203,-18.860151,-8.728161,0.240482,-0.079347,1.212421
1452,-18.249790,-9.521630,-1.892119,-0.182132,-0.012451,1.160540
1453,-7.873655,-16.601816,-2.990768,0.121218,0.069947,0.944472
1454,-8.545052,-10.742351,-2.441444,0.058961,0.108766,0.958389
1455,-21.301595,-7.263294,3.234913,0.051759,0.089235,1.086931
1456,-13.916228,-4.821851,4.882887,0.058595,0.025269,1.055924
1457,-10.864424,2.197299,5.249104,0.089967,0.023072,1.041642
1458,-13.061723,6.286717,6.897078,-0.006836,0.024659,1.091203
1459,-5.127031,4.821851,5.920500,-0.001953,0.063111,1.007095
1460,-8.667124,3.295949,5.493248,0.004639,0.081178,0.994156
1461,-10.620279,1.098650,5.371176,0.002075,0.063355,1.020768
1462,-10.131991,-0.061036,4.943923,0.041627,0.096193,0.975845
1463,-11.841001,0.610361,3.723201,-0.019898,0.068360,0.962417
1464,-12.817578,-1.586938,3.906310,-0.039185,0.034668,0.948867
1465,-11.474784,-2.685588,3.234913,-0.015137,0.067994,0.963272
1466,-16.601816,-3.601129,3.418021,-0.021118,0.026123,0.975479
1467,-17.151141,-4.882887,3.906310,-0.006714,0.023926,0.977920
1468,-14.526589,-5.554284,3.356985,-0.021485,0.056031,0.945449
1469,-20.508125,-8.117800,2.563516,-0.017823,0.057130,0.952773
1470,-22.522316,-10.315099,1.464866,-0.031861,0.028565,0.930922
1471,-23.865110,-13.122759,0.000000,-0.010986,0.053101,0.946792
1472,-30.090791,-14.831769,0.000000,0.027222,-0.004639,1.004532
1473,-28.320745,-13.366903,-0.305180,0.036378,-0.023316,1.077897
1474,-21.057450,-11.352712,-0.549325,0.019165,-0.003784,1.030411
1475,-20.935378,-11.047532,-0.793469,0.028199,0.005371,0.993668
1476,-22.705425,-11.230640,-0.732433,0.013184,0.006226,0.977676
1477,-24.353399,-11.841001,-1.464866,0.019532,0.021607,0.972671
1478,-30.395972,-13.427939,-2.929732,0.000610,-0.120729,1.012833
1479,-31.921874,-12.634470,-0.427253,0.046143,-0.124758,1.008438
1480,-26.916915,-9.216449,-0.488289,-0.037354,-0.007691,1.037247
1481,-27.405203,-11.657893,-0.427253,0.071778,-0.037964,1.065690
1482,-24.841688,-8.911269,-0.854505,0.040040,-0.075685,1.032731
1483,-20.874342,-8.178836,0.000000,0.082765,-0.058961,1.050431
1484,-19.287404,-5.554284,0.671397,0.051637,-0.095338,0.976211
1485,-16.113527,-3.967346,0.671397,0.061280,-0.054444,1.014786
1486,-16.662852,-2.502480,1.342794,0.071168,-0.034546,1.058732
1487,-16.174563,-0.549325,0.915541,0.031128,-0.040650,0.985245
1488,-18.005646,-0.793469,0.549325,0.018799,-0.010254,0.959609
1489,-22.095064,-1.831083,0.000000,0.036500,-0.004150,0.976333
1490,-22.461280,-2.258335,-0.793469,0.038453,-0.047974,0.997940
1491,-21.606775,-1.525902,-1.342794,-0.015869,0.008545,1.182757
1492,-23.315785,1.525902,-1.770047,0.148196,0.242069,1.062516
1493,-28.992142,-1.831083,-0.549325,0.003052,-0.066773,1.095720
1494,-25.635157,-1.525902,-0.122072,0.050538,-0.069581,0.959487
1495,-31.921874,0.610361,3.234913,0.096559,-0.033204,1.032975
1496,-42.420081,5.615320,8.056764,0.075074,-0.101808,1.045548
1497,-39.673457,8.667124,11.047532,0.057862,-0.107424,1.025040
1498,-36.316472,10.193027,10.742351,0.020264,-0.064088,0.985122
1499,-40.039673,9.216449,9.033341,0.000855,-0.051759,1.023087
1500,-37.537194,7.202258,3.906310,-0.018067,-0.052613,1.014420
1501,-35.278859,5.737392,-5.065995,-0.042481,-0.069337,0.993668
1502,-33.142596,5.981537,-9.094377,0.006958,-0.148928,0.930068
1503,-39.368276,0.671397,-19.287404,-0.067262,-0.115602,1.015518
1504,-44.739452,-2.136263,-30.395972,0.030640,-0.201663,1.060441
1505,-34.058137,-2.746624,-19.226368,0.163210,-0.191165,1.043595
1506,-20.569162,2.624552,-14.038300,0.144778,-0.216068,1.142596
1507,-21.362631,6.897078,-0.793469,0.117433,-0.154177,1.074113
1508,-28.870069,13.366903,2.441444,0.105959,0.039429,1.027604
1509,-56.214237,26.367590,-11.902037,0.057984,0.132692,0.958999
1510,-97.230488,29.541466,-15.197986,-0.034058,0.402106,0.828748
1511,-154.665446,27.954528,-32.593271,-0.131838,0.362432,0.756481
1512,-186.831464,-9.948882,-29.358358,-0.333989,0.253910,0.963149
1513,-245.792325,-25.940337,-16.906996,-0.002319,0.861585,1.141497
1514,-416.021973,-49.683375,-46.204318,-0.109255,0.611826,1.542626
1515,-614.572366,-148.012512,3.234913,-0.775158,0.126345,1.745266
1516,-779.674983,-227.603571,51.148241,-0.177737,0.126467,1.164324
1517,-867.750057,-236.697948,67.139696,0.276982,0.064088,1.256489
1518,-1096.086061,-246.524758,138.612955,0.501717,-1.739162,1.999969
1519,-421.454185,-95.582513,156.252384,-0.787854,-0.674693,1.999969
1520,299.137865,13.427939,-73.182269,-0.297368,0.701915,1.999969
1521,414.679179,49.195087,-38.757916,-0.644663,1.474144,1.157244
1522,147.707332,15.869383,-40.772107,-0.751232,1.195575,0.321294
1523,-35.278859,-55.664912,41.809720,-0.576181,0.212772,-0.427863
1524,-66.529335,-83.863584,50.720989,-0.245975,0.151858,0.240726
1525,52.796216,-47.547112,27.466239,-0.207401,0.161257,0.728649
1526,102.052338,-11.596857,16.418708,-0.094240,0.544198,0.776257
1527,63.538567,9.521630,13.672084,-0.137942,0.471809,0.879286
1528,86.671244,15.747311,9.948882,-0.214969,0.361212,0.994888
1529,140.566110,6.042573,7.629511,-0.218387,0.405402,0.906386
1530,151.735714,-14.343481,10.193027,-0.134157,0.448371,0.933486
1531,162.294957,-20.996414,7.263294,-0.005005,0.387091,1.162982
1532,194.705119,-4.272526,-4.150454,0.089479,0.348272,1.214496
1533,217.776761,21.545739,-17.700465,0.112306,0.285039,1.117693
1534,225.650416,41.748684,-25.757229,0.031861,0.163455,1.101701
1535,240.970474,48.279545,-28.809033,-0.032227,0.023926,1.026993
1536,256.900893,47.180896,-27.038987,-0.064698,-0.032105,0.977798
1537,261.356527,42.114900,-22.400244,-0.038087,-0.051881,1.032242
1538,264.652476,38.574807,-18.982223,0.031373,-0.068849,1.200580
1539,271.610590,39.307240,-19.409476,0.144045,-0.098390,1.300435
1540,274.906539,46.143282,-26.062409,0.248539,-0.226566,1.184466
1541,271.122301,60.669871,-35.339895,0.360113,-0.387579,0.973404
1542,260.013733,73.487449,-43.518730,0.380255,-0.416510,0.895033
1543,239.749752,68.299382,-52.246891,0.361212,-0.397345,0.948989
1544,223.514153,64.637217,-60.364691,0.333867,-0.329717,1.290669
1545,201.907378,67.505913,-64.698253,0.254276,-0.318730,1.826078
1546,196.108949,74.891279,-66.346227,0.189334,-0.412482,1.999969
1547,220.523384,81.849393,-68.848707,0.130373,-0.563485,1.999969
1548,244.144350,90.089265,-68.543526,0.132937,-0.664195,1.999969
1549,238.223850,94.300755,-64.087892,0.105715,-0.696056,1.928740
1550,226.321813,89.845121,-57.373922,0.091920,-0.737072,1.999969
1551,234.256504,86.793317,-51.392386,0.137697,-0.756725,1.999969
1552,250.858320,88.014038,-47.730220,0.227420,-0.728161,1.999969
1553,252.384222,90.943771,-46.082246,0.351080,-0.717052,1.781888
1554,243.778134,89.112688,-45.960174,0.436164,-0.705089,1.644312
1555,236.087587,75.379568,-47.852293,0.478401,-0.715953,1.593286
1556,233.524071,59.021897,-52.246891,0.500008,-0.724498,1.542382
1557,224.246586,49.073014,-59.754330,0.455818,-0.800183,1.492576
1558,212.161440,49.439231,-67.566949,0.309453,-0.967056,1.362814
1559,198.184176,55.848020,-71.473259,0.102419,-1.192035,1.144305
1560,175.173571,61.707485,-67.689021,-0.043458,-1.450950,0.899672
1561,145.754177,66.956588,-56.153201,-0.021118,-1.718654,0.773083
1562,105.653468,70.130465,-42.053864,0.184573,-2.000031,0.752453
1563,77.271687,77.759976,-22.949569,0.335698,-2.000031,0.661875
1564,57.373922,86.976425,-11.291676,0.277104,-2.000031,0.370367
1565,43.274586,77.515831,10.620279,0.078370,-2.000031,-0.057252
1566,0.549325,33.752956,45.838102,-0.031006,-1.924102,-0.132326
1567,-44.312200,-19.165332,78.126192,-0.052491,-1.635767,0.328985
1568,-58.533608,-45.777066,100.160220,-0.050782,-1.305928,0.853162
1569,-79.041733,-59.082933,105.592432,0.694347,-1.488426,-2.000031
1570,-134.218357,-65.491722,95.704585,0.260258,0.906752,1.106340
1571,-159.060044,-89.600977,66.468299,0.125002,0.574594,1.127214
1572,-88.868544,-79.224842,62.195773,0.204227,1.460227,0.461677
1573,-290.348669,-115.541314,62.989242,0.679088,0.472786,0.070558
1574,-359.624628,-95.277333,72.144656,0.980240,-0.539803,0.934340
1575,-267.338064,-62.745098,41.992828,1.347433,-0.129274,1.999969
1576,-244.693675,-22.339208,13.733120,1.123064,0.034302,1.999969
1577,-190.554665,28.992142,-8.056764,0.146853,-0.404059,1.963287
1578,-149.904631,40.466926,1.159686,-1.370138,-0.136599,1.999969
1579,-204.837110,-31.372549,45.349813,-1.585107,-0.858412,1.999969
1580,-54.261082,-86.305028,48.584726,0.111818,-0.276738,1.686061
1581,-45.105669,-86.793317,30.090791,1.561425,0.545663,1.999969
1582,-40.283818,-22.705425,11.596857,0.515389,-0.099733,1.342306
1583,-18.616007,-9.948882,5.798428,-0.843519,0.011231,1.176410
1584,-31.494621,-55.909056,12.268254,-0.014160,0.031861,1.021988
1585,-17.151141,-40.955215,-0.976577,0.588510,0.207279,1.441794
1586,-32.898451,-12.939651,1.586938,-0.039918,-0.018921,1.085710
1587,-19.653620,-17.212177,0.000000,-0.272953,0.033326,1.024674
1588,-20.080873,-25.024796,-1.403830,0.171511,0.112673,1.026505
1589,-26.184482,-12.939651,0.854505,-0.012207,0.030762,1.077043
1590,-18.616007,-11.352712,0.976577,-0.011719,0.039796,1.087541
1591,-16.723888,-7.629511,-1.281758,0.108766,0.054566,1.079362
1592,-19.653620,-1.281758,2.563516,0.013672,0.029786,1.068742
1593,-15.320058,0.427253,3.112840,-0.007202,0.034180,1.028336
1594,-14.099336,-0.061036,3.662165,-0.030274,0.034546,0.991592
1595,-15.869383,-2.075227,4.455634,-0.026856,0.041627,0.951308
1596,-17.944610,-5.004959,3.356985,-0.054078,0.045167,0.946914
1597,-20.325017,-7.629511,-0.244144,-0.029908,-0.102052,0.713268
1598,-22.461280,-11.718929,1.464866,0.027344,0.018311,1.086442
1599,-21.240558,-9.521630,2.441444,0.004150,0.011353,1.037125
1600,-18.677043,-7.019150,2.136263,0.038087,-0.000244,1.072404
1601,-16.296635,-3.112840,2.502480,0.025025,-0.003174,1.058610
1602,-13.122759,-0.732433,2.502480,0.006958,0.006714,1.029923
1603,-13.183795,-0.061036,2.685588,0.005982,0.000732,1.025895
1604,-11.108568,0.671397,2.441444,-0.014771,0.017090,1.017716
1605,-9.155413,-1.953155,2.563516,0.012696,0.136599,1.011856
1606,-12.146181,-0.061036,2.380407,-0.016236,0.001953,0.958389
1607,-11.474784,-0.671397,1.770047,-0.012696,0.009644,1.015640
1608,-11.047532,-1.464866,1.647974,-0.018677,0.010132,0.964126
1609,-13.488975,-3.723201,2.197299,-0.024170,0.002197,0.964981
1610,-13.061723,-5.615320,1.770047,-0.032593,0.003174,0.968032
1611,-14.099336,-8.850233,1.464866,-0.048463,-0.005737,0.981949
1612,-12.939651,-10.986496,0.305180,-0.012451,-0.029419,0.981704
1613,-9.521630,-12.512398,-1.281758,-0.052369,0.030762,1.096208
1614,-6.286717,-11.291676,-1.281758,-0.022461,-0.004273,0.980728
1615,-10.376135,-12.695506,-0.915541,-0.014038,-0.005737,1.037125
1616,-7.995727,-12.146181,-1.342794,0.005859,-0.008423,1.012833
1617,-9.460594,-11.535821,-1.220722,0.003174,-0.018311,1.027237
1618,-6.713970,-9.948882,-0.732433,0.020874,-0.047974,1.022599
1619,-7.873655,-9.521630,-0.183108,0.012329,-0.031861,1.017105
1620,-9.216449,-8.789197,-0.122072,0.022827,-0.056397,1.014542
1621,-9.460594,-7.263294,0.000000,0.030274,-0.064454,0.976944
1622,-8.850233,-5.920500,0.000000,0.025147,-0.031617,0.970718
1623,-10.620279,-5.920500,-0.122072,-0.000610,-0.012329,0.962295
1624,-14.038300,-7.019150,0.122072,0.011597,0.019654,0.965225
1625,-19.653620,-7.873655,0.244144,-0.001221,0.013550,0.950698
1626,-25.940337,-8.484016,0.183108,0.018555,-0.008911,0.973404
1627,-29.541466,-7.995727,0.488289,0.018921,-0.037476,0.999649
1628,-27.344167,-7.263294,0.732433,0.024414,-0.042481,1.007584
1629,-26.855879,-6.591897,0.793469,0.011109,-0.038697,0.989517
1630,-26.245518,-6.713970,0.671397,0.004639,-0.025391,0.972549
1631,-28.809033,-7.995727,0.671397,0.011109,-0.022461,0.992203
1632,-32.349126,-7.751583,1.159686,0.034302,-0.045045,0.976089
1633,-35.706111,-6.958114,2.441444,0.030884,-0.093629,1.037980
1634,-31.433585,-6.347753,4.150454,0.031006,-0.144533,0.978042
1635,-26.977951,-2.807660,3.601129,0.067506,-0.065797,1.074479
1636,-27.405203,0.793469,4.272526,0.082521,0.004150,0.969375
1637,-41.809720,1.709010,3.356985,-0.028687,-0.031983,0.953262
1638,-43.945983,-0.854505,1.831083,0.007568,-0.037232,0.970596
1639,-45.166705,0.000000,-1.464866,-0.010864,-0.033692,1.002701
1640,-53.284504,-1.586938,-0.915541,0.027466,-0.046265,1.018570
1641,-53.894865,-1.037613,-4.455634,-0.023682,-0.077882,1.046647
1642,-48.096437,-0.305180,-9.460594,-0.038453,-0.110842,1.042008
1643,-45.777066,-2.685588,-11.841001,-0.036622,-0.148806,1.008316
1644,-49.866484,-1.403830,-21.545739,-0.013794,-0.329229,1.058976
1645,-62.745098,-1.159686,-26.916915,0.129885,-0.401251,1.069230
1646,-35.523003,-0.488289,-10.925460,0.149294,-0.237919,1.067887
1647,-24.353399,4.211490,-4.211490,0.107546,-0.117800,1.054215
1648,-42.786297,10.986496,-4.272526,0.104128,0.130373,0.979873
1649,-78.187228,22.156100,-15.686275,0.087526,0.186648,0.925673
1650,-122.926680,26.733806,-15.197986,-0.032349,0.393805,0.733776
1651,-166.628519,15.808347,-22.278172,-0.139528,0.249760,0.690684
1652,-183.718624,-18.493935,-13.366903,-0.302251,0.358526,0.887465
1653,-310.734722,-25.940337,-34.912642,-0.054078,0.949355,1.795315
1654,-505.622950,-55.115587,-15.686275,-0.549569,0.084596,1.131975
1655,-652.780957,-154.421302,40.344854,-0.325689,-0.149905,1.100969
1656,-728.099489,-198.977646,65.735866,0.131716,-0.100465,1.391867
1657,-786.449989,-197.817960,74.952316,0.167361,-0.090578,1.068009
1658,-956.801709,-219.913024,129.335470,0.604746,-2.000031,1.999969
1659,-532.356756,-123.292897,149.660487,-0.471687,-1.461692,1.999969
1660,235.355154,-27.954528,-43.396658,-0.113649,0.541756,1.999969
1661,414.068818,37.842374,-30.701152,-0.706920,1.352438,1.999969
1662,225.894560,45.716030,-34.119173,-0.367315,0.910170,0.539071
1663,32.166018,-12.512398,25.452049,-0.450080,0.408209,-0.181399
1664,-8.545052,-35.217823,33.081559,-0.181277,0.152468,0.043946
1665,93.873503,-9.704738,18.554971,-0.160159,0.112795,0.188846
1666,112.489509,-0.122072,11.596857,-0.018311,0.404425,0.307500
1667,63.782712,-0.305180,10.864424,0.007080,0.374640,0.675792
1668,85.084306,2.441444,3.234913,0.015503,0.317876,0.979507
1669,132.692454,4.455634,-7.507439,-0.001953,0.400031,1.063005
1670,143.007553,-1.464866,-11.413748,-0.026856,0.409430,1.169451
1671,160.036622,-4.028382,-15.747311,-0.048707,0.309209,1.265400
1672,196.169986,4.089418,-22.034028,-0.051637,0.252079,1.229999
1673,214.419776,15.503166,-26.428626,-0.051270,0.188357,1.177142
1674,225.711452,28.381781,-28.442817,-0.046754,0.103883,1.226093
1675,242.618448,41.016251,-29.907683,-0.042603,0.007568,1.287495
1676,257.511254,49.683375,-27.771420,-0.046754,-0.083253,1.330098
1677,270.450904,51.392386,-25.329976,0.073976,-0.176761,1.299825
1678,276.676585,50.659953,-29.175250,0.236454,-0.278080,1.370871
1679,286.442359,61.341268,-37.659266,0.281132,-0.352667,1.323873
1680,287.418936,66.468299,-46.387427,0.329839,-0.403326,1.265400
1681,280.155642,67.200732,-54.077974,0.364874,-0.472786,1.216693
1682,267.521172,64.759289,-60.975052,0.294316,-0.573495,1.186908
1683,258.182651,61.402304,-63.782712,0.124880,-0.656626,1.189227
1684,249.454490,54.505226,-60.608835,-0.030640,-0.648569,1.245258
1685,237.003128,52.063783,-52.857252,-0.107546,-0.603281,1.293233
1686,222.842756,54.322118,-43.091478,-0.157595,-0.532723,1.468528
1687,212.039368,60.791943,-33.447776,-0.155764,-0.454108,1.717678
1688,207.339590,68.787671,-23.743038,-0.082033,-0.392096,1.999969
1689,213.626307,75.196460,-16.479744,0.037842,-0.373297,1.999969
1690,231.326772,78.065156,-14.038300,0.186038,-0.410285,1.999969
1691,251.407645,85.450523,-16.235599,0.321172,-0.477058,1.999969
1692,260.807202,92.164492,-20.080873,0.369146,-0.539681,1.797757
1693,256.839857,91.615167,-23.620966,0.350591,-0.584848,1.556786
1694,245.975433,85.938811,-25.207904,0.264408,-0.615244,1.404318
1695,231.021592,72.816052,-24.536507,0.205814,-0.626230,1.404685
1696,216.250858,58.472572,-24.475471,0.164553,-0.665782,1.447654
1697,207.400626,51.026169,-26.733806,0.135866,-0.713634,1.486595
1698,196.963455,52.063783,-30.457008,0.126223,-0.805554,1.478050
1699,185.061418,61.402304,-34.790570,0.126833,-0.967910,1.395651
1700,169.802396,73.365377,-37.903410,0.119509,-1.198138,1.321187
1701,145.571069,86.121920,-38.574807,0.196780,-1.567407,1.282979
1702,116.395819,102.723735,-37.781338,0.256107,-2.000031,1.331685
1703,111.085679,132.143130,-27.954528,0.224613,-2.000031,0.860853
1704,117.982757,144.289311,-14.465553,0.052613,-2.000031,-0.099489
1705,79.713130,107.423514,17.212177,-0.078004,-2.000031,-0.961196
1706,-5.065995,24.170291,55.359731,-0.142947,-1.776394,-0.832166
1707,-59.388113,-52.552071,86.610208,-0.097292,-1.432151,0.062013
1708,-92.164492,-101.869230,94.178683,0.375982,-1.650050,-1.524926
1709,-224.917983,-137.270161,94.728008,0.752331,-0.753674,0.131350
1710,-223.331044,-109.376669,55.420768,0.401617,-0.736584,0.786511
1711,-116.334783,-99.000534,33.936065,-0.064698,0.661631,1.701564
1712,-133.363851,-105.470359,37.964446,-0.204105,0.973526,1.186419
1713,-244.998856,-88.563363,56.336309,-0.034302,0.441657,-0.081178
1714,-316.472114,-83.619440,60.852979,0.294072,-0.282475,0.398566
1715,-309.819181,-76.050965,63.233387,0.718761,-0.319097,1.999969
1716,-238.773175,-47.608148,40.100710,1.010025,-0.175051,1.999969
1717,-174.746319,-17.090105,12.634470,0.791150,-0.178225,1.877470
1718,-184.878309,-9.521630,3.479057,0.014160,-0.222171,1.826444
1719,-188.723583,-27.954528,27.588312,-1.091325,-0.344854,1.999969
1720,-107.789731,-69.336996,41.809720,-0.526741,-0.468391,1.999969
1721,-58.899825,-95.216297,26.306554,1.208148,0.102419,1.999969
1722,-25.085832,-30.029755,3.356985,0.757336,0.018555,1.569848
1723,-30.395972,0.427253,6.347753,-0.569345,0.108156,0.916152
1724,-46.753643,-35.950256,10.864424,-0.091310,0.117556,1.126360
1725,-36.377508,-29.358358,-2.807660,0.518074,0.135378,1.159442
1726,-51.270314,-7.080186,1.892119,0.014771,-0.051026,1.183856
1727,-30.029755,-10.803388,-3.234913,-0.234257,-0.041993,1.099992
1728,-27.405203,-17.822538,-7.568475,0.205692,0.017700,1.013931
1729,-33.691920,-6.408789,-0.610361,0.069459,-0.030030,1.154314
1730,-19.531548,-3.540093,2.014191,0.048219,0.037476,1.052140
1731,-23.682002,1.037613,2.685588,0.078492,0.109499,0.933364
1732,-32.593271,2.441444,6.225681,0.012085,0.037720,0.966079
1733,-35.767147,2.319371,6.836042,-0.012818,0.000855,1.023209
1734,-33.386740,0.122072,6.836042,0.044556,0.031250,1.001968
1735,-33.691920,-1.098650,5.798428,-0.004150,0.023926,0.982193
1736,-39.124132,-3.784237,6.347753,-0.016358,-0.034302,1.039811
1737,-33.936065,-5.859464,4.028382,-0.029664,-0.026368,0.970962
1738,-34.302281,-8.789197,2.685588,-0.040894,-0.000610,0.936172
1739,-41.931792,-13.183795,3.540093,-0.032959,-0.049073,0.965103
1740,-41.321431,-17.212177,1.342794,-0.033326,-0.033814,0.993301
1741,-40.100710,-16.906996,1.037613,-0.117067,0.119142,1.291768
1742,-38.696880,-17.151141,1.098650,-0.000366,0.002441,1.112566
1743,-36.560616,-17.639429,-1.464866,-0.003540,-0.043946,1.003555
1744,-33.752956,-16.296635,-3.173877,0.042603,-0.015503,1.028580
1745,-33.386740,-14.587625,-5.676356,0.014160,-0.116823,1.074846
1746,-26.550698,-13.305867,-2.624552,0.052735,-0.107668,1.055314
1747,-23.743038,-10.620279,-1.709010,0.032837,-0.083742,1.017105
1748,-23.315785,-9.704738,0.061036,0.030518,-0.069947,1.019669
1749,-25.574121,-8.545052,0.366217,0.031739,-0.085084,1.025284
1750,-27.649348,-7.263294,-0.549325,0.009522,-0.090455,1.011002
1751,-24.475471,-7.263294,0.061036,0.045899,-0.105959,1.061784
1752,-22.827497,-5.676356,-0.366217,0.048585,-0.129885,0.953262
1753,-15.747311,-5.371176,-1.770047,0.042603,-0.132204,0.985000
1754,-19.226368,-5.127031,-1.647974,0.029053,-0.112795,1.012100
1755,-20.569162,-4.089418,-1.281758,0.036500,-0.050782,1.265522
1756,-20.874342,-4.699779,-0.793469,0.009277,-0.151736,1.094743
1757,-13.794156,-4.699779,-0.366217,0.030152,-0.132082,1.007462
1758,-13.305867,-3.540093,-0.549325,0.036866,-0.110842,0.992813
1759,-16.662852,-3.418021,-0.488289,0.043946,-0.135256,1.024674
1760,-13.794156,-3.295949,-0.305180,0.031128,-0.140627,1.009415
1761,-11.230640,-3.784237,0.122072,0.042969,-0.105226,1.011734
1762,-14.587625,-3.173877,-0.427253,0.028931,-0.141115,0.991836
1763,-12.939651,-2.990768,-0.976577,0.045045,-0.131594,0.991592
1764,-13.550011,-2.929732,-1.220722,0.056886,-0.141360,1.026505
1765,-13.427939,-2.197299,-1.159686,0.046021,-0.160891,1.019059
1766,-7.507439,-1.770047,-1.098650,0.058473,-0.166995,1.035050
1767,-6.897078,-0.488289,-0.549325,0.053101,-0.184573,1.052384
1768,-1.525902,0.427253,0.793469,0.049805,-0.189578,1.051774
1769,4.089418,1.342794,2.014191,0.062013,-0.177005,1.070817
1770,7.019150,2.075227,2.197299,0.032837,-0.164553,1.013077
1771,13.061723,0.732433,0.427253,-0.032105,-0.103273,0.925429
1772,7.202258,-2.380407,-1.953155,0.000000,-0.053223,0.944717
1773,-3.845274,-3.601129,-4.333562,0.026978,-0.106691,0.966079
1774,-2.441444,-3.295949,-4.943923,0.040650,-0.099855,0.970352
1775,-8.422980,-1.831083,-4.516670,0.066529,-0.139895,1.034073
1776,-7.019150,0.183108,-3.112840,0.063722,-0.182132,1.046036
1777,0.732433,1.892119,-1.220722,0.073854,-0.171511,1.053483
1778,4.028382,4.028382,0.671397,0.060914,-0.188479,1.034928
1779,10.193027,5.249104,2.380407,0.064210,-0.173220,1.036027
1780,12.756542,6.225681,3.418021,0.043702,-0.152102,1.011734
1781,12.390326,6.469825,3.540093,0.032105,-0.146975,0.991470
1782,12.878614,6.042573,3.479057,0.037720,-0.161868,1.008072
1783,17.029068,5.065995,3.051804,0.019287,-0.141482,1.000992
1784,19.531548,4.028382,2.441444,0.027710,-0.099733,0.974990
1785,16.113527,3.051804,1.464866,-0.005615,-0.075685,0.954604
1786,11.413748,1.709010,0.427253,0.041505,-0.084352,0.984024
1787,7.934691,2.258335,0.183108,0.025269,-0.098512,0.993301
1788,7.141222,2.685588,0.366217,0.044678,-0.112551,1.010513
1789,6.713970,4.028382,0.671397,0.041138,-0.121340,1.009293
1790,7.385367,4.882887,1.403830,0.041871,-0.113161,1.053605
1791,9.399557,5.798428,2.075227,0.019165,-0.121828,1.004776
1792,10.376135,5.676356,1.892119,0.032227,-0.117556,0.993668
1793,10.498207,5.493248,1.403830,0.022217,-0.117189,0.981704
1794,11.718929,4.272526,0.854505,0.016968,-0.106569,0.994034
1795,11.963073,2.990768,0.122072,0.009033,-0.097658,0.982925
1796,12.390326,1.525902,-0.427253,0.014405,-0.089967,0.988052
1797,11.047532,0.488289,-0.915541,0.017090,-0.093996,0.986954
1798,10.864424,0.427253,-1.037613,0.037720,-0.089235,1.008804
1799,10.742351,1.342794,-0.976577,0.049561,-0.092897,1.012222
1800,11.169604,2.380407,-0.793469,0.043580,-0.105837,1.010269
1801,13.672084,3.723201,-0.366217,0.038819,-0.087648,1.016373
1802,10.925460,4.943923,0.366217,0.040406,-0.100343,1.020279
1803,13.305867,6.286717,0.854505,0.029664,-0.106813,1.020523
1804,14.648661,6.591897,1.342794,0.012207,-0.084474,0.997330
1805,14.282444,6.042573,1.342794,0.001953,-0.065919,0.979019
1806,12.268254,4.455634,1.037613,-0.008911,-0.061036,0.956313
1807,9.704738,2.014191,0.000000,-0.021851,-0.043091,0.940810
1808,6.530861,-0.244144,-0.732433,-0.003906,-0.045289,0.972305
1809,3.845274,-1.220722,-1.342794,0.010498,-0.043091,0.985367
1810,1.525902,-1.281758,-1.892119,0.021118,-0.051759,0.987198
1811,-0.732433,-0.732433,-1.586938,0.043336,-0.085817,1.030900
1812,1.586938,1.647974,-0.671397,0.056275,-0.105959,1.038834
1813,4.333562,4.455634,0.671397,0.029541,-0.114137,1.036881
1814,7.629511,5.249104,2.136263,0.005493,-0.101564,0.998672
1815,10.070954,3.540093,1.892119,-0.040162,-0.048341,0.951308
1816,7.446403,-0.732433,0.244144,-0.019165,-0.066651,0.940932
1817,3.967346,-3.234913,-0.549325,-0.014893,-0.036866,0.953628
1818,1.098650,-5.432212,-1.647974,-0.014527,-0.001343,0.936049
1819,-8.850233,-7.751583,-2.441444,0.023316,-0.073365,1.024308
1820,-2.624552,-6.469825,-2.990768,0.048829,-0.092531,1.042008
1821,-2.075227,-4.150454,-2.197299,0.054932,-0.087282,1.038590
1822,-0.061036,-0.976577,-0.671397,0.050416,-0.107057,1.057633
1823,4.577707,1.403830,0.427253,0.035035,-0.062745,1.014664
1824,3.356985,2.136263,0.671397,0.003784,-0.038453,0.967544
1825,-2.136263,0.427253,0.183108,0.013184,-0.081544,1.011978
1826,2.685588,0.183108,-0.427253,0.011475,-0.073243,0.990494
1827,1.464866,-0.427253,-0.854505,0.027588,-0.060182,1.008682
1828,1.525902,0.488289,-0.549325,0.018921,-0.068849,1.007218
1829,1.342794,0.427253,-0.549325,0.020508,-0.060670,1.006973
1830,0.427253,1.342794,-0.183108,0.027832,-0.094606,1.034806
1831,6.836042,1.342794,-0.671397,-0.005127,-0.058106,0.984268
1832,3.540093,-0.610361,-1.525902,0.032227,-0.044434,0.986465
1833,0.244144,0.000000,-1.281758,0.039063,-0.092164,1.048356
1834,6.469825,1.831083,-1.037613,0.038331,-0.067628,1.016129
1835,4.211490,2.380407,-0.244144,0.017212,-0.040284,0.980606
1836,0.305180,2.258335,-0.122072,0.016968,-0.048096,0.973648
1837,1.220722,1.220722,-0.488289,-0.038941,0.006226,0.892226
1838,-9.887846,-1.770047,-0.915541,0.020996,-0.002930,0.913710
1839,-17.029068,-1.709010,-0.610361,0.019654,-0.082765,1.023575
1840,-11.535821,-0.610361,-0.854505,0.023804,-0.084108,1.032609
1841,-10.376135,-0.671397,-0.854505,0.021118,-0.097658,1.043473
1842,-4.394598,-0.427253,-1.403830,0.007202,-0.070314,0.994888
1843,-7.934691,-1.342794,-1.342794,0.031128,-0.092409,1.029068
1844,-3.112840,0.000000,-0.976577,0.023072,-0.097780,1.029679
1845,-1.831083,0.976577,-0.427253,0.032959,-0.080568,1.016373
1846,-1.342794,1.709010,0.122072,0.014649,-0.080934,1.017716
1847,0.000000,1.159686,-0.366217,0.008545,-0.053468,0.984512
1848,-5.065995,0.183108,-0.305180,0.017456,-0.088258,1.006729
1849,-2.075227,0.976577,0.000000,0.028565,-0.077638,1.019059
1850,-2.136263,2.197299,0.427253,0.010010,-0.046754,0.980240
1851,-5.188067,2.014191,0.549325,0.016236,-0.058350,0.986831
1852,-6.836042,1.464866,0.549325,-0.000610,-0.084596,1.013687
1853,-4.211490,0.427253,-0.183108,0.013550,-0.091798,1.017838
1854,-2.136263,0.732433,-0.610361,0.012329,-0.065675,1.002090
1855,-3.723201,0.610361,-0.671397,0.028565,-0.090700,1.026017
1856,0.122072,1.464866,-0.427253,0.012451,-0.088746,1.012222
1857,-0.915541,1.098650,-0.122072,0.016114,-0.089235,1.014176
1858,1.342794,0.793469,-0.183108,-0.014160,-0.084230,1.007828
1859,0.610361,-0.671397,-0.366217,0.005737,-0.094850,1.028336
1860,4.699779,-1.037613,-0.366217,0.012329,-0.099245,1.028946
1861,6.775006,-0.610361,-0.244144,0.015381,-0.069825,0.995010
1862,5.065995,-0.427253,0.061036,0.020386,-0.059937,0.986343
1863,3.479057,0.183108,0.244144,0.009277,-0.030030,0.957046
1864,-3.601129,-0.915541,0.000000,-0.004150,-0.058595,0.988663
1865,-2.197299,-1.831083,-0.915541,0.010498,-0.063600,0.998550
1866,-3.601129,-2.380407,-1.159686,0.024292,-0.098512,1.024674
1867,1.281758,-1.159686,-0.793469,0.030030,-0.089845,1.013443
1868,0.488289,-0.854505,-0.427253,0.004517,-0.066407,0.979751
1869,-1.586938,-2.136263,-0.366217,0.017823,-0.090578,1.015640
1870,2.014191,-2.075227,-0.793469,0.002441,-0.065919,0.989151
1871,-0.854505,-3.051804,-0.732433,0.014405,-0.074586,0.997940
1872,0.427253,-2.502480,-0.488289,0.019654,-0.052857,0.977066
1873,-3.479057,-2.197299,0.000000,0.016968,-0.040162,0.972671
1874,-6.775006,-1.770047,0.000000,0.021851,-0.074098,1.005753
1875,-6.286717,-1.281758,0.000000,0.022583,-0.078737,1.010269
1876,-6.042573,-0.915541,-0.183108,0.012451,-0.069337,1.003799
1877,-3.418021,-0.976577,-0.610361,0.015625,-0.087526,0.995865
1878,-4.638743,-1.281758,-0.610361,0.020996,-0.079835,1.010025
1879,-2.319371,-1.220722,-0.549325,0.022827,-0.096071,1.022599
1880,-1.342794,-0.793469,-0.244144,0.019532,-0.082521,1.009293
1881,-0.427253,-0.305180,-0.122072,0.029053,-0.091310,1.014298
1882,0.244144,0.000000,0.061036,0.017945,-0.076417,0.994888
1883,-0.854505,-0.061036,0.061036,0.014771,-0.073854,0.990494
1884,-2.319371,-0.488289,0.000000,0.013794,-0.072511,0.986465
1885,-3.173877,-0.732433,-0.122072,0.014771,-0.072511,1.006241
1886,-3.479057,-0.793469,-0.305180,0.018433,-0.086061,1.007950
1887,-2.258335,-0.793469,0.000000,0.022827,-0.087770,1.008560
1888,-0.305180,-0.305180,0.244144,0.024903,-0.081788,1.010513
1889,-1.709010,-0.061036,0.366217,0.020996,-0.092775,1.013809
1890,0.732433,0.244144,0.427253,0.021607,-0.084962,1.009049
1891,-0.549325,0.183108,0.305180,0.016236,-0.080079,1.003433
1892,-0.061036,0.427253,0.000000,0.018433,-0.083742,1.014298
1893,0.122072,0.671397,-0.244144,0.018921,-0.087526,0.997940
1894,-1.037613,0.366217,-0.244144,0.011597,-0.087526,1.003555
1895,-0.732433,-0.061036,-0.244144,0.018189,-0.083009,0.998795
1896,-1.342794,-0.244144,-0.305180,0.027588,-0.078614,1.001968
1897,-1.281758,-0.061036,-0.244144,0.016114,-0.082277,0.997330
1898,-0.915541,-0.061036,-0.366217,0.014282,-0.073732,0.996963
