Packet number,Gyroscope X (deg/s),Gyroscope Y (deg/s),Gyroscope Z (deg/s),Accelerometer X (g),Accelerometer Y (g),Accelerometer Z (g)
0,0.183108,0.244144,-0.122072,0.006592,-0.007691,1.003555
2,0.427253,0.183108,-0.122072,0.006592,-0.0023190000000000003,0.9969629999999999
4,0.427253,0.244144,-0.122072,0.005737,-0.0063479999999999995,1.001846
6,0.30518,0.244144,-0.122072,0.00293,-0.006226,0.998917
8,0.9155409999999999,0.244144,-0.183108,0.001709,-0.000122,0.987808
10,1.2207219999999999,0.061036,-0.244144,0.005249,-0.001221,1.005875
12,0.854505,0.183108,-0.122072,0.002075,0.000366,0.9956209999999999
14,0.427253,0.366217,0.0,0.001953,-0.002564,0.9959870000000001
16,0.183108,0.427253,0.061036,-0.001831,-0.005737,0.9994049999999999
18,0.122072,0.427253,0.0,-0.000366,-0.008423,0.999649
20,0.061036,0.427253,0.0,-0.001953,-0.003662,1.000381
22,0.366217,0.183108,0.0,-0.000732,0.000122,0.992325
24,0.671397,0.0,-0.183108,-0.000977,-0.004028,1.0057530000000001
26,0.061036,-0.30518,-0.183108,-0.000366,0.000366,0.996597
28,-0.122072,-0.30518,-0.183108,0.001221,-0.000366,0.993668
30,0.0,0.061036,0.0,-0.001709,-0.000366,0.999893
32,-0.366217,-0.061036,0.0,0.0037840000000000005,-0.0058590000000000005,1.007584
34,-0.183108,-0.183108,0.0,-0.006226,-0.0051270000000000005,0.9991610000000001
36,-0.061036,-0.366217,-0.122072,0.003418,-0.0023190000000000003,0.988785
38,0.366217,-0.183108,0.0,-0.000732,-0.002564,0.997208
40,0.366217,0.061036,0.0,0.005737,-0.00061,0.999527
42,0.0,0.061036,0.0,-0.005371,0.003296,0.998917
44,-0.30518,-0.061036,-0.122072,0.002075,0.005249,0.9986719999999999
46,-0.48828900000000003,-0.061036,0.0,-0.0023190000000000003,-0.0031739999999999997,1.00734
48,-0.244144,-0.30518,0.0,0.0028079999999999997,-0.002441,0.992569
50,0.183108,0.0,0.0,-0.003662,0.0031739999999999997,0.9876860000000001
52,0.0,-0.30518,0.0,-0.00061,0.001343,0.98854
54,-0.48828900000000003,-0.427253,-0.122072,-0.002441,0.004273,0.998184
56,-1.2207219999999999,-0.48828900000000003,0.0,0.0037840000000000005,-0.00061,1.009659
58,-0.671397,-0.183108,0.0,0.001709,-0.004517,0.997574
60,-0.48828900000000003,-0.244144,0.0,-0.004639,0.006226,1.016983
62,1.281758,-0.183108,0.0,0.004028,0.004517,0.979751
64,0.48828900000000003,-0.244144,-0.122072,0.003296,-0.001709,1.0040440000000002
66,-0.122072,-0.427253,0.0,-0.003052,-0.0031739999999999997,0.9984280000000001
68,-0.48828900000000003,-0.244144,0.0,-0.001099,-0.001953,0.9987950000000001
70,-0.671397,-0.30518,0.0,-0.00415,-0.0021969999999999997,0.996475
72,-0.671397,-0.427253,-0.183108,0.001465,-0.003662,1.0011139999999998
74,0.30518,0.0,0.0,-0.000977,0.001953,0.9911040000000001
76,0.6103609999999999,-0.122072,0.0,-0.0008550000000000001,0.0023190000000000003,0.992569
78,0.0,-0.183108,0.0,0.000488,0.0,0.996353
80,-0.244144,-0.30518,-0.122072,0.003418,0.001953,0.9946440000000001
82,-0.183108,-0.366217,0.0,0.004273,-0.0008550000000000001,1.003922
84,-0.366217,-0.366217,0.0,0.002075,-0.005005,1.0037989999999999
86,-0.183108,-0.061036,0.0,-0.001221,-0.000244,0.9946440000000001
88,0.061036,0.0,-0.122072,-0.002564,0.002686,0.9994049999999999
90,-0.061036,-0.30518,-0.122072,0.001099,-0.002075,0.9946440000000001
92,-0.122072,-0.427253,-0.183108,0.001709,0.001953,0.9952540000000001
94,-0.244144,-0.48828900000000003,-0.122072,-0.001831,0.001099,1.0000149999999999
96,-0.976577,-0.366217,-0.122072,-0.000122,-0.004028,1.002701
98,-0.427253,0.061036,0.0,0.0021969999999999997,0.0037840000000000005,1.0031889999999999
100,-0.366217,0.122072,0.0,-0.0015869999999999999,0.001831,0.997208
102,0.061036,0.427253,0.0,-0.002075,0.001831,1.005509
104,-0.122072,0.244144,0.0,-0.0058590000000000005,-0.0037840000000000005,0.996109
106,-0.122072,0.061036,-0.183108,-0.004761,0.002686,1.0042879999999998
108,-0.244144,-0.244144,-0.122072,-0.002441,0.004517,0.995743
110,-1.037613,-0.30518,-0.122072,-0.0058590000000000005,-0.001709,1.000992
112,-0.48828900000000003,0.0,0.0,-0.000122,0.000366,1.004166
114,-0.30518,0.122072,-0.183108,0.005493,-0.001953,1.003067
116,-0.122072,0.122072,0.0,0.000122,0.001709,1.009903
118,0.671397,0.183108,-0.122072,-0.004517,0.003052,0.9876860000000001
120,0.183108,0.0,0.0,-0.001465,0.000366,1.014054
122,-0.366217,-0.244144,-0.122072,-0.0070799999999999995,-0.000488,1.000381
124,0.061036,0.0,-0.122072,0.001343,0.004273,0.9976959999999999
126,-0.183108,-0.061036,0.0,-0.005005,-0.000366,0.999893
128,0.061036,0.061036,0.0,-0.002441,-0.0021969999999999997,0.992081
130,-0.732433,-0.854505,0.0,0.0063479999999999995,-0.001709,1.0000149999999999
132,-0.061036,-0.6103609999999999,-0.122072,-0.000122,-0.000977,0.99855
134,0.671397,-0.48828900000000003,-0.183108,0.003296,-0.001709,0.992447
136,-0.061036,-0.244144,-0.122072,-0.005493,0.0028079999999999997,0.9904940000000001
138,0.0,-0.183108,0.061036,-0.003418,0.004273,0.999649
140,-0.183108,-0.244144,0.0,0.000366,0.005005,1.0037989999999999
142,-0.427253,-0.244144,0.0,-0.005737,0.0,1.0031889999999999
144,-0.6103609999999999,-0.366217,0.0,0.000732,-0.004517,1.0046540000000002
146,-0.061036,-0.244144,0.0,-0.008667,0.004761,0.996719
148,-0.244144,-0.427253,0.0,-0.005737,0.008789,0.9908600000000001
150,-1.464866,-0.48828900000000003,-0.183108,-0.006104,0.002441,0.993179
152,-1.2207219999999999,-0.183108,0.0,-0.005737,0.000488,1.000259
154,-0.854505,0.061036,0.0,0.006714,0.0074459999999999995,1.001358
156,-2.136263,-0.366217,-0.183108,-0.0021969999999999997,-0.01355,1.00441
158,-0.732433,-0.244144,0.0,-0.002686,-0.005005,1.00148
160,0.244144,0.0,-0.122072,-0.0023190000000000003,0.0015869999999999999,0.996231
162,0.122072,-0.122072,0.0,0.0043950000000000005,0.001953,0.992813
164,-0.30518,-0.30518,0.0,0.000122,0.003052,0.9979399999999999
166,-0.427253,-0.48828900000000003,-0.122072,0.000122,0.002075,1.006119
168,-0.244144,-0.30518,0.0,0.005005,0.000366,1.001236
170,-0.061036,-0.427253,-0.244144,-0.004639,-0.003662,1.002823
172,0.48828900000000003,-0.671397,-0.122072,-0.006714,-0.000122,1.000259
174,0.9155409999999999,-0.427253,0.0,-0.004883,-0.005737,1.002335
176,1.464866,-0.6103609999999999,0.0,-0.0043950000000000005,0.000122,1.006729
178,4.089418,0.793469,-0.30518,-0.011840999999999999,-0.011109,0.98146
180,4.455634,0.48828900000000003,0.122072,-0.0035399999999999997,-0.007691,1.015763
182,6.2867169999999994,0.366217,0.0,-0.005005,0.000977,0.9870760000000001
184,5.61532,-0.122072,0.061036,-0.005371,0.019409,1.0011139999999998
186,5.188067,-0.6103609999999999,0.122072,-0.001343,0.007568000000000001,0.993179
188,4.5166699999999995,-0.9155409999999999,0.122072,0.001709,0.014893,0.9858549999999999
190,4.638743,-0.549325,0.366217,-0.005615,0.013062,0.9945219999999999
192,2.685588,-1.2207219999999999,0.244144,-0.006714,0.018311,0.9908600000000001
194,2.624552,-0.854505,0.30518,0.0063479999999999995,0.024903,1.003311
196,2.380407,-0.6103609999999999,0.48828900000000003,-0.001221,0.020630000000000003,0.988418
198,2.075227,-0.732433,0.48828900000000003,0.002564,0.026368,0.9902489999999999
200,-0.122072,-0.732433,0.244144,0.001099,0.028076999999999998,0.9851219999999999
202,1.037613,0.427253,0.671397,-0.005615,0.016846,0.989273
204,0.0,-0.6103609999999999,0.366217,-0.019409,0.015625,0.957412
206,-0.6103609999999999,-2.319371,0.671397,-0.0028079999999999997,0.038087,0.9740139999999999
208,-3.540093,-2.80766,0.427253,0.000488,0.019653999999999998,1.0008700000000001
210,-2.80766,-2.746624,0.732433,0.01709,0.028199000000000002,1.001602
212,-0.183108,-1.8921189999999999,1.09865,0.018189,0.014649,1.012589
214,0.6103609999999999,-1.8310830000000002,1.09865,-0.004517,0.03418,0.979141
216,-4.028382,-3.418021,0.854505,-0.000366,0.009276999999999999,0.988174
218,-3.540093,-4.272526,0.244144,0.0094,0.016968,0.963149
220,-5.065995,-5.676356,0.671397,0.011353,0.045288999999999996,1.030167
222,-1.647974,-3.784237,0.30518,0.020752,0.010254000000000001,1.009781
224,-0.48828900000000003,-2.50248,0.30518,0.024903,-0.020386,1.01735
226,0.427253,-2.319371,0.0,0.004639,0.012451,0.9709620000000001
228,-1.525902,-3.234913,0.0,0.015747,-0.019409,1.008682
230,-0.48828900000000003,-2.80766,0.183108,0.031127999999999996,0.006958,1.005875
232,1.647974,-1.342794,0.0,0.025879000000000003,0.010986,1.014786
234,3.051804,-0.122072,-0.244144,0.023926,0.019776,1.0160069999999999
236,2.380407,0.671397,-0.122072,0.018677000000000003,0.0271,0.979873
238,0.0,0.732433,0.061036,0.01294,0.01709,0.99379
240,-1.8310830000000002,0.48828900000000003,0.0,0.016968,0.017578,1.006485
242,-0.061036,0.48828900000000003,-0.48828900000000003,0.016724,0.019043,0.9948879999999999
244,0.48828900000000003,0.244144,-0.6103609999999999,0.026489999999999996,0.006714,1.010758
246,1.70901,0.732433,-0.48828900000000003,0.017823,0.01709,0.999893
248,2.563516,0.9155409999999999,-0.30518,0.009522,0.022705,0.9702299999999999
250,0.854505,0.671397,-0.30518,0.013672,0.013306,0.9991610000000001
252,0.0,0.244144,-0.183108,0.0063479999999999995,0.035889,1.0046540000000002
254,-0.30518,-0.732433,-0.427253,0.010986,0.015381,0.993423
256,-0.427253,-1.8310830000000002,-0.244144,0.017823,0.017334,0.989883
258,-1.037613,-2.014191,-0.183108,0.02002,0.040772,0.972427
260,-3.784237,-1.159686,0.0,0.029664,0.014771000000000001,0.996109
262,-4.455634,-0.427253,0.061036,0.028931000000000002,0.01294,0.99855
264,-3.173877,0.244144,0.30518,0.015015,0.021241,1.0036770000000002
266,-5.493248,-1.159686,0.854505,-0.0008550000000000001,0.010498,0.9790190000000001
268,-11.047532,-3.418021,0.732433,0.006958,0.050294,0.979751
270,-12.512398,-3.540093,0.30518,0.018921,-0.0094,0.944594
272,-13.122759,-1.7700470000000001,1.037613,0.038209,-0.010986,1.0393219999999999
274,-9.277485,0.0,1.586938,0.033082,-0.051637,1.003311
276,-7.446403,0.244144,2.075227,-0.003296,0.010986,0.973648
278,-14.587625,-4.455634,2.685588,-0.010131999999999999,0.008789,0.9431299999999999
280,-20.080873,-8.056764,2.380407,0.0,0.007568000000000001,0.9788969999999999
282,-21.301595000000002,-8.484016,2.014191,0.016358,-0.014649,1.0036770000000002
284,-22.583351999999998,-7.324331,2.014191,0.030151999999999998,-0.020263999999999997,0.998917
286,-24.414435,-7.080186,1.09865,0.019043,-0.012818000000000001,0.989883
288,-32.166018,-7.080186,-0.244144,0.10009900000000001,0.096559,0.881117
290,-66.529335,-5.0049589999999995,2.380407,0.116579,-0.049561,1.072282
292,-60.364691,2.4414439999999997,-1.7700470000000001,0.037232,-0.036744,0.992325
294,-51.392386,9.460594,0.122072,0.028321,-0.071778,1.073136
296,-84.229801,-1.8310830000000002,-20.569162,-0.041627,-0.131472,1.023941
298,-72.877089,9.338521,-11.535821,0.067018,-0.132204,1.034562
300,-47.547112,33.447776,-13.794156,0.40076300000000004,-0.434821,-0.133669
302,-212.34454900000003,6.530861,19.226368,-0.017823,0.621225,0.7207140000000001
304,-392.523079,1.70901,29.602502,-0.240238,-0.029907999999999997,1.319112
306,-492.07293799999997,3.967346,26.733806,0.215824,-0.008179,1.8507360000000002
308,-595.468071,37.964446,133.60799599999999,-1.573388,0.747326,1.9999689999999999
310,229.25154500000002,53.77279300000001,-23.86511,-0.470954,0.8267950000000001,1.888579
312,-79.285878,-12.939651,17.700464999999998,0.16846,0.5985199999999999,0.512337
314,46.509499,1.70901,-25.207904,0.195438,0.38941,0.757336
316,6.103609,-11.413748,-36.1944,-0.003296,0.407843,0.888808
318,82.948043,-17.700464999999998,-40.161746,-0.178958,0.46790299999999996,0.8730600000000001
320,108.76630800000001,-27.771420000000003,-30.518044,-0.239261,0.340093,1.007584
322,136.171511,-18.738079,-22.705425,-0.302373,0.26746,1.014054
324,165.59090600000002,-5.3101400000000005,-10.864424,-0.376349,0.160403,1.04213
326,185.915923,-4.333562000000001,5.249104,-0.331548,0.093385,1.052262
328,201.113909,-2.50248,13.427939000000002,-0.186038,0.07531900000000001,1.226215
330,217.71572400000002,12.268253999999999,11.596857,-0.12365899999999999,0.0058590000000000005,1.310201
332,221.92721400000002,27.649348,6.225681,-0.070924,-0.131838,1.0167389999999998
334,192.690929,39.185168,0.0,-0.042359,-0.15259,1.1937440000000001
336,183.840696,41.80972,-5.9205,0.039429,-0.065675,1.9999689999999999
338,228.213931,48.035401,-19.836728,0.185306,-0.202762,1.9999689999999999
340,239.017319,38.330663,-33.325703999999995,0.145998,-0.40003099999999997,1.873686
342,242.43534,29.48043,-42.969406,0.076295,-0.501228,1.6053709999999999
344,225.10109100000003,31.128404999999997,-49.500267,-0.031373000000000005,-0.515633,1.524559
346,206.363012,40.161746,-50.415808,-0.112917,-0.595468,1.4533909999999999
348,185.244526,52.979324,-45.654994,-0.07422000000000001,-0.7367060000000001,1.1749450000000001
350,149.904631,54.566262,-40.161746,0.057862000000000004,-0.888075,0.913222
352,110.658427,54.322118,-39.856565,0.208377,-1.1379569999999999,0.8532850000000001
354,72.205692,54.749371,-41.077287,0.255741,-1.4613260000000001,0.588266
356,30.273899,27.649348,-26.489662,0.150149,-1.4657209999999998,0.262211
358,-14.709697,-30.579079999999998,1.7700470000000001,-0.017578,-1.073259,0.528573
360,-39.30724,-42.664225,24.719615,-0.16406500000000002,-0.749035,0.9131
362,-144.594492,-98.512245,41.931792,0.051881,-1.1428399999999999,-1.303487
364,-120.11901999999999,-56.153201,40.344854,0.09729199999999999,0.619394,1.234516
366,-237.247272,-101.808194,49.561303,0.323125,0.13904,0.37232
368,-230.655375,-71.351186,39.551384999999996,0.520638,-0.038452999999999994,1.9999689999999999
370,-152.04089399999998,-26.489662,6.225681,0.43421099999999996,-0.13464600000000002,1.9999689999999999
372,-104.798962,-1.8310830000000002,7.568475,-0.403449,-0.095827,1.506859
374,-90.577554,-37.232013,33.752956,-0.099001,-0.151369,1.399924
376,-68.299382,-46.448463000000004,14.770732999999998,0.70399,0.032349,1.99173
378,-43.884947,-25.26894,-1.586938,-0.369512,0.005615,1.2638129999999999
380,-15.747310999999998,-26.367590000000003,-1.159686,0.182132,0.037110000000000004,1.212787
382,-22.217136,-19.958801,1.40383,0.063111,0.016602000000000002,1.1810479999999999
384,-19.165332,-10.376135000000001,0.366217,0.06225700000000001,0.032105,1.065812
386,-9.948882000000001,-1.70901,2.136263,0.067018,0.018433,0.9987950000000001
388,-14.160372,1.7700470000000001,4.455634,-0.016358,0.03772,0.9991610000000001
390,-13.183795000000002,1.281758,2.929732,0.016846,-0.017823,1.023331
392,-14.404517000000002,1.159686,1.342794,-0.004517,0.045167,0.979751
394,-13.672084,0.061036,1.525902,0.008667,0.010864,0.9903719999999999
396,-13.855192,-0.6103609999999999,2.014191,0.02002,-0.038575,0.963516
398,-10.925460000000001,-0.48828900000000003,1.8921189999999999,0.027222000000000003,-0.019898,0.98439
400,-11.718929,-2.380407,2.075227,-0.000122,0.012573,1.01149
402,-8.850233,-2.50248,0.976577,0.004761,0.003662,1.002945
404,-8.545052,-2.624552,0.671397,0.018677000000000003,-0.038331,0.9823149999999999
406,-9.155413000000001,-3.1128400000000003,0.854505,0.0021969999999999997,0.000122,0.989029
408,-10.376135000000001,-4.333562000000001,0.549325,0.022338999999999998,-0.04065,0.953628
410,-11.902037,-5.859464,0.9155409999999999,0.004273,0.01648,0.985733
412,-15.320058,-7.01915,1.037613,0.026733999999999997,-0.015869,1.007218
414,-14.221407999999998,-5.859464,0.671397,0.041871,-0.025269,0.997208
416,-17.822538,-4.882887,2.136263,0.046876,0.010620000000000001,0.953017
418,-26.67277,-4.089418,3.1128400000000003,0.032715,-0.036011,1.015518
420,-26.916915000000003,-1.037613,3.356985,0.024291999999999998,-0.038941,1.024918
422,-25.452049,0.6103609999999999,3.356985,0.01709,-0.030883999999999998,0.9745020000000001
424,-30.457008000000002,-2.746624,3.479057,0.0031739999999999997,-0.044677999999999995,0.9873200000000001
426,-36.49958,-7.01915,2.319371,0.035889,-0.03003,1.033829
428,-31.738766,-0.793469,2.990768,-0.0058590000000000005,-0.095583,1.034806
430,-36.1944,1.525902,5.127031,0.010742,-0.091432,0.981216
432,-43.091478,-0.244144,4.21149,-0.016358,-0.104494,0.932631
434,-48.157472999999996,-2.746624,-3.540093,0.01648,-0.086549,1.041398
436,-48.096437,-4.028382,-7.9957270000000005,-0.10998699999999999,-0.031617,1.25417
438,-53.101395999999994,-3.234913,-34.851606,0.061524,-0.092042,1.0116120000000002
440,-31.006332,3.295949,-16.418708,0.108644,-0.291752,1.127459
442,-37.354085999999995,9.216449,-5.188067,0.035157,0.142702,0.976455
444,-129.94583,23.193713,-4.8218510000000006,0.098512,0.03772,0.8921030000000001
446,-131.410697,-15.320058,-1.342794,-0.322881,0.857801,1.250263
448,-518.806745,-39.551384999999996,7.263294,-0.262455,0.319463,1.226947
450,-730.540932,-131.898985,53.528649,0.161746,-0.099123,1.47451
452,-965.590906,-128.664073,188.29633,-1.4837870000000002,-0.267826,1.9999689999999999
454,256.35156800000004,39.490349,-53.101395999999994,-0.175296,0.42761899999999997,1.9999689999999999
456,-36.377508,-1.464866,8.239872,-0.49366000000000004,0.812146,0.879774
458,22.949569,-10.864424,17.517357,-0.097414,0.25500900000000004,1.130755
460,49.073014,4.21149,2.563516,0.091432,0.558358,0.721935
462,118.10482900000001,-7.385367,-11.718929,0.046998000000000005,0.45435299999999995,0.8872209999999999
464,129.579614,-27.954528000000003,-17.029068,-0.01001,0.367559,1.064714
466,186.037995,-11.535821,-26.428626,-0.07776,0.275029,1.246967
468,224.55176600000001,7.507439,-26.550697999999997,-0.206058,0.042481,1.12929
470,243.22880899999998,17.883574,-13.061722999999999,-0.315801,-0.154299,0.958633
472,251.285573,24.048219,5.676356,-0.245121,-0.220584,1.050309
474,257.694362,25.757229000000002,16.784924,-0.024903,-0.23022800000000002,1.317159
476,268.436713,34.729534,4.699779,0.26392,-0.28101,1.640406
478,284.061952,54.871443000000006,-21.301595000000002,0.31299299999999997,-0.45178900000000005,1.60415
480,272.770275,59.266041,-39.551384999999996,0.260502,-0.586801,1.2361030000000002
482,235.049973,48.096437,-52.613108,0.22571100000000002,-0.508309,1.375998
484,209.719997,47.241932,-63.843748,0.171756,-0.43445500000000004,1.9999689999999999
486,246.64683,54.932479,-73.609522,0.052490999999999996,-0.559213,1.9999689999999999
488,253.055619,60.425727,-66.895552,-0.034424,-0.716808,1.790311
490,234.073396,62.50095400000001,-55.298694999999995,0.057252,-0.760266,1.604517
492,210.33035800000002,68.055238,-50.720989,0.13843,-0.9308,1.444724
494,174.868391,66.285191,-47.119859999999996,0.125124,-1.45156,1.397482
496,135.866331,85.69466700000001,-39.673457,0.527962,-2.0000310000000003,1.009903
498,99.183642,104.921035,-37.59823,0.522103,-2.0000310000000003,-0.47974399999999995
500,-26.062409,-11.596857,21.850919,0.098268,-1.6866709999999998,-0.2168
502,-61.646448,-82.398718,57.373922,0.08996699999999999,-0.892958,1.3243610000000001
504,-174.13595800000002,-78.370336,64.332036,0.245243,0.32495599999999997,0.755016
506,-78.61448100000001,-32.104982,31.250477000000004,0.259892,1.030167,1.503929
508,-229.861906,-58.289464,29.358358000000003,0.16003699999999998,0.049683,-0.436042
510,-316.716259,-46.265353999999995,44.739452,0.420783,-0.114504,1.9999689999999999
512,-192.20264,1.525902,19.592584,0.313848,-0.412238,1.9999689999999999
514,-138.79606299999998,-14.892805,28.870069,-0.677134,-0.398688,1.9999689999999999
516,-17.761501000000003,-55.90905600000001,32.043946000000005,0.12024100000000001,0.303349,1.199481
518,-30.579079999999998,-42.786297,10.620279,0.133425,-0.07727200000000001,1.490867
520,-19.226368,-51.392386,5.432212,0.122927,0.13806400000000002,1.142962
522,-21.362631,-34.546426000000004,1.09865,-0.004639,-0.0074459999999999995,1.16701
524,-18.127717999999998,-25.391012,1.037613,0.086793,0.05651900000000001,1.054582
526,-30.884259999999998,-18.432898,1.70901,0.102296,0.070924,1.100603
528,-17.578393,-5.676356,0.427253,-0.008789,0.024781,1.006363
530,-25.085832,-5.432212,2.136263,0.007568000000000001,-0.031617,1.060319
532,-19.775692000000003,-4.455634,1.09865,0.022461000000000002,0.009033,0.9944
534,-17.822538,-5.981537,0.366217,0.009766,0.006104,0.999649
536,-18.24979,-6.347753,0.732433,-0.000366,-0.006592,0.988174
538,-18.677042999999998,-6.897078,0.976577,0.024048,-0.034791,1.0272370000000002
540,-16.052491,-6.164645,1.159686,0.016358,-0.032593000000000004,0.994766
542,-17.273213000000002,-6.164645,0.732433,0.012329000000000001,-0.023804,1.0080719999999999
544,-15.747310999999998,-5.188067,0.976577,0.028687,-0.035523,1.000259
546,-16.540779999999998,-4.333562000000001,1.40383,0.045411,-0.041871,0.987808
548,-18.066682,-3.234913,2.075227,0.024781,-0.039307,0.9864649999999999
550,-22.1561,-4.760815,2.4414439999999997,0.020752,-0.036378,0.994766
552,-20.447089000000002,-4.943923000000001,1.464866,0.029297000000000004,-0.05651900000000001,0.993301
554,-20.202945,-4.8218510000000006,1.40383,0.040527999999999995,-0.07361000000000001,1.0268709999999999
556,-15.991454999999998,-3.6011290000000002,1.525902,0.028321,-0.07800399999999999,0.9876860000000001
558,-19.836728,-3.051804,2.2583349999999998,0.011597,-0.077516,0.9705959999999999
560,-21.362631,-4.5166699999999995,2.868696,0.008789,-0.044068,0.9388569999999999
562,-29.724575,-3.1128400000000003,3.723201,0.03125,-0.083864,1.01088
564,-36.1944,-0.854505,3.540093,0.036011,-0.090089,0.988174
566,-38.452735,3.173877,4.028382,0.005982,-0.124392,1.029557
568,-48.462654,6.2867169999999994,9.704738,0.026733999999999997,-0.114015,1.022477
570,-50.720989,10.315099,13.000687,0.024781,-0.21118499999999998,1.059709
572,-30.518044,9.338521,6.836042,-0.006958,-0.10254100000000001,0.946426
574,-30.151827,4.8218510000000006,-5.554284,-0.150515,-0.18457300000000001,1.02443
576,-31.250477000000004,-4.21149,-22.034028,0.033204000000000004,-0.24329,1.08986
578,-6.652933999999999,-3.723201,-7.568475,0.138552,-0.207767,1.140764
580,-17.578393,2.746624,-15.197985999999998,-0.007324,0.100465,1.007706
582,-107.54558600000001,15.259022,-8.667124000000001,0.117067,0.232303,0.9559469999999999
584,-149.416342,-5.737392,-8.361944,-0.25037,0.259281,0.787976
586,-497.26100599999995,-21.667811,-8.850233,-0.134035,0.276371,1.2207219999999999
588,-766.30808,-93.690394,37.90341,0.099977,-0.033448,1.558373
590,-1073.136492,-108.705272,159.731441,-1.090471,-0.6920270000000001,1.9999689999999999
592,258.487831,8.484016,-45.471885,-0.495979,0.533455,1.9999689999999999
594,34.424353,-32.898451,14.404517000000002,-0.462287,0.797009,1.195087
596,-7.324331,-55.90905600000001,37.29305,0.011840999999999999,0.160647,1.019303
598,67.994202,-10.681315,4.577707,0.142702,0.57435,0.574105
600,97.535668,-18.24979,-6.958114,-0.030639999999999997,0.426642,1.0944989999999999
602,141.054398,-53.77279300000001,-12.146181,0.009033,0.493904,1.191913
604,200.13733100000002,-33.813992999999996,-32.837415,0.023194,0.397345,1.0509190000000002
606,216.433967,-1.40383,-47.058824,-0.10547000000000001,0.188968,0.953506
608,239.078355,12.085144999999999,-46.997787,-0.165042,0.10425,1.129412
610,270.20676000000003,18.066682,-41.016251000000004,-0.093141,0.041016000000000004,1.436423
612,302.06759700000003,23.620966,-40.955215,0.065187,-0.031861,1.440818
614,308.171206,33.38674,-51.087205,0.174197,-0.34680700000000003,0.886244
616,259.891661,72.266728,-60.975052000000005,0.201053,-0.403082,0.9437399999999999
618,224.734875,81.72732099999999,-65.67483,0.185183,-0.261845,1.671656
620,224.612802,82.03250200000001,-58.838788,0.088624,-0.38416100000000003,1.9999689999999999
622,255.313954,87.586786,-43.640803000000005,0.016114,-0.634775,1.9999689999999999
624,271.366445,74.09781,-21.362631,0.045533,-0.785168,1.9999689999999999
626,296.818494,81.78835699999999,-14.404517000000002,0.35547399999999996,-0.883192,1.8336459999999999
628,265.384909,89.295796,-13.916228,0.298589,-1.1259940000000002,1.6743419999999998
630,236.758984,65.796902,-1.09865,0.190066,-1.539208,1.617334
632,194.644083,61.46334,10.254063,0.474372,-2.0000310000000003,0.929091
634,84.596017,84.290837,-10.498207,1.065446,-2.0000310000000003,0.080201
636,33.38674,94.728008,-31.433584999999997,-0.125978,-2.0000310000000003,-0.800305
638,-310.49057799999997,-176.82154599999998,56.580453000000006,0.453376,-2.0000310000000003,-0.560555
640,-113.71023100000001,-57.49599499999999,18.738079,-0.45398599999999995,1.0394450000000002,1.9999689999999999
642,-310.856794,-105.77553999999999,63.050278000000006,-0.138918,-0.340215,-0.0051270000000000005
644,-291.26421,-53.528649,74.219883,1.1028,-0.21423699999999998,1.9999689999999999
646,-130.43411899999998,19.592584,1.70901,0.9428850000000001,-0.002686,1.4886700000000002
648,-177.676051,-14.465553,13.000687,-1.5360340000000001,-0.64271,1.9999689999999999
650,-33.38674,-110.536355,21.911955,1.299092,0.192752,1.9999689999999999
652,-38.574807,-14.0383,-5.981537,-0.739269,0.071656,1.037369
654,-22.1561,-48.401617,3.356985,0.61854,0.134157,1.2325629999999999
656,-48.706798,-21.484703,3.356985,-0.12549000000000002,-0.143923,1.14345
658,-25.452049,-14.709697,-0.671397,0.11816600000000001,0.020263999999999997,1.092912
660,-9.948882000000001,-5.249104,2.4414439999999997,0.129641,0.039673,1.025528
662,-16.235599,0.732433,4.760815,0.024659,-0.007568000000000001,1.037858
664,-15.808347,1.464866,4.943923000000001,0.023438,0.021606999999999998,1.025895
666,-15.442129999999999,-0.976577,2.50248,-0.014038,0.047363999999999996,1.0037989999999999
668,-17.883574,-4.028382,2.014191,0.009276999999999999,0.0043950000000000005,1.000137
670,-16.84596,-4.638743,1.70901,0.032837,-0.001221,0.9939120000000001
672,-17.639429,-5.432212,1.8921189999999999,0.025269,-0.026612,1.008682
674,-13.366903,-4.8218510000000006,0.854505,0.027955,-0.038941,1.0323639999999998
676,-9.643702000000001,-4.577707,0.0,0.022827,-0.034546,1.006241
678,-7.934691,-4.577707,0.732433,0.030396,-0.044923000000000005,0.976211
680,-11.474784,-6.2867169999999994,0.854505,0.028687,-0.021729,0.995132
682,-11.657893,-7.263294,-0.183108,0.026978,-0.034546,0.9904940000000001
684,-12.451362,-6.897078,-0.366217,0.032349,-0.042359,0.9870760000000001
686,-16.052491,-7.324331,-0.366217,0.035401,-0.061769000000000004,1.018082
688,-13.427939000000002,-6.836042,0.366217,0.054688,-0.048829000000000004,0.9863430000000001
690,-16.113526999999998,-6.530861,1.2207219999999999,0.036866,-0.036011,0.950332
692,-22.705425,-7.812619000000001,0.854505,0.036866,-0.030274000000000002,0.9514309999999999
694,-28.931106,-6.408789,0.671397,0.094362,-0.056397,1.033219
696,-30.579079999999998,-1.8310830000000002,0.366217,0.035767,-0.061890999999999995,0.9677879999999999
698,-33.508812,1.953155,1.464866,-0.062989,-0.153567,0.9198139999999999
700,-44.190127000000004,3.723201,5.127031,0.012573,-0.07727200000000001,1.026627
702,-52.185855,1.464866,1.037613,0.035644999999999996,-0.068116,1.0011139999999998
704,-43.335622,2.014191,-8.667124000000001,-0.021363,-0.13489,1.041642
706,-58.777752,1.525902,-20.263981,-0.016114,-0.25806100000000004,0.941787
708,-29.602502,-2.990768,-21.972992,0.224735,-0.281132,0.9863430000000001
710,-17.94461,0.366217,3.784237,0.13843,-0.077394,1.124651
712,-67.383841,24.96376,-10.070953999999999,0.11316099999999998,0.15149200000000002,0.959609
714,-181.643397,22.095064,-30.151827,-0.15979200000000002,0.577279,0.511116
716,-310.30746899999997,-45.105669,-4.272526,-0.097169,0.798596,1.322652
718,-701.731899,-162.72221000000002,13.672084,0.133547,0.274418,1.311421
720,-896.559091,-130.7393,56.519417000000004,1.133928,-2.0000310000000003,1.9999689999999999
722,3.6621650000000003,36.377508,-52.67414399999999,-0.335332,-1.14406,1.9999689999999999
724,190.310521,65.552758,-28.259709,-0.531258,0.546639,0.918715
726,-60.24261800000001,-107.911803,78.919661,-0.096925,0.292119,0.45215500000000003
728,104.005493,-26.001373,29.48043,0.194583,0.599619,0.6163420000000001
730,62.439918000000006,30.334936,-1.7700470000000001,0.078614,0.43018199999999995,0.886122
732,123.292897,12.085144999999999,-17.029068,-0.084718,0.44068100000000004,0.925063
734,163.637751,-2.929732,-16.296635000000002,-0.137697,0.287114,1.242817
736,206.118868,15.869383,-15.503166,-0.155886,0.15979200000000002,1.302022
738,248.23376800000003,37.170977,-10.742351,-0.141482,-0.00647,1.0946209999999998
740,261.356527,41.077287,-2.80766,-0.018311,-0.072999,1.101823
742,275.150683,35.09575,-3.723201,0.18457300000000001,-0.08276499999999999,1.471092
744,296.20813300000003,41.870756,-23.193713,0.369757,-0.283085,1.117082
746,261.53963500000003,69.03181500000001,-48.889905999999996,0.356817,-0.45264399999999994,0.724254
748,204.715038,63.904784,-55.970092,0.22888499999999998,-0.34168000000000004,1.657862
750,224.91798300000002,58.472572,-56.580453000000006,0.12976300000000002,-0.439216,1.9999689999999999
752,253.66598,69.459068,-49.195087,-0.038087,-0.591928,1.9999689999999999
754,270.328832,58.594643999999995,-31.189441,-0.015869,-0.7076520000000001,1.9999689999999999
756,282.169833,66.590372,-24.597542999999998,0.215579,-0.73341,1.649805
758,254.45944900000003,66.71244399999999,-26.977951,0.267704,-0.717784,1.678737
760,238.895247,65.308614,-28.992141999999998,0.142947,-1.015396,1.596826
762,201.907378,70.862898,-19.65362,0.034791,-1.6750740000000002,1.0095370000000001
764,118.95933500000001,89.051652,-2.624552,0.5971770000000001,-2.0000310000000003,0.7384149999999999
766,77.08857900000001,113.405051,-14.526589000000001,0.791028,-2.0000310000000003,-0.043213999999999995
768,-30.762188000000002,-30.518044,26.855878999999998,0.612192,-1.8268099999999998,-0.372564
770,-110.96360700000001,-146.791791,13.977264000000002,0.8034789999999999,-1.743069,-0.357671
772,-133.85214,-79.530022,-5.981537,-0.504891,0.384405,1.9646299999999999
774,-209.170672,-62.195772999999996,23.376822,-0.854505,0.23254699999999998,-0.8285040000000001
776,-343.694209,-85.57259499999999,72.51087199999999,0.503792,-0.074952,1.9999689999999999
778,-178.591592,18.127717999999998,19.775692000000003,1.187396,-0.10473800000000001,1.9999689999999999
780,-159.060044,25.085832,7.6905470000000005,-1.292378,-0.4607,1.9999689999999999
782,-18.432898,-64.69825300000001,35.156786,0.057496000000000005,0.318608,1.297749
784,-32.043946000000005,-28.442816999999998,10.193027,0.08142200000000001,0.053956,1.506249
786,-25.696193,-64.271,14.892805,0.090089,0.21179499999999998,1.0985280000000002
788,-35.09575,-28.809033000000003,3.90631,-0.15967,0.024659,1.1787290000000001
790,-25.879301,-28.931106,1.2207219999999999,0.210819,0.055909,1.252461
792,-19.409476,-8.911269,2.075227,-0.011353,0.08191,1.043839
794,-18.982223,-0.732433,1.586938,0.005371,0.051881,1.032975
796,-20.935378,0.48828900000000003,2.746624,0.011231,0.030151999999999998,1.024308
798,-20.569162,0.732433,2.014191,0.013184,0.044312,1.0160069999999999
800,-22.766461,2.4414439999999997,2.80766,-0.012451,0.031373000000000005,1.0199129999999998
802,-18.738079,5.737392,3.234913,-0.009155,0.020874,1.016129
804,-17.822538,5.3101400000000005,3.418021,-0.028808999999999998,0.023926,0.972183
806,-20.202945,1.7700470000000001,2.685588,-0.061402,0.039063,1.025895
808,-16.784924,0.061036,2.4414439999999997,-0.020874,-0.01648,0.993668
810,-14.160372,2.014191,2.4414439999999997,-0.031617,-0.001221,0.991592
812,-14.526589000000001,2.197299,2.746624,-0.042115,0.001831,0.987808
814,-18.860151000000002,-1.953155,1.8921189999999999,-0.043213999999999995,-0.018067,1.007218
816,-9.643702000000001,-0.671397,0.732433,-0.028687,-0.040406,1.0934
818,-10.498207,-3.1128400000000003,1.037613,-0.031617,-0.025879000000000003,1.011978
820,-12.32929,-4.394598,1.037613,-0.020874,-0.025635,1.003433
822,-13.305867000000001,-3.295949,1.70901,-0.005493,-0.014038,1.023087
824,-12.024109,-2.136263,1.586938,-0.019653999999999998,-0.010742,0.9868309999999999
826,-16.235599,-2.014191,0.549325,0.092775,-0.046876,0.701427
828,-30.884259999999998,-8.361944,3.356985,-0.048951,-0.028199000000000002,0.925063
830,-42.1149,-9.155413000000001,4.333562000000001,0.000366,-0.052735000000000004,1.002457
832,-34.729534,-7.263294,0.976577,-0.0365,-0.05505499999999999,0.98439
834,-37.781338,-8.056764,2.80766,0.012695999999999999,-0.076661,1.03444
836,-29.846646999999997,-4.150454,4.455634,0.014771000000000001,-0.105592,1.017227
838,-20.630198,-3.356985,-0.30518,-0.046632,-0.069337,0.988174
840,-33.264668,-9.948882000000001,-1.647974,-0.058961,-0.055542999999999995,0.948257
842,-54.322118,-20.080873,-20.630198,-0.018799,-0.000366,0.9629049999999999
844,-58.472572,-9.399557000000001,-5.554284,0.031617,-0.16846,1.038102
846,-37.29305,-7.446403,-9.643702000000001,0.083619,-0.15552,0.945449
848,-68.909743,-4.333562000000001,-16.418708,-0.023804,0.022705,0.975723
850,-104.493782,-9.582666,-13.366903,0.073365,0.222538,0.79115
852,-206.54612,6.958114,-30.701152,0.302617,0.571054,0.8941790000000001
854,-540.840772,15.014878,3.234913,-0.091066,0.9674219999999999,1.9999689999999999
856,-770.702678,5.065995,70.008392,0.203738,-0.126711,0.976577
858,-990.432593,-12.146181,183.413443,-1.71133,-0.842542,1.9999689999999999
860,98.57328100000001,-31.494621000000002,-28.809033000000003,-0.770397,0.05139199999999999,1.9999689999999999
862,-154.238193,-49.683375,63.721675,-0.69276,0.711559,1.9999689999999999
864,34.973678,-69.642176,85.206378,-0.10461600000000001,0.505867,1.9999689999999999
866,103.639277,-78.431373,61.951629000000004,0.30933099999999997,0.733654,1.671168
868,207.034409,-37.29305,7.385367,0.359991,0.5080640000000001,1.2293889999999998
870,223.147936,-21.667811,-35.400931,0.207889,0.212772,0.561654
872,233.15785499999998,-34.973678,-54.20004599999999,-0.057496000000000005,0.056397,0.276127
874,224.18555,-59.815366000000004,-50.659953,-0.251591,-0.03125,0.686656
876,236.942092,-61.158159999999995,-42.786297,-0.33411199999999996,-0.029297000000000004,1.194476
878,265.99527,-31.433584999999997,-36.560615999999996,-0.380621,-0.107912,1.716579
880,309.330892,11.291675999999999,-27.405203000000004,-0.385748,-0.270146,1.706691
882,332.524605,34.729534,-12.756542,-0.256718,-0.443,1.3614709999999999
884,316.28900600000003,49.439231,-11.413748,0.078614,-0.5848479999999999,0.867933
886,249.637598,51.148241,-26.67277,0.278935,-0.53138,0.9544819999999999
888,203.73846,40.222782,-46.997787,0.249638,-0.340093,1.9999689999999999
890,255.863279,45.838102,-67.505913,0.151369,-0.549447,1.9999689999999999
892,289.494163,64.02685600000001,-76.90547,0.050294,-0.7035020000000001,1.9999689999999999
894,280.94911099999996,80.567636,-78.858625,0.092287,-0.804211,1.813993
896,255.497063,96.49805400000001,-74.708171,0.056152999999999995,-0.8576790000000001,1.7842069999999999
898,223.636225,118.898299,-67.627985,0.194339,-1.124651,1.66482
900,172.54901999999998,138.79606299999998,-44.190127000000004,0.274174,-2.0000310000000003,1.7907990000000003
902,140.87129,159.365225,-14.404517000000002,0.648081,-2.0000310000000003,0.701183
904,116.334783,127.443351,-13.427939000000002,0.346197,-2.0000310000000003,-2.0000310000000003
906,-187.563897,-136.72083600000002,47.852292999999996,0.246952,-2.0000310000000003,-1.629419
908,-194.33890300000002,-192.019532,41.687647999999996,0.42883999999999994,-0.064698,1.9999689999999999
910,-152.224002,-118.165866,35.950256,-0.5528649999999999,0.6361180000000001,0.519173
912,-332.76875,-115.053025,68.909743,0.814466,-0.43054899999999996,0.362799
914,-295.658808,-39.856565,25.329976000000002,1.894194,-0.31751,1.9999689999999999
916,-172.304875,12.573433999999999,-0.976577,-2.0000310000000003,-0.355596,1.9999689999999999
918,-23.559929999999998,-156.55756499999998,43.579767,1.138201,0.302129,1.9999689999999999
920,-36.865797,16.296635000000002,-4.638743,-0.28455,0.075563,0.8331430000000001
922,-38.574807,-65.06446899999999,9.948882000000001,0.605112,0.037598,1.218769
924,-42.664225,-19.897765,-1.09865,-0.332769,-0.190799,1.1428399999999999
926,-16.479744,-21.972992,-2.563516,0.09509400000000001,0.084596,0.988663
928,-7.507439,-16.906996,0.366217,0.12109600000000001,0.019898,1.065324
930,-20.325017000000003,-1.8310830000000002,3.784237,0.072633,0.017334,1.0714270000000001
932,-15.686275,5.3101400000000005,4.21149,0.038209,-0.008057,1.014664
934,-12.878614,1.70901,3.234913,0.005615,0.013916,0.972915
936,-16.357671,-5.371176,1.464866,-0.008667,-0.028321,1.0352940000000002
938,-10.009917999999999,-6.2867169999999994,0.671397,0.042359,-0.041138,1.028702
940,-5.0049589999999995,-4.150454,0.976577,0.033204000000000004,-0.056397,1.0520180000000001
942,-2.685588,-2.197299,2.014191,0.058106,0.010376,1.009415
944,-3.418021,-0.30518,2.014191,0.036133,-0.047363999999999996,0.9602200000000001
946,-8.42298,-2.624552,1.586938,0.011353,0.016602000000000002,0.988663
948,-11.657893,-4.8218510000000006,0.30518,0.010742,-0.020508000000000002,0.977798
950,-10.864424,-6.225681,0.244144,0.037110000000000004,-0.078614,0.976089
952,-13.244831,-7.263294,-0.122072,0.044923000000000005,-0.047363999999999996,1.0306549999999999
954,-9.82681,-6.469825,0.549325,0.03418,-0.00415,0.9630270000000001
956,-16.418708,-7.01915,0.30518,0.044677999999999995,-0.027832,1.001602
958,-18.799115,-4.760815,1.159686,0.050904000000000005,-0.037598,0.992691
960,-19.470512,-3.479057,1.8921189999999999,0.046998000000000005,-0.039429,0.985489
962,-29.053178000000003,-4.028382,1.70901,0.029053,-0.04004,0.956802
964,-30.701152,-6.164645,1.70901,0.097169,0.025879000000000003,1.128557
966,-35.88922,-2.075227,0.0,0.050782,-0.072511,1.014786
968,-34.180209000000005,-1.159686,-1.037613,0.060182000000000006,-0.079957,0.978042
970,-47.058824,4.272526,4.577707,0.094972,-0.10461600000000001,1.06508
972,-42.664225,8.1178,6.042573,0.029786,-0.08984500000000001,1.0363930000000001
974,-46.143282,4.5166699999999995,0.671397,-0.029053,-0.105226,1.0196690000000002
976,-26.184482,1.281758,-13.427939000000002,-0.039185000000000005,-0.247074,1.009781
978,-41.077287,-2.929732,-26.062409,0.132448,-0.306645,1.038468
980,-8.178836,1.037613,-7.873655,0.119875,-0.314946,1.135393
982,-48.035401,21.606775,-16.357671,0.199466,0.24622,0.974258
984,-158.876936,42.481117,-23.498894,-0.015869,0.6086520000000001,0.581796
986,-276.737621,-10.803388,5.127031,0.018555000000000002,1.250629,0.846326
988,-705.4551,-84.962234,32.715343,-0.42639799999999994,0.103029,1.7573509999999999
990,-912.489509,-132.509346,84.71809,0.385626,-0.29138600000000003,0.867079
992,-410.467689,-36.987869,76.84443399999999,-1.337423,-1.7242689999999998,1.9999689999999999
994,265.568017,49.866484,-29.724575,-0.502937,1.357931,1.679225
996,-62.867169999999994,-65.125505,59.815366000000004,-0.41065100000000004,0.467292,0.680186
998,106.385901,-37.048905,36.865797,0.014038,0.439338,0.516732
1000,62.012665000000005,-15.747310999999998,13.000687,0.22937399999999997,0.503426,0.9359270000000001
1002,157.22896200000002,-24.414435,-24.597542999999998,0.243168,0.6206149999999999,1.138323
1004,195.0103,-38.147555,-50.965133,0.13135,0.388067,1.2464790000000001
1006,244.87678300000002,-4.394598,-74.09781,-0.048707,0.180789,1.076188
1008,266.971847,8.300908,-72.449836,-0.220218,-0.055542999999999995,0.978042
1010,281.254292,7.812619000000001,-59.63225799999999,-0.19983199999999998,-0.109499,1.081559
1012,290.348669,29.541465999999996,-55.115587,-0.096193,-0.160159,1.1783629999999998
1014,278.568704,59.75433,-55.420768,0.023072,-0.423957,0.9121229999999999
1016,246.768902,71.778439,-54.810407,0.166995,-0.335454,1.33315
1018,242.191196,87.52575,-65.186542,0.268559,-0.38196399999999997,1.9999689999999999
1020,266.971847,123.72015,-60.975052000000005,0.061036,-0.6524760000000001,1.9527889999999999
1022,246.09750499999998,93.629358,-30.884259999999998,-0.0365,-0.760143,1.9999689999999999
1024,278.080415,77.63790300000001,-12.207218,0.204959,-0.794812,1.9999689999999999
1026,299.748226,81.605249,-15.625238000000001,0.487678,-0.817395,1.792874
1028,272.09887799999996,70.435645,-31.189441,0.506355,-0.8653700000000001,1.697902
1030,252.38422200000002,57.801175,-42.969406,0.23328000000000002,-1.153704,1.543236
1032,208.072023,69.642176,-38.757915999999994,0.022705,-1.8305939999999998,0.949966
1034,107.057298,104.37171,-23.010604999999998,0.489387,-2.0000310000000003,0.582284
1036,45.654994,146.547646,-18.738079,0.353765,-2.0000310000000003,0.022705
1038,-84.840162,-31.921874,39.246204,-0.027222000000000003,-2.0000310000000003,-1.912016
1040,-246.09750499999998,-192.75196499999998,63.172351,0.8994280000000001,-0.977066,1.231098
1042,-132.326238,-84.534981,39.917601,-0.301152,1.070329,1.9558400000000002
1044,-280.582895,-93.018997,55.054551000000004,0.6102390000000001,-0.338994,-0.015869
1046,-279.606317,-41.504540000000006,34.729534,1.101213,-0.25195700000000004,1.9999689999999999
1048,-132.753491,41.626612,-5.981537,-0.338018,-0.064698,1.45156
1050,-140.260929,-57.49599499999999,41.992828,-0.77052,-0.735607,1.8388950000000002
1052,-66.468299,-91.187915,24.719615,1.306538,0.164675,1.9999689999999999
1054,-46.448463000000004,-30.029754999999998,9.948882000000001,-0.5302819999999999,-0.0037840000000000005,1.070329
1056,-32.959487,-27.222095,-2.624552,0.275395,0.049561,1.2374459999999998
1058,-25.391012,-23.804074,-2.746624,0.12365899999999999,0.03418,1.167498
1060,-18.982223,-8.728161,-0.6103609999999999,-0.010254000000000001,0.027710000000000002,1.060563
1062,-15.808347,-2.2583349999999998,0.976577,0.044677999999999995,0.026856,1.050309
1064,-16.113526999999998,0.976577,2.990768,0.020630000000000003,0.013916,1.068132
1066,-12.146181,0.244144,2.990768,-0.003296,0.016236,0.973404
1068,-13.000687,-4.638743,2.50248,-0.011719,0.113283,0.9583889999999999
1070,-15.747310999999998,-3.6011290000000002,2.014191,0.006104,0.000488,1.034928
1072,-15.320058,-2.685588,2.319371,0.008423,-0.003906,1.029801
1074,-12.451362,-1.647974,2.563516,0.009888,-0.011109,1.011368
1076,-10.864424,-3.1128400000000003,1.7700470000000001,0.016846,-0.021118,1.021866
1078,-6.775005999999999,-5.859464,1.342794,-0.035401,-0.004639,0.9743799999999999
1080,-7.6905470000000005,-7.9957270000000005,0.671397,-0.003906,0.002686,1.01088
1082,-6.836042,-8.178836,0.48828900000000003,0.011475,-0.053101,0.9589989999999999
1084,-6.225681,-10.193027,-1.037613,-0.011840999999999999,-0.011719,1.04921
1086,-3.479057,-6.103609,0.366217,0.035035000000000004,-0.05285700000000001,1.002701
1088,-1.159686,-5.188067,0.549325,0.010498,0.014771000000000001,1.0411540000000001
1090,-3.967346,-5.9205,0.549325,0.015259,-0.015259,1.000626
1092,-9.82681,-7.2022580000000005,0.854505,0.024537,0.006714,0.937636
1094,-24.902724,-9.460594,1.40383,0.034913,0.004761,0.9521629999999999
1096,-32.166018,-7.446403,1.70901,0.051637,-0.042602999999999995,1.038956
1098,-31.616692999999998,-4.943923000000001,2.380407,0.021851,-0.031495,1.001236
1100,-33.142596000000005,-5.371176,2.014191,0.026978,-0.037476,0.97731
1102,-32.227053999999995,-4.943923000000001,5.0049589999999995,0.060426,-0.007324,0.9314110000000001
1104,-52.002747,2.50248,7.6905470000000005,-0.024048,-0.079835,1.03798
1106,-40.161746,4.272526,-0.48828900000000003,0.018189,-0.055542999999999995,0.969253
1108,-35.767146999999994,1.525902,-7.507439,-0.005615,-0.172488,0.8973530000000001
1110,-72.327764,-8.728161,-31.189441,0.050782,-0.18323,1.072282
1112,-53.223468000000004,-1.647974,-9.460594,0.11572400000000001,-0.19555999999999998,1.048234
1114,-81.300069,9.765774,-18.24979,0.146975,0.159426,0.994766
1116,-166.750591,28.259709,-26.123445,-0.076661,0.600351,0.454841
1118,-296.330205,-33.203632,-3.479057,0.062623,1.1305100000000001,1.018692
1120,-673.533227,-174.319066,26.489662,-0.408698,0.103029,1.716579
1122,-905.8365759999999,-230.228122,78.00412,0.41297,-0.44812700000000005,1.4374
1124,-339.848936,-115.419242,109.559777,-1.113909,-0.9517969999999999,1.9999689999999999
1126,301.335164,62.623026,-28.931106,0.11767799999999999,1.267475,1.562402
1128,-29.419394,-24.170291,44.800488,-0.36230999999999997,0.36817,0.21423699999999998
1130,100.64850799999999,-5.61532,33.569848,-0.046508999999999995,0.360723,0.302861
1132,50.904097,-0.732433,18.371862,0.164797,0.46008999999999994,0.849134
1134,133.85214,7.812619000000001,-12.146181,0.16101300000000002,0.5716640000000001,1.159808
1136,178.34744799999999,9.704738,-33.020523,0.11902,0.43811700000000003,1.342306
1138,234.073396,26.550697999999997,-47.180896000000004,0.0015869999999999999,0.29639099999999996,1.18471
1140,269.718471,38.208591,-50.965133,-0.026246,0.046876,1.120378
1142,293.461509,47.547112,-50.049592,0.04065,-0.070069,1.0564129999999998
1144,299.992371,46.509499,-50.476844,0.0542,-0.160891,0.892958
1146,269.77950699999997,60.059509999999996,-52.796216,0.122927,-0.406256,0.9195700000000001
1148,237.918669,93.934539,-62.134737,0.415167,-0.274418,1.2850540000000001
1150,221.194781,105.592432,-71.16807800000001,0.138796,-0.39392699999999997,1.9999689999999999
1152,244.388495,100.282292,-56.458381,-0.058227999999999995,-0.6687109999999999,1.9999689999999999
1154,237.55245299999999,100.099184,-26.367590000000003,-0.044433999999999994,-0.8243530000000001,1.9999689999999999
1156,287.05272,88.197147,-2.746624,-0.054565999999999996,-0.9557030000000001,1.9999689999999999
1158,293.583581,75.013352,25.696193,0.098146,-0.9901270000000001,1.8640419999999998
1160,279.48424500000004,54.077974,37.048905,0.215824,-1.03566,1.8441439999999998
1162,260.135805,49.561303,35.584039000000004,0.11535799999999999,-1.5897459999999999,1.522362
1164,189.70016,66.590372,45.593957,0.6141449999999999,-2.0000310000000003,0.725597
1166,103.517205,124.20843799999999,-8.361944,1.372702,-2.0000310000000003,-0.662608
1168,-27.527276,27.832456,-3.1128400000000003,0.472297,-2.0000310000000003,-0.542977
1170,-199.893187,-147.646296,22.705425,0.8370489999999999,-1.4812239999999999,-0.248783
1172,-132.692454,-74.891279,-4.577707,-0.792126,0.556405,1.9999689999999999
1174,-265.568017,-89.295796,45.105669,-0.949966,0.065187,0.093507
1176,-298.466468,-98.08499300000001,84.840162,1.163348,-0.330327,1.9999689999999999
1178,-126.83299,2.136263,-1.525902,1.55227,-0.276005,1.931548
1180,-155.947204,5.981537,8.056764,-1.679591,-0.306767,1.9999689999999999
1182,-32.471199,-97.718776,17.639429,1.228046,0.15600799999999998,1.9999689999999999
1184,-45.960174,0.732433,1.464866,-0.702403,-0.034424,1.125261
1186,-16.540779999999998,-37.964446,-5.065995,0.563607,0.11926500000000001,1.215839
1188,-37.720302000000004,-10.498207,1.342794,-0.084596,-0.076783,1.298726
1190,-15.747310999999998,-0.427253,-1.40383,0.055299,0.019653999999999998,1.1223319999999999
1192,-4.882887,1.281758,-0.30518,0.083619,0.11120799999999999,0.9865870000000001
1194,-13.733120000000001,8.1178,3.90631,-0.004028,0.038452999999999994,1.0078280000000002
1196,-17.94461,8.42298,5.249104,0.0008550000000000001,0.040284,0.9663229999999999
1198,-20.263981,-0.061036,4.8218510000000006,-0.011840999999999999,0.033936,0.989273
1200,-18.616007,-4.5166699999999995,3.6011290000000002,-0.035279000000000005,0.091676,1.040909
1202,-17.334249,-4.089418,2.746624,-0.009888,-0.007324,1.032242
1204,-12.695506,-4.943923000000001,2.075227,-0.0021969999999999997,0.004883,0.985245
1206,-15.13695,-6.103609,1.8310830000000002,0.016236,0.023316,1.002701
1208,-16.601816,-7.385367,0.793469,-0.070924,0.055177,1.113787
1210,-15.259022,-8.667124000000001,0.854505,0.0021969999999999997,0.009276999999999999,0.993057
1212,-17.395285,-9.460594,0.366217,0.008423,-0.013184,0.997208
1214,-20.080873,-9.582666,1.159686,0.016968,-0.006714,1.009903
1216,-20.141909,-8.850233,0.061036,0.033814,-0.041138,0.9793850000000001
1218,-22.949569,-7.568475,2.014191,0.021241,-0.018555000000000002,1.0160069999999999
1220,-24.780652,-6.408789,2.136263,0.029297000000000004,-0.040772,0.9862209999999999
1222,-31.311513,-5.127031,2.563516,0.031127999999999996,-0.047974,1.017472
1224,-27.527276,-2.929732,1.647974,0.037232,-0.058473000000000004,1.003922
1226,-27.466239,-1.70901,1.8310830000000002,0.035644999999999996,-0.06884900000000001,1.016617
1228,-29.724575,-2.319371,1.09865,0.026856,-0.057862000000000004,0.9796290000000001
1230,-36.560615999999996,-3.6621650000000003,4.089418,0.049073,-0.10351700000000001,1.127581
1232,-34.180209000000005,2.80766,6.2867169999999994,0.051148,-0.107668,1.0040440000000002
1234,-41.077287,5.3101400000000005,8.484016,0.014649,-0.100954,1.002213
1236,-32.227053999999995,4.943923000000001,2.685588,0.047486,-0.122072,0.9481350000000001
1238,-36.255435999999996,4.5166699999999995,-7.01915,-0.038941,-0.160281,0.909926
1240,-63.660639,-5.981537,-26.062409,0.08423,-0.307622,1.115251
1242,-13.305867000000001,-0.244144,-6.71397,0.045655,-0.186404,1.068376
1244,-40.283818,1.8310830000000002,-11.291675999999999,0.003662,0.147951,0.9073620000000001
1246,-121.82803100000001,16.601816,-31.006332,0.056152999999999995,0.44849300000000003,0.647471
1248,-257.755398,-15.075914000000001,-23.926146,-0.132448,1.0825360000000002,0.655528
1250,-720.347906,-78.3093,-14.709697,-0.946792,-0.036133,1.9999689999999999
1252,-958.571756,-169.680324,102.540627,0.313725,-1.143694,1.768948
1254,-214.724956,-65.735866,48.157472999999996,-0.622202,-2.0000310000000003,1.9999689999999999
1256,262.882429,86.182956,-7.568475,0.144778,0.873793,0.870741
1258,-115.35820600000001,-32.593271,89.17372399999999,0.06347799999999999,0.47974399999999995,0.14685299999999998
1260,51.270314,6.469825,35.645075,0.21924200000000002,0.506111,0.5684899999999999
1262,16.235599,4.699779,14.648660999999999,0.18909,0.556649,1.008194
1264,110.536355,-28.931106,-5.127031,0.159915,0.6416109999999999,1.0981610000000002
1266,156.00824,-49.988556,-25.207904,0.20141900000000001,0.503548,1.232197
1268,205.203326,-25.207904,-49.622339000000004,0.061524,0.324834,1.145281
1270,241.45876299999998,-8.056764,-56.580453000000006,-0.11731099999999998,0.119997,1.0550700000000002
1272,266.422522,-9.765774,-49.622339000000004,-0.142336,0.008545,1.097063
1274,288.700694,-4.8218510000000006,-46.814679,-0.048219,-0.036378,1.270527
1276,300.724804,17.761501000000003,-53.833829,-0.005493,-0.227787,1.060319
1278,278.69077599999997,38.635843,-58.960861,0.085451,-0.454475,0.892958
1280,247.318227,39.00206,-67.444877,0.251713,-0.31299299999999997,1.4807350000000001
1282,244.632639,64.942397,-81.055924,0.11218399999999999,-0.404059,1.9999689999999999
1284,245.914397,91.859312,-71.107042,-0.204227,-0.662486,1.9999689999999999
1286,261.112383,81.72732099999999,-38.330663,-0.225345,-0.865614,1.9999689999999999
1288,290.409705,78.187228,-12.756542,-0.052247,-0.9858549999999999,1.9999689999999999
1290,289.372091,77.210651,-0.366217,0.220829,-1.003555,1.7879909999999999
1292,262.455177,73.975738,-8.484016,0.386847,-1.0741129999999999,1.657618
1294,219.424735,74.769207,-16.723888,0.383429,-1.5755860000000002,1.329976
1296,142.397192,72.571908,-24.841688,1.036637,-2.0000310000000003,1.148333
1298,108.40009199999999,147.219043,-69.58114,0.968399,-2.0000310000000003,-0.43714
1300,-30.273899,9.643702000000001,-22.1561,-0.290532,-2.0000310000000003,-2.0000310000000003
1302,-284.97749300000004,-237.55245299999999,35.523003,0.785046,-0.6578470000000001,1.9999689999999999
1304,-69.336996,-39.978637,12.207218,-1.0164950000000001,0.970352,1.0466469999999999
1306,-328.984512,-116.51789099999999,65.247578,-0.200931,-0.403571,0.34680700000000003
1308,-237.18623599999998,-46.875715,64.02685600000001,1.3233840000000001,-0.137942,1.9999689999999999
1310,-164.492256,28.686961,-2.990768,0.580941,0.21911999999999998,1.3232620000000002
1312,-155.153735,-55.84802,38.513771000000006,-1.0404209999999998,-0.83534,1.9999689999999999
1314,-19.592584,-59.571220999999994,0.427253,1.157733,0.137209,1.5241930000000001
1316,-52.491035,-30.457008000000002,11.535821,-0.472053,-0.098634,1.177874
1318,-23.254749,-17.639429,-0.793469,0.179324,0.105226,1.068009
1320,-8.42298,-16.784924,-3.784237,0.023194,0.06482,0.9779200000000001
1322,-24.353399,-8.545052,0.122072,-0.057984,-0.053101,1.090349
1324,-12.146181,-2.990768,0.549325,0.045777,0.017945,1.014176
1326,-10.070953999999999,-2.075227,1.2207219999999999,0.026856,-0.046508999999999995,0.901747
1328,-12.573433999999999,-1.586938,4.333562000000001,0.008545,0.05285700000000001,0.9952540000000001
1330,-16.601816,-1.953155,2.014191,-0.004883,0.031738999999999996,0.972671
1332,-17.517357,-4.150454,2.746624,0.012573,0.049561,0.995499
1334,-17.700464999999998,-2.929732,2.685588,0.008057,0.009888,1.016861
1336,-17.090104999999998,-3.90631,2.075227,0.008911,-0.014527000000000002,1.012589
1338,-13.855192,-4.21149,1.647974,0.019165,0.003662,0.993057
1340,-16.052491,-5.61532,1.342794,0.023194,-0.001465,1.001968
1342,-17.151141,-4.882887,2.136263,0.008545,0.003418,1.057389
1344,-17.700464999999998,-5.61532,2.014191,0.02417,0.043213999999999995,1.0477450000000001
1346,-17.273213000000002,-5.859464,1.159686,0.004639,-0.014282,0.973159
1348,-24.597542999999998,-8.178836,1.342794,0.024413999999999998,0.00293,1.015396
1350,-23.987182,-6.71397,0.549325,0.046265,-0.05005,0.9851219999999999
1352,-23.010604999999998,-4.943923000000001,0.976577,0.034668,-0.051514,1.013565
1354,-23.498894,-3.6011290000000002,1.342794,0.042725,-0.035279000000000005,0.9870760000000001
1356,-24.96376,-1.70901,2.197299,0.04712,-0.0636,1.02797
1358,-22.705425,-1.464866,1.8921189999999999,0.009522,-0.057374,0.9741360000000001
1360,-26.123445,-4.150454,0.30518,0.051148,-0.010498,1.078386
1362,-30.334936,-3.173877,-0.122072,0.084352,-0.030639999999999997,0.937514
1364,-40.283818,3.418021,8.484016,0.056397,-0.130495,1.010269
1366,-42.359045,7.507439,10.070953999999999,-0.006836,-0.06775,0.9782860000000001
1368,-30.029754999999998,8.178836,2.868696,-0.019409,-0.143557,0.9782860000000001
1370,-39.185168,-2.136263,-14.953841,-0.073365,-0.078981,1.011978
1372,-46.753643,-4.028382,-17.212177,0.14416700000000002,-0.332158,1.029313
1374,-19.043259,0.6103609999999999,-6.530861,0.050538,-0.136477,1.0628819999999999
1376,-60.120546,8.1178,-18.371862,0.150393,0.14563199999999998,0.972915
1378,-146.24246599999998,15.808347,-32.227053999999995,-0.22204899999999997,0.393317,0.760266
1380,-340.154116,-29.541465999999996,-28.503853000000003,0.001465,1.240253,1.8867479999999999
1382,-754.039826,-154.60441,52.796216,-0.498299,0.106447,1.270161
1384,-922.560464,-194.766155,107.118334,1.218891,-2.0000310000000003,1.9999689999999999
1386,17.822538,-60.425727,-45.532921,0.045411,-0.552255,1.9999689999999999
1388,192.99610900000002,33.997101,-68.055238,-0.181277,1.053849,1.151507
1390,-88.990616,-46.448463000000004,35.217822999999996,-0.364141,0.42847299999999994,0.687388
1392,100.16022,-3.418021,20.080873,-0.17566199999999998,0.46582700000000005,0.556527
1394,66.102083,-12.756542,26.001373,-0.042969,0.419074,0.8222780000000001
1396,139.22331599999998,-12.451362,15.014878,0.003296,0.512093,0.9698629999999999
1398,181.21614399999999,-12.512398,1.7700470000000001,0.105348,0.382818,1.1335620000000002
1400,219.119554,5.065995,-16.784924,0.08520599999999999,0.248783,1.174334
1402,257.755398,17.212177,-25.696193,-0.022461000000000002,0.029786,1.152361
1404,278.44663199999997,20.691233999999998,-24.780652,-0.058106,-0.106447,1.160662
1406,294.743267,14.648660999999999,-22.217136,0.05005,-0.158816,1.219623
1408,286.564431,27.771420000000003,-33.447776,0.20935399999999998,-0.429084,0.992935
1410,250.919356,51.209277,-42.359045,0.215702,-0.44202299999999994,1.2433049999999999
1412,234.74479300000002,45.044633000000005,-54.810407,0.19226400000000002,-0.35730500000000004,1.8128939999999998
1414,233.40199900000002,55.298694999999995,-57.434957999999995,0.011719,-0.583383,1.9999689999999999
1416,249.271382,62.928206,-52.124819,-0.076783,-0.742321,1.9999689999999999
1418,272.037842,67.017624,-42.542153000000006,-0.02295,-0.867201,1.9999689999999999
1420,277.775235,82.825971,-39.246204,0.201907,-0.863539,1.870512
1422,257.755398,85.69466700000001,-51.941711,0.5516439999999999,-0.8420540000000001,1.640528
1424,229.06843700000002,89.295796,-81.605249,0.658091,-0.996597,1.4140840000000001
1426,185.97695900000002,100.70954499999999,-107.362478,0.546395,-1.5675290000000002,0.9903719999999999
1428,106.813153,117.06721599999999,-105.16517900000001,0.374762,-2.0000310000000003,0.8607309999999999
1430,95.704585,103.578241,-68.17730999999999,-0.008545,-2.0000310000000003,-0.6633399999999999
1432,-45.410849,-53.162431999999995,20.508125,-0.162234,-1.637964,-0.083742
1434,-152.895399,-150.6981,69.58114,-0.135622,-1.510155,-0.441047
1436,-135.439078,-112.001221,79.65209399999999,0.10852200000000001,0.024413999999999998,1.9999689999999999
1438,-171.084154,-85.02327,82.276646,0.532845,0.5943689999999999,-0.19751300000000002
1440,-281.986725,-75.44060400000001,61.097124,1.323018,0.0015869999999999999,1.54873
1442,-208.621347,-9.399557000000001,11.718929,0.911269,-0.17016900000000001,1.9999689999999999
1444,-116.88410800000001,20.202945,7.629511,-1.581323,-0.075563,1.9999689999999999
1446,-47.241932,-120.24109299999999,35.400931,0.907118,0.49427,1.9999689999999999
1448,-32.410163,15.014878,-2.197299,-0.46570500000000004,0.042359,1.198993
1450,-35.706111,-60.547799,-3.6621650000000003,0.642466,0.136721,1.4840309999999999
1452,-18.24979,-9.52163,-1.8921189999999999,-0.182132,-0.012451,1.16054
1454,-8.545052,-10.742351,-2.4414439999999997,0.058961,0.108766,0.9583889999999999
1456,-13.916228,-4.8218510000000006,4.882887,0.058595,0.025269,1.055924
1458,-13.061722999999999,6.2867169999999994,6.897078,-0.006836,0.024659,1.0912030000000001
1460,-8.667124000000001,3.295949,5.493248,0.004639,0.081178,0.9941559999999999
1462,-10.131991000000001,-0.061036,4.943923000000001,0.041627,0.096193,0.9758450000000001
1464,-12.817578,-1.586938,3.90631,-0.039185000000000005,0.034668,0.948867
1466,-16.601816,-3.6011290000000002,3.418021,-0.021118,0.026123,0.9754790000000001
1468,-14.526589000000001,-5.554284,3.356985,-0.021485,0.056031,0.945449
1470,-22.522316,-10.315099,1.464866,-0.031861,0.028564999999999997,0.9309219999999999
1472,-30.090790999999996,-14.831769,0.0,0.027222000000000003,-0.004639,1.004532
1474,-21.05745,-11.352712,-0.549325,0.019165,-0.0037840000000000005,1.030411
1476,-22.705425,-11.23064,-0.732433,0.013184,0.006226,0.977676
1478,-30.395971999999997,-13.427939000000002,-2.929732,0.00061,-0.120729,1.012833
1480,-26.916915000000003,-9.216449,-0.48828900000000003,-0.037354000000000005,-0.007691,1.037247
1482,-24.841688,-8.911269,-0.854505,0.04004,-0.075685,1.0327309999999998
1484,-19.287404000000002,-5.554284,0.671397,0.051637,-0.095338,0.976211
1486,-16.662851999999997,-2.50248,1.342794,0.071168,-0.034546,1.058732
1488,-18.005646,-0.793469,0.549325,0.018799,-0.010254000000000001,0.959609
1490,-22.46128,-2.2583349999999998,-0.793469,0.038452999999999994,-0.047974,0.9979399999999999
1492,-23.315785,1.525902,-1.7700470000000001,0.148196,0.242069,1.062516
1494,-25.635157,-1.525902,-0.122072,0.050538,-0.06958099999999999,0.9594870000000001
1496,-42.420081,5.61532,8.056764,0.075074,-0.10180800000000001,1.045548
1498,-36.316472,10.193027,10.742351,0.020263999999999997,-0.064088,0.9851219999999999
1500,-37.537194,7.2022580000000005,3.90631,-0.018067,-0.052613,1.01442
1502,-33.142596000000005,5.981537,-9.094377,0.006958,-0.148928,0.930068
1504,-44.739452,-2.136263,-30.395971999999997,0.030639999999999997,-0.201663,1.060441
1506,-20.569162,2.624552,-14.0383,0.144778,-0.21606799999999998,1.142596
1508,-28.870069,13.366903,2.4414439999999997,0.105959,0.039429,1.0276040000000002
1510,-97.230488,29.541465999999996,-15.197985999999998,-0.034058,0.402106,0.8287479999999999
1512,-186.83146399999998,-9.948882000000001,-29.358358000000003,-0.333989,0.25390999999999997,0.963149
1514,-416.021973,-49.683375,-46.204318,-0.10925499999999999,0.611826,1.542626
1516,-779.674983,-227.603571,51.148241,-0.17773699999999998,0.126467,1.164324
1518,-1096.086061,-246.52475800000002,138.612955,0.501717,-1.7391619999999999,1.9999689999999999
1520,299.137865,13.427939000000002,-73.18226899999999,-0.29736799999999997,0.701915,1.9999689999999999
1522,147.707332,15.869383,-40.772107,-0.751232,1.195575,0.321294
1524,-66.529335,-83.863584,50.720989,-0.245975,0.151858,0.24072600000000002
1526,102.052338,-11.596857,16.418708,-0.09424,0.544198,0.776257
1528,86.671244,15.747310999999998,9.948882000000001,-0.214969,0.361212,0.9948879999999999
1530,151.735714,-14.343481,10.193027,-0.134157,0.448371,0.933486
1532,194.705119,-4.272526,-4.150454,0.089479,0.34827199999999997,1.214496
1534,225.650416,41.748684000000004,-25.757229000000002,0.031861,0.163455,1.101701
1536,256.900893,47.180896000000004,-27.038987,-0.064698,-0.032105,0.977798
1538,264.652476,38.574807,-18.982223,0.031373000000000005,-0.06884900000000001,1.20058
1540,274.906539,46.143282,-26.062409,0.24853899999999998,-0.226566,1.184466
1542,260.013733,73.487449,-43.51873,0.380255,-0.41651000000000005,0.895033
1544,223.514153,64.637217,-60.364691,0.333867,-0.329717,1.290669
1546,196.108949,74.891279,-66.346227,0.189334,-0.41248199999999996,1.9999689999999999
1548,244.14435,90.089265,-68.543526,0.132937,-0.664195,1.9999689999999999
1550,226.321813,89.84512099999999,-57.373922,0.09192,-0.7370720000000001,1.9999689999999999
1552,250.85832000000002,88.014038,-47.73022,0.22741999999999998,-0.728161,1.9999689999999999
1554,243.778134,89.112688,-45.960174,0.43616400000000005,-0.7050890000000001,1.644312
1556,233.524071,59.021896999999996,-52.246891,0.500008,-0.724498,1.542382
1558,212.16144,49.439231,-67.566949,0.30945300000000003,-0.9670559999999999,1.362814
1560,175.173571,61.707485,-67.689021,-0.043458,-1.45095,0.8996719999999999
1562,105.65346799999999,70.130465,-42.053864000000004,0.18457300000000001,-2.0000310000000003,0.7524529999999999
1564,57.373922,86.976425,-11.291675999999999,0.277104,-2.0000310000000003,0.370367
1566,0.549325,33.752956,45.838102,-0.031006,-1.924102,-0.132326
1568,-58.533607999999994,-45.777066,100.16022,-0.050782,-1.305928,0.8531620000000001
1570,-134.218357,-65.491722,95.704585,0.260258,0.906752,1.1063399999999999
1572,-88.868544,-79.22484200000001,62.195772999999996,0.204227,1.460227,0.46167700000000006
1574,-359.624628,-95.277333,72.14465600000001,0.98024,-0.5398029999999999,0.93434
1576,-244.693675,-22.339208,13.733120000000001,1.1230639999999998,0.034302,1.9999689999999999
1578,-149.904631,40.466926,1.159686,-1.3701379999999999,-0.136599,1.9999689999999999
1580,-54.261081999999995,-86.30502800000001,48.584726,0.111818,-0.276738,1.686061
1582,-40.283818,-22.705425,11.596857,0.515389,-0.099733,1.342306
1584,-31.494621000000002,-55.90905600000001,12.268253999999999,-0.014159999999999999,0.031861,1.021988
1586,-32.898451,-12.939651,1.586938,-0.039918,-0.018921,1.08571
1588,-20.080873,-25.024796,-1.40383,0.171511,0.112673,1.026505
1590,-18.616007,-11.352712,0.976577,-0.011719,0.039796,1.087541
1592,-19.65362,-1.281758,2.563516,0.013672,0.029786,1.068742
1594,-14.099336,-0.061036,3.6621650000000003,-0.030274000000000002,0.034546,0.991592
1596,-17.94461,-5.0049589999999995,3.356985,-0.054077999999999994,0.045167,0.9469139999999999
1598,-22.46128,-11.718929,1.464866,0.027344,0.018311,1.086442
1600,-18.677042999999998,-7.01915,2.136263,0.038087,-0.000244,1.0724040000000001
1602,-13.122759,-0.732433,2.50248,0.006958,0.006714,1.029923
1604,-11.108568,0.671397,2.4414439999999997,-0.014771000000000001,0.01709,1.017716
1606,-12.146181,-0.061036,2.380407,-0.016236,0.001953,0.9583889999999999
1608,-11.047532,-1.464866,1.647974,-0.018677000000000003,0.010131999999999999,0.964126
1610,-13.061722999999999,-5.61532,1.7700470000000001,-0.032593000000000004,0.0031739999999999997,0.968032
1612,-12.939651,-10.986496,0.30518,-0.012451,-0.029419,0.9817040000000001
1614,-6.2867169999999994,-11.291675999999999,-1.281758,-0.022461000000000002,-0.004273,0.980728
1616,-7.9957270000000005,-12.146181,-1.342794,0.0058590000000000005,-0.008423,1.012833
1618,-6.71397,-9.948882000000001,-0.732433,0.020874,-0.047974,1.022599
1620,-9.216449,-8.789197,-0.122072,0.022827,-0.056397,1.014542
1622,-8.850233,-5.9205,0.0,0.025147,-0.031617,0.9707180000000001
1624,-14.0383,-7.01915,0.122072,0.011597,0.019653999999999998,0.965225
1626,-25.940337,-8.484016,0.183108,0.018555000000000002,-0.008911,0.973404
1628,-27.344167,-7.263294,0.732433,0.024413999999999998,-0.042481,1.007584
1630,-26.245518,-6.71397,0.671397,0.004639,-0.025391,0.972549
1632,-32.349126,-7.751583,1.159686,0.034302,-0.045045,0.976089
1634,-31.433584999999997,-6.347753,4.150454,0.031006,-0.144533,0.978042
1636,-27.405203000000004,0.793469,4.272526,0.082521,0.00415,0.969375
1638,-43.945983,-0.854505,1.8310830000000002,0.007568000000000001,-0.037232,0.9705959999999999
1640,-53.284504000000005,-1.586938,-0.9155409999999999,0.027466,-0.046265,1.01857
1642,-48.096437,-0.30518,-9.460594,-0.038452999999999994,-0.11084200000000001,1.042008
1644,-49.866484,-1.40383,-21.545739,-0.013793999999999999,-0.329229,1.058976
1646,-35.523003,-0.48828900000000003,-10.925460000000001,0.149294,-0.237919,1.067887
1648,-42.786297,10.986496,-4.272526,0.104128,0.130373,0.979873
1650,-122.92668,26.733806,-15.197985999999998,-0.032349,0.393805,0.733776
1652,-183.718624,-18.493935,-13.366903,-0.30225100000000005,0.358526,0.887465
1654,-505.62295,-55.115587,-15.686275,-0.549569,0.084596,1.131975
1656,-728.099489,-198.977646,65.735866,0.131716,-0.100465,1.391867
1658,-956.801709,-219.91302400000004,129.33547,0.604746,-2.0000310000000003,1.9999689999999999
1660,235.355154,-27.954528000000003,-43.396658,-0.113649,0.541756,1.9999689999999999
1662,225.89456,45.716029999999996,-34.119172999999996,-0.367315,0.91017,0.539071
1664,-8.545052,-35.217822999999996,33.081559000000006,-0.181277,0.15246800000000002,0.043946
1666,112.48950900000001,-0.122072,11.596857,-0.018311,0.404425,0.3075
1668,85.08430600000001,2.4414439999999997,3.234913,0.015503,0.31787600000000005,0.979507
1670,143.007553,-1.464866,-11.413748,-0.026856,0.40943,1.169451
1672,196.16998600000002,4.089418,-22.034028,-0.051637,0.252079,1.229999
1674,225.711452,28.381781,-28.442816999999998,-0.046754000000000004,0.10388299999999999,1.226093
1676,257.511254,49.683375,-27.771420000000003,-0.046754000000000004,-0.083253,1.330098
1678,276.676585,50.659953,-29.17525,0.236454,-0.27808,1.370871
1680,287.418936,66.468299,-46.387427,0.329839,-0.403326,1.2654
1682,267.52117200000004,64.759289,-60.975052000000005,0.29431599999999997,-0.573495,1.186908
1684,249.45449,54.505226,-60.608835,-0.030639999999999997,-0.648569,1.245258
1686,222.842756,54.322118,-43.091478,-0.157595,-0.532723,1.468528
1688,207.33959,68.787671,-23.743038000000002,-0.08203300000000001,-0.392096,1.9999689999999999
1690,231.32677200000003,78.065156,-14.0383,0.186038,-0.410285,1.9999689999999999
1692,260.807202,92.16449200000001,-20.080873,0.36914600000000003,-0.5396810000000001,1.797757
1694,245.975433,85.938811,-25.207904,0.264408,-0.615244,1.404318
1696,216.250858,58.472572,-24.475471,0.164553,-0.665782,1.447654
1698,196.963455,52.063783,-30.457008000000002,0.126223,-0.805554,1.47805
1700,169.802396,73.365377,-37.90341,0.11950899999999999,-1.198138,1.3211870000000001
1702,116.39581899999999,102.72373499999999,-37.781338,0.25610700000000003,-2.0000310000000003,1.331685
1704,117.982757,144.289311,-14.465553,0.052613,-2.0000310000000003,-0.099489
1706,-5.065995,24.170291,55.359731000000004,-0.142947,-1.7763939999999998,-0.832166
1708,-92.16449200000001,-101.86923,94.17868299999999,0.37598200000000004,-1.65005,-1.524926
1710,-223.331044,-109.37666899999999,55.420768,0.401617,-0.736584,0.786511
1712,-133.363851,-105.470359,37.964446,-0.204105,0.973526,1.1864190000000001
1714,-316.47211400000003,-83.61944,60.852979000000005,0.294072,-0.282475,0.398566
1716,-238.773175,-47.608148,40.10071,1.010025,-0.175051,1.9999689999999999
1718,-184.878309,-9.52163,3.479057,0.014159999999999999,-0.222171,1.826444
1720,-107.789731,-69.336996,41.80972,-0.526741,-0.468391,1.9999689999999999
1722,-25.085832,-30.029754999999998,3.356985,0.757336,0.018555000000000002,1.569848
1724,-46.753643,-35.950256,10.864424,-0.09131,0.117556,1.12636
1726,-51.270314,-7.080186,1.8921189999999999,0.014771000000000001,-0.051026,1.183856
1728,-27.405203000000004,-17.822538,-7.568475,0.205692,0.0177,1.013931
1730,-19.531548,-3.540093,2.014191,0.048219,0.037476,1.0521399999999999
1732,-32.593271,2.4414439999999997,6.225681,0.012085,0.03772,0.9660790000000001
1734,-33.38674,0.122072,6.836042,0.044556,0.03125,1.001968
1736,-39.124132,-3.784237,6.347753,-0.016358,-0.034302,1.039811
1738,-34.302281,-8.789197,2.685588,-0.040894,-0.00061,0.9361719999999999
1740,-41.321431,-17.212177,1.342794,-0.033326,-0.033814,0.993301
1742,-38.69688,-17.151141,1.09865,-0.000366,0.002441,1.112566
1744,-33.752956,-16.296635000000002,-3.173877,0.042602999999999995,-0.015503,1.0285799999999998
1746,-26.550697999999997,-13.305867000000001,-2.624552,0.052735000000000004,-0.107668,1.0553139999999999
1748,-23.315785,-9.704738,0.061036,0.030518,-0.06994700000000001,1.0196690000000002
1750,-27.649348,-7.263294,-0.549325,0.009522,-0.090455,1.011002
1752,-22.827497,-5.676356,-0.366217,0.048585,-0.129885,0.953262
1754,-19.226368,-5.127031,-1.647974,0.029053,-0.112795,1.0121
1756,-20.874342000000002,-4.699779,-0.793469,0.009276999999999999,-0.15173599999999998,1.094743
1758,-13.305867000000001,-3.540093,-0.549325,0.036866,-0.11084200000000001,0.992813
1760,-13.794156,-3.295949,-0.30518,0.031127999999999996,-0.140627,1.009415
1762,-14.587625,-3.173877,-0.427253,0.028931000000000002,-0.14111500000000002,0.991836
1764,-13.550010999999998,-2.929732,-1.2207219999999999,0.056886,-0.14135999999999999,1.026505
1766,-7.507439,-1.7700470000000001,-1.09865,0.058473000000000004,-0.166995,1.03505
1768,-1.525902,0.427253,0.793469,0.049805,-0.189578,1.051774
1770,7.01915,2.075227,2.197299,0.032837,-0.164553,1.013077
1772,7.2022580000000005,-2.380407,-1.953155,0.0,-0.053223,0.944717
1774,-2.4414439999999997,-3.295949,-4.943923000000001,0.04065,-0.099855,0.970352
1776,-7.01915,0.183108,-3.1128400000000003,0.063722,-0.182132,1.046036
1778,4.028382,4.028382,0.671397,0.060913999999999996,-0.188479,1.034928
1780,12.756542,6.225681,3.418021,0.043702,-0.152102,1.011734
1782,12.878614,6.042573,3.479057,0.03772,-0.161868,1.0080719999999999
1784,19.531548,4.028382,2.4414439999999997,0.027710000000000002,-0.099733,0.9749899999999999
1786,11.413748,1.70901,0.427253,0.041505,-0.084352,0.984024
1788,7.141222,2.685588,0.366217,0.044677999999999995,-0.112551,1.010513
1790,7.385367,4.882887,1.40383,0.041871,-0.11316099999999998,1.053605
1792,10.376135000000001,5.676356,1.8921189999999999,0.032227,-0.117556,0.993668
1794,11.718929,4.272526,0.854505,0.016968,-0.10656900000000001,0.994034
1796,12.390326,1.525902,-0.427253,0.014405000000000001,-0.08996699999999999,0.988052
1798,10.864424,0.427253,-1.037613,0.03772,-0.08923500000000001,1.008804
1800,11.169604,2.380407,-0.793469,0.04358,-0.10583699999999999,1.010269
1802,10.925460000000001,4.943923000000001,0.366217,0.040406,-0.100343,1.0202790000000002
1804,14.648660999999999,6.591897,1.342794,0.012206999999999999,-0.08447400000000001,0.9973299999999999
1806,12.268253999999999,4.455634,1.037613,-0.008911,-0.061036,0.956313
1808,6.530861,-0.244144,-0.732433,-0.003906,-0.045288999999999996,0.972305
1810,1.525902,-1.281758,-1.8921189999999999,0.021118,-0.051759000000000006,0.9871979999999999
1812,1.586938,1.647974,-0.671397,0.056275,-0.105959,1.038834
1814,7.629511,5.249104,2.136263,0.005493,-0.101564,0.9986719999999999
1816,7.446403,-0.732433,0.244144,-0.019165,-0.066651,0.940932
1818,1.09865,-5.432212,-1.647974,-0.014527000000000002,-0.001343,0.936049
1820,-2.624552,-6.469825,-2.990768,0.048829000000000004,-0.09253099999999999,1.042008
1822,-0.061036,-0.976577,-0.671397,0.050416,-0.107057,1.057633
1824,3.356985,2.136263,0.671397,0.0037840000000000005,-0.038452999999999994,0.9675440000000001
1826,2.685588,0.183108,-0.427253,0.011475,-0.07324299999999999,0.9904940000000001
1828,1.525902,0.48828900000000003,-0.549325,0.018921,-0.06884900000000001,1.007218
1830,0.427253,1.342794,-0.183108,0.027832,-0.094606,1.034806
1832,3.540093,-0.6103609999999999,-1.525902,0.032227,-0.044433999999999994,0.9864649999999999
1834,6.469825,1.8310830000000002,-1.037613,0.038331,-0.067628,1.016129
1836,0.30518,2.2583349999999998,-0.122072,0.016968,-0.048096,0.973648
1838,-9.887846000000001,-1.7700470000000001,-0.9155409999999999,0.020996,-0.00293,0.91371
1840,-11.535821,-0.6103609999999999,-0.854505,0.023804,-0.084108,1.032609
1842,-4.394598,-0.427253,-1.40383,0.007201999999999999,-0.070314,0.9948879999999999
1844,-3.1128400000000003,0.0,-0.976577,0.023072,-0.09777999999999999,1.029679
1846,-1.342794,1.70901,0.122072,0.014649,-0.080934,1.017716
1848,-5.065995,0.183108,-0.30518,0.017456,-0.088258,1.006729
1850,-2.136263,2.197299,0.427253,0.01001,-0.046754000000000004,0.98024
1852,-6.836042,1.464866,0.549325,-0.00061,-0.084596,1.013687
1854,-2.136263,0.732433,-0.6103609999999999,0.012329000000000001,-0.065675,1.00209
1856,0.122072,1.464866,-0.427253,0.012451,-0.088746,1.012222
1858,1.342794,0.793469,-0.183108,-0.014159999999999999,-0.08423,1.0078280000000002
1860,4.699779,-1.037613,-0.366217,0.012329000000000001,-0.099245,1.028946
1862,5.065995,-0.427253,0.061036,0.020386,-0.059937,0.9863430000000001
1864,-3.6011290000000002,-0.9155409999999999,0.0,-0.00415,-0.058595,0.988663
1866,-3.6011290000000002,-2.380407,-1.159686,0.024291999999999998,-0.098512,1.024674
1868,0.48828900000000003,-0.854505,-0.427253,0.004517,-0.06640700000000001,0.979751
1870,2.014191,-2.075227,-0.793469,0.002441,-0.065919,0.989151
1872,0.427253,-2.50248,-0.48828900000000003,0.019653999999999998,-0.05285700000000001,0.977066
1874,-6.775005999999999,-1.7700470000000001,0.0,0.021851,-0.074098,1.0057530000000001
1876,-6.042573,-0.9155409999999999,-0.183108,0.012451,-0.069337,1.0037989999999999
1878,-4.638743,-1.281758,-0.6103609999999999,0.020996,-0.079835,1.010025
1880,-1.342794,-0.793469,-0.244144,0.019532,-0.082521,1.009293
1882,0.244144,0.0,0.061036,0.017945,-0.076417,0.9948879999999999
1884,-2.319371,-0.48828900000000003,0.0,0.013793999999999999,-0.072511,0.9864649999999999
1886,-3.479057,-0.793469,-0.30518,0.018433,-0.086061,1.00795
1888,-0.30518,-0.30518,0.244144,0.024903,-0.081788,1.010513
1890,0.732433,0.244144,0.427253,0.021606999999999998,-0.084962,1.009049
1892,-0.061036,0.427253,0.0,0.018433,-0.083742,1.014298
1894,-1.037613,0.366217,-0.244144,0.011597,-0.08752599999999999,1.003555
1896,-1.342794,-0.244144,-0.30518,0.027587999999999998,-0.078614,1.001968
1898,-0.9155409999999999,-0.061036,-0.366217,0.014282,-0.073732,0.9969629999999999
1900,1.70901,-0.6103609999999999,-0.122072,0.015991,-0.089357,1.003311
1902,2.50248,-0.732433,0.671397,0.020386,-0.088258,1.01442
1904,1.7700470000000001,-0.549325,0.732433,0.014771000000000001,-0.08838,1.012589
1906,2.197299,-0.30518,0.183108,0.011353,-0.079713,1.003067
1908,2.624552,-0.732433,0.793469,0.01709,-0.068727,0.9865870000000001
1910,2.4414439999999997,-0.854505,0.732433,0.0271,-0.070802,0.99855
1912,1.953155,-0.671397,2.075227,0.019532,-0.065553,0.9959870000000001
1914,1.586938,-0.549325,2.319371,0.018555000000000002,-0.079957,0.998184
1916,3.1128400000000003,0.0,0.854505,0.028076999999999998,-0.069337,0.9991610000000001
1918,0.793469,0.671397,-0.549325,0.016114,-0.06994700000000001,1.005142
1920,-1.037613,-0.061036,-0.427253,0.013916,-0.076539,1.006851
1922,1.281758,-0.976577,0.30518,0.014282,-0.081178,1.0036770000000002
1924,0.244144,-0.854505,1.464866,0.024413999999999998,-0.065553,0.999771
1926,0.183108,-0.244144,0.732433,0.035767,-0.06775,1.00502
1928,-0.48828900000000003,0.6103609999999999,-0.48828900000000003,0.016724,-0.080812,1.007218
1930,1.09865,0.671397,-0.732433,0.006958,-0.077394,0.998917
1932,2.685588,-0.366217,-0.6103609999999999,0.020752,-0.067384,1.000381
1934,3.6621650000000003,-0.732433,0.0,0.017334,-0.061646000000000006,1.004532
1936,1.525902,-0.366217,0.549325,0.01294,-0.075196,1.000504
1938,4.272526,-0.183108,1.647974,0.025391,-0.07055800000000001,1.007095
1940,2.075227,0.0,0.061036,0.02417,-0.06225700000000001,1.006363
1942,0.30518,0.0,-0.366217,0.012573,-0.070436,1.003555
1944,1.525902,-0.793469,1.586938,0.007568000000000001,-0.069825,0.993179
1946,2.80766,-1.647974,8.606088,0.027587999999999998,-0.049805,0.997818
1948,-0.30518,-0.549325,6.836042,0.039307,-0.032227,0.9904940000000001
1950,-2.4414439999999997,0.30518,0.30518,0.023194,-0.059449,1.003067
1952,0.671397,0.366217,-0.366217,0.009766,-0.069703,0.995132
1954,1.8310830000000002,-0.732433,0.0,0.018189,-0.068482,1.006241
1956,3.295949,-0.6103609999999999,0.793469,0.020996,-0.062135,1.013199
1958,3.173877,-0.122072,0.427253,0.031617,-0.049928,0.9969629999999999
1960,0.122072,0.122072,-0.854505,0.033082,-0.058595,0.991836
1962,-1.09865,0.854505,-4.21149,0.032837,-0.03772,1.001724
1964,-1.2207219999999999,1.159686,-8.789197,0.018311,-0.053834,1.0036770000000002
1966,-4.333562000000001,0.671397,-5.554284,0.024903,-0.059937,1.009415
1968,-4.21149,1.037613,-4.638743,0.022583000000000002,-0.07055800000000001,1.003555
1970,-2.075227,0.854505,-6.2867169999999994,0.004517,-0.06286699999999999,0.9987950000000001
1972,-0.671397,0.244144,-5.3101400000000005,0.018799,-0.07531900000000001,1.00795
1974,0.671397,-0.122072,-3.295949,0.012695999999999999,-0.06775,0.9902489999999999
