Packet number,Gyroscope X (deg/s),Gyroscope Y (deg/s),Gyroscope Z (deg/s),Accelerometer X (g),Accelerometer Y (g),Accelerometer Z (g)
2,-0.549325,-0.244144,-0.122072,-0.001709,-0.005005,0.9941559999999999
4,-0.244144,-0.183108,-0.122072,-0.000488,-0.001953,1.000259
6,-0.122072,-0.48828900000000003,0.0,-0.001099,-0.0028079999999999997,0.999893
8,0.0,-0.427253,-0.122072,-0.00061,0.002686,1.000748
10,0.122072,-0.183108,0.0,-0.000366,0.001465,0.9953770000000001
12,-1.037613,-0.6103609999999999,-0.122072,-0.001221,0.000488,0.9956209999999999
14,-1.09865,-0.549325,-0.183108,-0.000244,0.0021969999999999997,0.992081
16,-0.976577,-0.549325,-0.122072,-0.000732,-0.004639,0.9986719999999999
18,-0.793469,-0.427253,0.0,-0.002441,-0.001953,1.004532
20,-0.48828900000000003,-0.427253,0.0,0.0,-0.003296,0.9990389999999999
22,-0.732433,-0.549325,0.0,0.003418,-0.00415,1.0000149999999999
24,-0.854505,-0.427253,-0.122072,0.001709,0.002441,1.001846
26,-0.732433,-0.061036,0.0,-0.004028,0.0,1.0000149999999999
28,-0.427253,0.061036,0.0,0.002686,-0.001709,1.001724
30,-0.244144,0.0,0.061036,0.005737,-0.0021969999999999997,1.002945
32,-0.061036,0.0,0.122072,-0.001221,0.00061,1.0042879999999998
34,0.0,-0.122072,0.061036,-0.0031739999999999997,0.000366,0.9950100000000001
36,-0.183108,-0.549325,0.0,-0.0063479999999999995,-0.001221,0.9922030000000001
38,-0.549325,-0.976577,0.0,-0.001831,-0.001343,0.9941559999999999
40,-0.976577,-1.342794,0.0,0.000244,0.00061,0.999527
42,-1.342794,-1.281758,0.0,0.002075,-0.001343,0.997452
44,-1.159686,-0.854505,0.061036,-0.001343,-0.0070799999999999995,1.013321
46,-1.281758,-0.732433,-0.122072,0.001709,-0.007935,0.9909819999999999
48,-0.549325,-0.732433,0.0,0.005615,0.0015869999999999999,0.9980620000000001
50,-0.061036,-0.732433,-0.122072,-0.003662,0.005615,0.9952540000000001
52,0.122072,-0.9155409999999999,-0.244144,0.013428,0.00061,0.989395
54,1.281758,-0.671397,0.0,0.020386,0.011231,0.9911040000000001
56,0.9155409999999999,-0.48828900000000003,0.0,0.012695999999999999,0.000732,1.002213
58,0.183108,0.122072,0.0,0.006958,-0.005615,1.0085600000000001
60,0.0,0.183108,0.0,-0.001465,0.000244,1.003922
62,0.366217,0.244144,0.0,-0.0063479999999999995,0.00415,1.0000149999999999
64,-0.366217,-0.366217,-0.183108,0.003662,-0.009276999999999999,1.005142
66,-0.122072,-0.30518,0.0,-0.002075,-0.006104,1.0000149999999999
68,0.061036,-0.366217,0.0,-0.0008550000000000001,-0.0021969999999999997,1.003311
70,-0.244144,-0.6103609999999999,0.0,-0.003052,0.002686,0.9906159999999999
72,-0.427253,-0.671397,0.0,0.004639,-0.002686,1.013199
74,-0.30518,-0.6103609999999999,0.122072,-0.0023190000000000003,-0.005371,1.0047760000000001
76,0.0,-0.6103609999999999,0.122072,-0.005005,-0.00647,0.9990389999999999
78,0.671397,-0.9155409999999999,0.122072,0.000977,-0.01001,1.0095370000000001
80,2.624552,-0.6103609999999999,0.122072,0.003052,-0.009522,1.021866
82,6.897078,0.976577,-0.122072,0.000488,-0.015259,0.973404
84,5.249104,0.244144,-0.30518,-0.014527000000000002,-0.005615,0.984756
86,4.150454,-1.037613,-0.244144,0.008911,0.007324,1.017716
88,2.990768,-1.40383,-0.30518,0.009644,-0.008789,1.000259
90,4.272526,-0.854505,-0.30518,0.002564,0.015869,0.9820709999999999
92,3.845274,-0.366217,-0.183108,0.0021969999999999997,0.012085,1.014908
94,4.333562000000001,0.061036,0.0,0.010131999999999999,-0.008545,0.980606
96,4.333562000000001,0.0,0.0,-0.003052,0.023072,0.978042
98,2.136263,-0.6103609999999999,0.0,-0.010376,0.006836,0.992935
100,1.159686,-0.671397,0.061036,-0.008179,0.013062,0.996475
102,2.075227,-0.732433,0.427253,0.0058590000000000005,0.028687,0.9987950000000001
104,1.8310830000000002,-0.793469,0.366217,0.006226,0.016846,0.997452
106,1.281758,-0.732433,0.427253,-0.000244,0.013306,0.999649
108,1.586938,-1.40383,0.671397,-0.001953,0.017945,0.997452
110,1.281758,-2.50248,0.732433,-0.006958,0.024291999999999998,0.993179
112,0.427253,-2.624552,0.671397,0.011109,0.013184,0.9987950000000001
114,1.586938,-2.624552,0.732433,-0.001099,-0.011109,0.9745020000000001
116,2.990768,-1.40383,1.09865,-0.002564,-0.015991,0.9671780000000001
118,4.394598,-2.50248,2.014191,-0.026612,0.024048,0.987442
120,4.5166699999999995,-3.356985,1.70901,0.002686,0.02295,0.981949
122,2.868696,-3.723201,1.8310830000000002,0.011231,0.023194,0.977676
124,1.586938,-2.990768,0.732433,0.030151999999999998,0.041138,0.991836
126,4.760815,0.976577,0.9155409999999999,0.023926,0.021363,1.0245520000000001
128,4.150454,1.647974,1.159686,0.010498,0.020874,1.010636
130,3.479057,1.8310830000000002,0.549325,-0.001099,0.030396,1.001358
132,2.990768,0.427253,0.48828900000000003,0.000366,0.039185000000000005,0.968643
134,1.647974,-1.342794,0.30518,0.009155,0.038331,1.008682
136,1.281758,-1.70901,-0.183108,0.001465,0.063966,0.961318
138,-2.075227,-1.586938,-0.427253,0.016602000000000002,0.030762,1.005997
140,-3.967346,0.6103609999999999,-0.30518,0.01709,0.026368,1.002945
142,-4.455634,1.647974,0.0,-0.000732,0.022216999999999997,0.996597
144,-3.784237,0.30518,-0.122072,-0.006836,0.023316,0.9871979999999999
146,-2.2583349999999998,-0.6103609999999999,-0.30518,0.007324,0.018555000000000002,1.005997
148,0.061036,-0.671397,-0.427253,0.016846,0.024537,1.005142
150,0.061036,-0.244144,-0.244144,0.004273,0.0271,1.00148
152,0.48828900000000003,-0.183108,-0.122072,0.001709,0.028443,0.9799950000000001
154,-2.2583349999999998,-2.014191,0.061036,-0.003052,0.033569999999999996,0.965957
156,-4.638743,-3.295949,0.061036,0.0074459999999999995,0.029175,0.993423
158,-5.3101400000000005,-3.723201,0.0,0.019409,0.019043,0.996353
160,-4.943923000000001,-3.418021,0.0,0.014893,0.017334,0.9942780000000001
162,-4.760815,-3.6621650000000003,-0.183108,0.009644,0.011231,0.988296
164,-6.530861,-3.967346,-0.183108,0.012085,0.035767,0.970352
166,-9.094377,-4.394598,0.0,0.019043,0.040162,0.956558
168,-13.611048,-4.150454,0.671397,0.027832,0.008911,1.004166
170,-14.770732999999998,-1.8921189999999999,1.8310830000000002,0.032958999999999995,-0.006836,1.016251
172,-15.564201999999998,-3.1128400000000003,2.014191,-0.004761,0.001953,0.8639049999999999
174,-26.184482,-8.972305,3.723201,0.004028,0.003418,0.9862209999999999
176,-27.100022999999997,-9.704738,4.028382,0.035889,-0.029786,1.033829
178,-25.940337,-7.6905470000000005,3.356985,0.018799,-0.014649,1.009049
180,-26.489662,-7.385367,2.319371,0.03003,-0.008057,1.010025
182,-26.367590000000003,-8.1178,-0.793469,0.010498,0.005371,1.023209
184,-34.546426000000004,-8.178836,-6.71397,0.043458,0.071412,0.9643700000000001
186,-52.429999,-6.958114,-3.540093,0.08569500000000001,-0.027222000000000003,1.027115
188,-48.52369,-4.8218510000000006,-7.446403,0.018677000000000003,-0.034424,0.9591209999999999
190,-49.439231,0.854505,-9.155413000000001,-0.037598,-0.08838,0.969375
192,-60.914015,-5.9205,-11.841001,0.086427,-0.140505,1.040909
194,-63.843748,4.21149,-8.789197,0.120485,-0.23865100000000003,1.148455
196,-47.547112,7.873655,-8.300908,0.110475,0.114626,1.077165
198,-116.88410800000001,13.916228,1.037613,0.042602999999999995,0.149538,0.869276
200,-160.158694,12.32929,7.141222,-0.06579700000000001,0.27563899999999997,0.702159
202,-307.07255699999996,-3.90631,-1.2207219999999999,-0.109865,0.200931,1.183612
204,-457.70962099999997,-37.354085999999995,5.61532,-0.136477,0.051148,1.341573
206,-597.848478,-39.124132,9.948882000000001,0.19763499999999998,-0.16284400000000002,0.981094
208,-610.177768,4.333562000000001,88.31921899999999,-1.022721,-0.337163,1.9999689999999999
210,221.011673,37.781338,-50.2327,-0.522225,0.802747,1.9835509999999998
212,-75.44060400000001,-23.987182,21.606775,-0.23181500000000002,0.261479,0.8680549999999999
214,75.19646,-1.09865,1.7700470000000001,0.000977,0.476326,0.488655
216,29.48043,-0.793469,-0.366217,0.053223,0.289189,0.90248
218,73.548486,-3.356985,-7.629511,-0.022461000000000002,0.453132,0.902602
220,113.34401499999998,-4.638743,-8.850233,-0.107668,0.358038,1.01735
222,142.946517,-1.7700470000000001,-3.6011290000000002,-0.144533,0.24756199999999998,1.265034
224,187.685969,4.8218510000000006,3.356985,-0.11816600000000001,0.169924,1.276265
226,217.898833,9.399557000000001,9.277485,-0.036133,0.045167,1.078141
228,228.336004,4.8218510000000006,10.620279,0.07470800000000001,0.028931000000000002,1.1311209999999998
230,239.93286,5.065995,1.8310830000000002,0.187137,0.022461000000000002,1.41445
232,258.548867,15.991454999999998,-14.953841,0.20325,-0.06006,1.554467
234,270.634012,19.714656,-29.846646999999997,0.218631,-0.198245,1.466941
236,260.624094,23.315785,-45.654994,0.244144,-0.333135,1.466453
238,242.43534,36.133364,-62.378882,0.250248,-0.36585,1.510643
240,221.194781,31.799802000000003,-74.891279,0.16003699999999998,-0.316777,1.9999689999999999
242,247.623407,35.156786,-82.825971,0.053712,-0.444221,1.9999689999999999
244,268.558785,43.51873,-82.948043,0.070069,-0.63917,1.808255
246,240.726329,59.510185,-84.107729,0.24377800000000002,-0.753796,1.6783700000000001
248,219.302663,80.384527,-91.859312,0.47144300000000006,-0.9820709999999999,1.537133
250,184.20691200000002,80.567636,-92.835889,0.353277,-1.5833979999999999,1.182269
252,132.997635,83.802548,-69.459068,0.088258,-2.0000310000000003,0.905653
254,93.263142,106.69108100000001,-22.583351999999998,-0.370489,-2.0000310000000003,-0.282109
256,-29.114214,0.6103609999999999,74.341955,-0.367193,-1.994293,-0.392828
258,-178.286412,-114.381628,100.58747199999999,0.972671,-0.564218,0.359991
260,-73.548486,-44.129090999999995,59.20500500000001,-0.002564,0.827283,1.8000759999999998
262,-180.361639,-95.826658,52.857252,0.633188,0.412116,-0.291997
264,-256.229496,-51.270314,38.513771000000006,0.7153430000000001,-0.045533,1.9999689999999999
266,-137.148089,-5.188067,1.647974,0.465095,-0.138796,1.7214619999999998
268,-148.378729,5.859464,7.812619000000001,-0.623423,-0.134401,1.5874270000000001
270,-107.057298,-1.8310830000000002,36.804761,-0.20642399999999997,-0.060426,1.3829559999999999
272,-45.777066,-35.156786,22.827497,0.072267,0.059083000000000004,1.235859
274,-55.84802,-65.186542,26.001373,0.03003,0.10132000000000001,1.5000229999999999
276,-26.977951,-49.988556,5.9205,0.274052,0.129885,1.323018
278,-26.184482,-38.208591,4.577707,0.009033,0.076173,1.225483
280,-18.127717999999998,-25.635157,-0.549325,0.107424,0.063111,1.097185
282,-12.939651,-16.174563,0.549325,0.05127,0.047363999999999996,0.953262
284,-18.860151000000002,-7.934691,4.150454,0.050904000000000005,0.032958999999999995,1.051652
286,-6.2867169999999994,-3.418021,3.540093,0.026612,0.077028,1.065934
288,-5.737392,-1.8310830000000002,1.2207219999999999,0.035889,-0.0015869999999999999,0.949111
290,-6.103609,-3.540093,1.586938,0.013428,0.045899,0.9237200000000001
292,-13.550010999999998,-8.056764,2.50248,0.022461000000000002,0.09704700000000001,0.9461809999999999
294,-19.897765,-7.751583,3.418021,0.035279000000000005,0.059327,1.040543
296,-11.596857,-6.2867169999999994,1.7700470000000001,0.021851,0.008301000000000001,0.9199360000000001
298,-12.512398,-7.9957270000000005,0.122072,0.030274000000000002,0.011475,0.9828030000000001
300,-11.047532,-8.545052,0.549325,0.004883,0.0063479999999999995,1.046891
302,-8.606088,-8.911269,-0.183108,0.008667,0.051026,0.959731
304,-15.381094000000001,-13.061722999999999,0.122072,0.026978,0.055542999999999995,0.9719389999999999
306,-17.578393,-14.831769,-4.8218510000000006,0.148928,-0.171023,0.806897
308,-15.930419,-8.361944,-1.037613,-0.0021969999999999997,0.034546,1.029557
310,-23.987182,-7.6905470000000005,-0.48828900000000003,0.045533,0.041382,1.048844
312,-21.972992,-6.347753,0.976577,0.07422000000000001,0.039429,0.941299
314,-29.358358000000003,-6.164645,1.70901,0.055421000000000005,-0.011840999999999999,0.999771
316,-32.898451,-6.775005999999999,2.319371,0.070069,-0.0008550000000000001,0.9790190000000001
318,-34.058137,-6.958114,2.990768,0.06994700000000001,-0.011353,0.983658
320,-38.574807,-4.150454,1.70901,0.046021,-0.052125,0.961807
322,-44.495308,-2.014191,2.563516,0.08423,-0.041382,1.0466469999999999
324,-39.185168,2.075227,4.394598,0.06482,-0.093751,1.081682
326,-61.280232,10.559242999999999,5.432212,-0.015503,0.005005,1.07863
328,-50.171664,9.887846000000001,-1.525902,-0.006958,-0.020508000000000002,0.95729
330,-53.77279300000001,4.028382,-8.850233,-0.07055800000000001,-0.16284400000000002,1.051408
332,-51.819638,3.051804,-31.311513,0.076661,-0.21155100000000002,1.088762
334,-25.207904,3.173877,-6.042573,0.129641,-0.291752,1.072648
336,-64.45410799999999,16.052491,-4.760815,0.118654,0.264408,0.9867090000000001
338,-176.211185,34.851606,-12.207218,-0.068116,0.279545,0.727062
340,-216.67811099999997,-30.090790999999996,2.075227,0.023438,0.914076,1.034073
342,-499.519341,-152.16296599999998,-13.183795000000002,-0.6521100000000001,0.050660000000000004,1.190814
344,-771.190967,-233.27992700000001,45.838102,0.315679,0.16809300000000002,1.127214
346,-987.5028609999999,-152.346075,204.654002,-0.472908,-0.520882,1.9999689999999999
348,400.33569900000003,68.299382,-68.604562,-0.242069,0.530037,1.9999689999999999
350,80.384527,-8.911269,4.333562000000001,-0.6894640000000001,0.561288,0.208988
352,37.964446,-32.654307,32.227053999999995,-0.226566,0.10315099999999999,0.5943689999999999
354,73.79263,22.522316,10.864424,0.092164,0.437507,0.39453699999999997
356,97.901884,35.706111,-3.540093,0.044923000000000005,0.377325,0.803235
358,113.16090600000001,13.183795000000002,-9.52163,0.021241,0.417487,1.150164
360,174.685283,20.630198,-19.409476,0.021485,0.399542,1.4822
362,225.711452,40.161746,-25.635157,-0.050294,0.176028,1.423117
364,261.600671,51.33135,-19.836728,-0.123903,-0.042847,1.175921
366,280.155642,45.166705,-6.897078,-0.039429,-0.11767799999999999,1.147723
368,285.221637,49.500267,-7.01915,0.11096400000000001,-0.198245,1.391867
370,281.193256,62.56199,-20.752270000000003,0.282719,-0.46411800000000003,0.935317
372,241.763943,64.637217,-36.1944,0.359503,-0.380255,1.2245059999999999
374,219.485771,65.308614,-57.801175,0.210575,-0.336675,1.871733
376,218.08194100000003,89.784085,-56.580453000000006,-0.030151999999999998,-0.638682,1.9999689999999999
378,250.125887,82.642863,-34.241245,-0.09399600000000001,-0.76112,1.9999689999999999
380,282.719158,80.445563,-12.268253999999999,0.104128,-0.8838030000000001,1.9999689999999999
382,269.596399,81.483177,-0.366217,0.135256,-0.979751,1.575097
384,237.79659700000002,78.797589,1.037613,0.06958099999999999,-1.208026,1.507958
386,192.87403700000002,92.652781,7.507439,0.306767,-1.9393610000000001,1.353414
388,141.481651,136.35461999999998,-2.624552,0.8712290000000001,-2.0000310000000003,0.510628
390,72.14465600000001,134.035248,-12.756542,0.5081859999999999,-2.0000310000000003,-1.0880290000000001
392,-57.618067,-66.65140799999999,37.048905,0.182864,-1.49807,0.18188800000000002
394,-191.042954,-168.886854,42.481117,0.279667,-1.614282,-0.46570500000000004
396,-154.726482,-82.52079,58.10635500000001,-0.23047199999999998,0.649546,1.9999689999999999
398,-276.371405,-102.90684399999999,74.036774,0.549203,0.01648,1.0080719999999999
400,-253.604944,-44.373236,54.810407,1.071061,-0.039918,1.2711379999999999
402,-201.907378,1.586938,1.342794,0.414191,-0.439582,1.9999689999999999
404,-128.786145,-18.860151000000002,18.24979,-1.282246,-0.203372,1.9999689999999999
406,-32.837415,-85.999847,22.705425,1.31313,0.10486,1.9999689999999999
408,-59.937438,-24.902724,0.732433,-0.601938,-0.10656900000000001,1.369284
410,-23.193713,-49.134051,2.746624,0.45459700000000003,0.10461600000000001,1.182513
412,-23.132676999999997,-26.977951,1.2207219999999999,-0.084108,-0.02417,1.176776
414,-29.358358000000003,-25.574120999999998,1.464866,0.033936,0.014159999999999999,1.016373
416,-17.151141,-17.151141,2.197299,0.185428,0.073732,1.013443
418,-19.836728,-5.676356,4.089418,0.084108,-0.046143,0.9784079999999999
420,-19.714656,-3.479057,4.943923000000001,0.057862000000000004,-0.004761,1.069718
422,-10.315099,-2.319371,3.356985,0.027832,-0.0271,1.031754
424,-9.52163,-4.333562000000001,1.586938,0.046632,0.077028,1.0411540000000001
426,-12.390326,-4.394598,1.7700470000000001,0.031983,0.0063479999999999995,1.014298
428,-9.765774,-1.8310830000000002,0.9155409999999999,0.087404,-0.068482,0.9466700000000001
430,-11.535821,-1.40383,2.319371,0.041505,0.00415,0.992813
432,-13.855192,-2.685588,1.159686,0.048341,-0.040772,0.9668120000000001
434,-17.273213000000002,-4.089418,0.854505,0.054322,-0.036866,0.9428850000000001
436,-23.682002,-6.2867169999999994,1.342794,0.062013,-0.043091000000000004,0.993668
438,-19.470512,-6.347753,0.427253,0.06384400000000001,-0.063111,1.0167389999999998
440,-14.526589000000001,-5.3101400000000005,0.366217,0.072023,-0.056641,1.014298
442,-11.108568,-5.0049589999999995,0.976577,0.064942,-0.065187,0.9976959999999999
444,-12.085144999999999,-4.089418,2.746624,0.08447400000000001,-0.055177,1.001724
446,-13.244831,-0.9155409999999999,2.50248,0.068238,-0.05774,1.013321
448,-16.84596,0.427253,2.380407,0.044677999999999995,-0.035644999999999996,0.9715719999999999
450,-25.574120999999998,1.09865,1.8921189999999999,0.066896,-0.056764,0.9698629999999999
452,-32.166018,0.793469,1.464866,0.051759000000000006,-0.08447400000000001,1.015396
454,-28.625925,-0.671397,0.793469,0.062013,-0.026856,1.129656
456,-34.302281,6.164645,4.577707,0.105715,-0.074586,0.984878
458,-44.3122,8.1178,6.71397,0.043213999999999995,-0.06958099999999999,1.0036770000000002
460,-40.833143,7.080186,0.9155409999999999,0.002564,-0.138796,1.0085600000000001
462,-35.767146999999994,3.540093,-10.193027,0.039185000000000005,-0.165774,0.861341
464,-48.584726,4.943923000000001,-25.635157,0.11084200000000001,-0.21973,1.008682
466,-9.155413000000001,3.6011290000000002,-2.075227,0.201175,-0.274296,1.171893
468,-17.334249,18.493935,-3.6621650000000003,0.10351700000000001,0.155886,0.952041
470,-110.04806599999999,34.302281,-14.099336,-0.037110000000000004,0.405646,0.932998
472,-222.537575,3.723201,7.263294,-0.147829,0.794568,0.90956
474,-584.115358,-13.427939000000002,19.470512,-0.291875,0.369879,1.749538
476,-804.7608150000001,-48.096437,90.394446,0.132448,-0.136477,0.942519
478,-1096.940566,-118.348974,167.97131299999998,-1.2180360000000001,-0.774792,1.9999689999999999
480,190.920882,-9.399557000000001,-24.597542999999998,-0.41809700000000005,0.5902189999999999,1.9999689999999999
482,22.888533,-12.024109,22.522316,-0.37598200000000004,0.732677,1.9999689999999999
484,127.748531,-31.372549,29.968719,-0.008179,0.32507800000000003,0.5550619999999999
486,90.821698,-38.391698999999996,13.427939000000002,0.121706,0.388067,0.350713
488,129.884794,-19.592584,-15.259022,0.120485,0.396246,0.49817700000000004
490,132.692454,-26.794842,-35.461967,0.035644999999999996,0.362188,0.914199
492,180.91096399999998,-31.494621000000002,-51.270314,-0.07946900000000001,0.36939,1.2997020000000001
494,233.03578199999998,-26.306554,-58.838788,-0.16907,0.170901,1.554101
496,289.494163,-10.559242999999999,-60.425727,-0.177005,-0.026368,1.52224
498,329.106584,2.136263,-59.693293999999995,-0.117067,-0.199954,1.312398
500,335.39330099999995,17.517357,-62.50095400000001,0.03003,-0.274418,1.069108
502,307.25566499999996,38.69688,-78.370336,0.068482,-0.509041,0.617807
504,242.31326800000002,65.857939,-82.337682,0.099001,-0.416022,1.222553
506,231.50987999999998,84.901198,-90.699626,0.029175,-0.33179200000000003,1.9999689999999999
508,257.022965,124.51361899999999,-71.839475,-0.23071599999999998,-0.6963,1.9999689999999999
510,281.132219,105.83657600000001,-28.747996999999998,-0.10852200000000001,-0.840467,1.9999689999999999
512,315.86175299999996,98.57328100000001,-17.639429,0.58497,-1.040299,1.464012
514,226.07766800000002,120.60730900000001,-36.316472,0.680552,-0.996597,1.834623
516,250.43106699999998,73.79263,-48.096437,0.499763,-1.2722360000000001,1.705959
518,197.756924,65.430686,-43.823910999999995,0.193851,-1.95938,1.137713
520,135.927367,87.464714,-32.166018,0.47425,-2.0000310000000003,0.717052
522,86.12191999999999,115.785458,-27.222095,0.320073,-2.0000310000000003,-0.45191099999999995
524,-45.105669,-6.2867169999999994,34.363316999999995,-0.372076,-2.0000310000000003,-1.6854509999999998
526,-240.604257,-224.979019,86.488136,0.8242309999999999,-0.797864,1.90457
528,-101.991302,-44.983596999999996,70.008392,-0.130495,0.9914700000000001,0.734142
530,-302.861067,-103.27306,72.083619,1.0306549999999999,-0.17260999999999999,0.47730200000000006
532,-289.433127,-46.32639,42.542153000000006,1.466697,-0.364508,1.9999689999999999
534,-142.397192,16.357671,-7.568475,-0.6619970000000001,-0.022583000000000002,1.3861299999999999
536,-147.096971,-83.98565699999999,56.397344999999994,-0.946426,-0.705333,1.523949
538,-62.989242000000004,-88.258183,19.897765,1.9845270000000002,0.174075,1.9999689999999999
540,-35.950256,-29.602502,-9.460594,-0.748425,-0.167483,1.270527
542,-19.165332,-20.263981,-5.61532,0.353277,0.037354000000000005,1.21767
544,-8.056764,-22.217136,-2.80766,0.111818,0.015015,1.0897379999999999
546,-22.278172,-10.742351,2.4414439999999997,0.015259,-0.07470800000000001,1.135515
548,-8.056764,-2.624552,3.6011290000000002,0.0907,0.049317,1.01857
550,-4.943923000000001,-0.366217,3.6011290000000002,0.047852,0.0021969999999999997,0.935317
552,-11.963073,0.793469,3.234913,0.011719,-0.029907999999999997,0.9455709999999999
554,-16.906996,-1.70901,2.2583349999999998,0.018311,0.000366,1.008438
556,-10.620279,-1.2207219999999999,1.8921189999999999,0.019898,0.018189,0.968032
558,-13.916228,-3.234913,2.50248,0.016968,0.006592,1.046159
560,-14.282444,-4.943923000000001,2.2583349999999998,0.024903,0.0051270000000000005,1.0047760000000001
562,-12.878614,-5.493248,0.48828900000000003,0.030639999999999997,-0.043336,0.9344629999999999
564,-17.090104999999998,-5.981537,0.549325,0.014159999999999999,-0.000122,1.0283360000000001
566,-18.066682,-4.760815,1.2207219999999999,0.026489999999999996,-0.0177,0.9828030000000001
568,-17.700464999999998,-5.859464,0.732433,0.035401,-0.041871,1.0234530000000002
570,-15.259022,-6.225681,0.671397,0.043946,-0.066041,1.041764
572,-7.6905470000000005,-5.859464,-0.244144,0.025879000000000003,-0.038697,0.95314
574,-12.207218,-7.873655,-1.2207219999999999,0.036744,-0.035035000000000004,0.972671
576,-14.770732999999998,-6.958114,-0.854505,0.073854,-0.052247,1.0048979999999998
578,-17.151141,-4.455634,0.122072,0.039307,-0.025025,0.982193
580,-20.019837,-5.554284,-1.2207219999999999,0.04358,-0.027587999999999998,0.9625389999999999
582,-27.405203000000004,-5.981537,-0.976577,0.048829000000000004,-0.060548000000000005,1.0053860000000001
584,-27.222095,-6.775005999999999,0.30518,0.016114,-0.051514,0.9906159999999999
586,-28.320745000000002,-2.563516,0.9155409999999999,0.06482,-0.114504,0.93727
588,-26.794842,-1.647974,3.540093,0.043458,-0.112428,0.987808
590,-43.884947,3.051804,4.577707,-0.038941,0.01648,0.976577
592,-45.166705,0.793469,-5.9205,0.009033,-0.015015,1.014054
594,-56.031128,-0.30518,-15.686275,-0.030762,-0.158572,1.073259
596,-64.271,0.854505,-26.733806,0.157595,-0.333379,1.04213
598,-23.620966,5.859464,2.50248,0.178592,-0.213626,1.063859
600,-68.787671,23.743038000000002,-5.127031,0.122927,0.16711700000000002,0.9310440000000001
602,-182.68101000000001,31.494621000000002,-22.095064,-0.220951,0.181643,0.40369299999999997
604,-272.037842,-36.743725,-18.738079,0.097414,0.534066,1.148089
606,-643.503471,-145.815213,36.682689,-0.20618000000000003,0.04358,1.399313
608,-784.313726,-179.324025,64.759289,0.391241,-0.09253099999999999,0.9427629999999999
610,-928.358892,-109.681849,202.212558,-0.114015,-1.003067,1.9999689999999999
612,234.37857599999998,13.855192,-32.959487,-0.35291100000000003,0.956924,1.9999689999999999
614,49.744411,-14.831769,23.498894,-0.686656,0.755627,1.8237580000000002
616,178.042268,-4.394598,26.367590000000003,-0.23755199999999999,0.331304,0.745495
618,144.838636,13.855192,22.705425,-0.019532,0.24731799999999998,0.574228
620,182.55893799999998,36.804761,5.432212,0.028931000000000002,0.172488,0.548959
622,191.042954,27.771420000000003,-4.150454,0.12182799999999999,0.181033,0.798474
624,216.250858,17.639429,-16.968032,0.137453,0.174197,1.262715
626,259.769589,26.733806,-30.395971999999997,0.126345,0.041260000000000005,1.317403
628,286.320287,41.687647999999996,-36.255435999999996,0.11694500000000001,-0.102296,1.254047
630,302.128634,36.987869,-36.743725,0.274418,-0.195682,1.447044
632,320.43946,32.959487,-57.740139,0.528939,-0.358038,1.415793
634,303.227283,52.73518000000001,-92.286564,0.518807,-0.604746,0.95436
636,241.886015,82.276646,-106.630045,0.25684,-0.6833600000000001,1.2238959999999999
638,230.838483,76.661326,-105.65346799999999,-0.034058,-0.653452,1.7922639999999999
640,209.719997,99.855039,-70.49668100000001,-0.22510100000000002,-0.8215459999999999,1.9999689999999999
642,228.64118399999998,80.81178,-25.635157,0.001221,-0.82826,1.9999689999999999
644,273.685817,76.356146,0.30518,0.287602,-0.8682989999999999,1.908843
646,248.96620099999998,62.684062,10.376135000000001,0.306523,-0.95668,1.441794
648,218.44815699999998,59.14396899999999,2.929732,0.19971,-1.242451,1.407736
650,178.774701,66.163119,2.4414439999999997,0.349371,-1.814603,0.960464
652,117.799649,81.78835699999999,-26.062409,1.021012,-2.0000310000000003,0.308843
654,39.734493,88.50232700000001,-40.344854,0.510872,-2.0000310000000003,-0.354131
656,-36.865797,-46.387427,6.591897,0.010864,-1.551049,0.489754
658,-226.749065,-188.540475,41.077287,0.379156,-0.442634,0.9361719999999999
660,-111.94018500000001,-34.912642,35.461967,-0.522713,1.0390780000000002,1.350362
662,-295.292592,-98.023957,60.303655000000006,0.137942,-0.5311359999999999,0.436896
664,-266.788739,-67.444877,56.885633999999996,1.084001,-0.105959,1.9999689999999999
666,-120.18005600000001,-3.356985,13.000687,0.08447400000000001,-0.367437,1.450828
668,-90.089265,-70.862898,39.00206,-0.162356,-0.083375,1.9999689999999999
670,-43.091478,-26.977951,3.356985,0.5294270000000001,-0.039307,1.3678190000000001
672,-43.701839,-42.236973,7.812619000000001,0.054688,-0.019409,1.1692069999999999
674,-42.053864000000004,-10.315099,0.366217,0.039796,-0.0177,1.077775
676,-12.207218,-5.9205,-4.028382,0.147097,0.06543099999999999,1.089372
678,-14.099336,1.40383,-0.976577,0.047852,0.019776,1.053605
680,-13.916228,6.775005999999999,1.464866,0.006714,-0.009644,1.02565
682,-12.756542,5.432212,4.028382,0.019898,0.01001,0.969986
684,-16.540779999999998,0.427253,4.455634,0.008423,0.040284,0.945815
686,-22.400244,-3.051804,3.356985,-0.00415,0.009276999999999999,0.980117
688,-23.498894,-2.319371,1.037613,0.035767,-0.199954,0.8603649999999999
690,-16.662851999999997,-2.80766,2.685588,-0.000977,-0.018433,1.042985
692,-12.756542,-5.0049589999999995,1.342794,0.023194,-0.016846,1.01088
694,-10.681315,-4.699779,0.732433,0.015625,-0.012085,0.9956209999999999
696,-13.855192,-4.455634,1.159686,0.025147,-0.011353,1.023819
698,-14.709697,-3.6621650000000003,2.014191,0.008057,-0.018677000000000003,0.9666899999999999
700,-18.188754,-5.9205,2.50248,0.0070799999999999995,-0.021241,0.972305
702,-21.667811,-7.9957270000000005,2.014191,0.041138,-0.034546,1.032486
704,-17.639429,-6.225681,0.671397,0.043702,-0.045777,1.033097
706,-15.075914000000001,-3.90631,1.342794,0.039307,-0.058838999999999995,1.024918
708,-13.366903,-2.990768,2.50248,0.028076999999999998,-0.026978,0.973892
710,-19.104295,-3.418021,2.014191,0.037110000000000004,-0.036255,1.013809
712,-20.996414,-2.2583349999999998,1.525902,0.059083000000000004,-0.059204999999999994,0.995865
714,-23.010604999999998,-0.244144,2.380407,0.038209,-0.06421,1.010147
716,-29.907683000000002,-0.366217,3.723201,0.019043,-0.053834,0.9851219999999999
718,-28.870069,-0.366217,2.197299,0.044923000000000005,-0.037110000000000004,1.011368
720,-33.264668,-2.014191,4.455634,0.102663,-0.08752599999999999,1.088762
722,-32.166018,3.051804,5.9205,0.041382,-0.110475,0.998184
724,-34.485389,3.173877,4.455634,-0.007568000000000001,-0.104005,0.989517
726,-24.902724,2.868696,1.8921189999999999,0.046143,-0.16492,0.842176
728,-42.786297,-4.760815,-17.212177,-0.043091000000000004,-0.16406500000000002,0.9388569999999999
730,-58.289464,-5.554284,-15.014878,0.114382,-0.34876,1.041032
732,-20.141909,-2.685588,-11.291675999999999,0.014282,-0.151003,0.968887
734,-71.107042,1.464866,-16.174563,0.092287,0.142824,0.949599
736,-127.38231499999999,12.146181,-11.23064,0.080201,0.41113900000000003,0.668956
738,-274.052033,-17.639429,-44.007019,-0.071534,0.882216,1.104387
740,-645.700771,-84.351873,13.427939000000002,-0.533089,0.078614,1.2374459999999998
742,-867.261769,-204.16571299999998,71.473259,0.34216799999999997,-0.593271,1.18764
744,-323.5523,-142.946517,104.127565,-1.100481,-0.617563,1.9999689999999999
746,325.444419,57.434957999999995,-37.170977,0.11218399999999999,1.317769,1.2568549999999998
748,-45.410849,-2.868696,39.063096,-0.194217,0.232181,-0.135378
750,82.70389899999999,23.743038000000002,18.554971,-0.030883999999999998,0.282353,0.27747
752,42.542153000000006,6.347753,10.742351,0.149294,0.404791,0.622446
754,114.56473600000001,-7.6905470000000005,-11.779964999999999,0.153811,0.529671,0.8520639999999999
756,145.937285,-13.794156,-26.611734000000002,0.05359,0.392218,1.123308
758,194.644083,-7.507439,-36.377508,-0.099123,0.251469,1.162005
760,234.37857599999998,10.376135000000001,-31.616692999999998,-0.27332,-0.010864,1.263203
762,266.849775,23.010604999999998,-13.488975,-0.221683,-0.163577,1.2882280000000002
764,289.188983,25.024796,-4.699779,0.06384400000000001,-0.204227,1.380514
766,304.75318500000003,39.917601,-20.508125,0.244633,-0.421271,1.049821
768,262.821393,69.398032,-36.865797,0.159426,-0.610727,0.560433
770,207.400626,48.52369,-37.232013,0.100587,-0.44373199999999996,1.1964290000000002
772,194.094759,40.527962,-41.748684000000004,0.259281,-0.32898499999999997,1.9999689999999999
774,266.30045,78.675517,-64.942397,0.254154,-0.596078,1.9999689999999999
776,262.638285,69.214923,-61.707485,0.088746,-0.745617,1.9999689999999999
778,284.24506,67.07866,-58.716716000000005,0.248417,-0.813001,1.7453880000000002
780,247.80651600000002,74.280919,-58.472572,0.297246,-0.819593,1.7647970000000002
782,240.78736600000002,68.48249,-62.928206,0.249271,-1.080217,1.71902
784,207.034409,77.821012,-55.970092,-0.045533,-1.6445560000000001,1.157122
786,144.411383,90.699626,-31.677729,0.33655300000000005,-2.0000310000000003,0.6890970000000001
788,84.16876500000001,110.780499,-23.010604999999998,0.606821,-2.0000310000000003,-0.270756
790,-27.649348,11.535821,21.545739,0.265263,-1.7993439999999998,-0.284794
792,-84.71809,-87.220569,52.002747,0.076051,-1.827909,-2.0000310000000003
794,-151.735714,-132.570382,61.097124,0.26001399999999997,-0.072389,1.991363
796,-151.186389,-77.332723,67.20073199999999,0.129274,0.68043,0.005982
798,-254.520485,-75.989929,55.237658999999994,0.7642939999999999,-0.088991,0.783825
800,-235.84344199999998,-24.048219,26.794842,0.976577,-0.34094800000000003,1.9999689999999999
802,-126.58884599999999,22.095064,1.40383,-0.654551,-0.052247,1.6854509999999998
804,-90.943771,-80.018311,44.92256,-0.025513,-0.123293,1.9518119999999999
806,-41.992828,-21.667811,4.089418,0.41199399999999997,0.021973,1.1696959999999998
808,-65.125505,-51.453421999999996,9.704738,0.050782,-0.021729,1.110735
810,-51.575494,-16.968032,0.549325,-0.010620000000000001,-0.180545,1.167498
812,-16.235599,-24.841688,-3.234913,0.215335,0.101198,1.014786
814,-14.160372,-11.108568,0.30518,0.082399,-0.016236,1.054459
816,-26.245518,-1.70901,4.028382,0.021729,0.005249,1.068132
818,-20.019837,0.48828900000000003,4.272526,0.053101,-0.02356,0.972793
820,-16.052491,-1.464866,3.418021,0.030639999999999997,-0.015259,1.069841
822,-10.315099,-1.40383,2.50248,0.022338999999999998,-0.007691,1.026627
824,-8.606088,0.0,2.014191,0.01648,-0.005005,1.009781
826,-9.094377,0.122072,2.2583349999999998,0.022827,0.0037840000000000005,1.00148
828,-8.178836,-0.183108,2.197299,0.032227,0.001343,1.024918
830,-8.178836,0.48828900000000003,0.671397,0.023681999999999998,-0.026489999999999996,0.988785
832,-9.704738,0.427253,1.159686,0.021729,-0.015137000000000001,0.986099
834,-13.916228,-1.281758,1.8310830000000002,0.009644,0.0028079999999999997,0.96791
836,-19.775692000000003,-3.540093,2.075227,0.015869,-0.02356,0.981094
838,-18.127717999999998,-4.760815,0.671397,0.027832,-0.045533,1.0089270000000001
840,-14.404517000000002,-3.540093,0.244144,0.039185000000000005,-0.058717,1.024674
842,-11.596857,-1.09865,0.9155409999999999,0.057252,-0.088869,1.037369
844,-7.629511,-0.549325,1.342794,0.024537,-0.016114,0.9752350000000001
846,-15.13695,-3.6621650000000003,0.732433,0.007812999999999999,-0.022705,0.941909
848,-25.024796,-4.760815,0.427253,0.041138,-0.0448,0.9720610000000001
850,-28.747996999999998,-3.540093,0.9155409999999999,0.04358,-0.05651900000000001,1.023941
852,-29.297321999999998,-2.2583349999999998,2.319371,0.039429,-0.08276499999999999,1.0008700000000001
854,-28.0766,-3.540093,1.7700470000000001,0.05139199999999999,-0.080568,1.040909
856,-28.015564,-0.976577,0.671397,0.04004,-0.053101,0.936049
858,-37.90341,1.7700470000000001,3.90631,0.044312,-0.134401,1.0370030000000001
860,-38.941024,4.638743,5.9205,0.034791,-0.085939,0.9994049999999999
862,-34.851606,4.5166699999999995,4.150454,0.013306,-0.110231,1.002335
864,-28.870069,6.2867169999999994,-2.685588,0.008911,-0.139651,0.943984
866,-24.719615,-0.671397,-14.526589000000001,-0.07727200000000001,-0.104128,1.090959
868,-42.298009,4.150454,-8.361944,0.123903,-0.303349,1.120867
870,-24.170291,4.5166699999999995,-10.681315,0.075807,-0.045899,1.041886
872,-88.441291,12.146181,-23.743038000000002,0.12903,0.182254,0.922499
874,-168.032349,7.2022580000000005,-31.921874,-0.085084,0.397223,0.7224229999999999
876,-435.004196,-12.817578,-45.044633000000005,0.001221,0.65272,1.4260469999999998
878,-721.446555,-130.617227,25.26894,-0.230961,-0.31555700000000003,1.012833
880,-886.1829560000001,-164.43122,106.263828,0.393439,-2.0000310000000003,1.9999689999999999
882,90.63859000000001,-89.84512099999999,-5.9205,-0.415412,0.20935399999999998,1.9999689999999999
884,113.588159,-10.803388,6.347753,-0.30933099999999997,0.763806,1.501244
886,-31.616692999999998,-40.344854,67.872129,-0.099977,0.29138600000000003,0.558724
888,63.050278000000006,-4.394598,33.142596000000005,0.060426,0.538582,0.368292
890,67.566949,-10.070953999999999,15.869383,0.031373000000000005,0.429572,0.905776
892,105.83657600000001,-30.395971999999997,3.356985,-0.10376099999999999,0.43653000000000003,1.187762
894,168.33753000000002,-25.757229000000002,-9.460594,-0.12903,0.377691,1.323018
896,210.940719,-0.854505,-20.141909,-0.150637,0.191897,1.365621
898,249.698634,27.344167,-21.667811,-0.211063,-0.033448,1.333272
900,283.207446,39.063096,-8.911269,-0.23865100000000003,-0.244144,1.19765
902,296.818494,30.884259999999998,6.71397,-0.073976,-0.325933,1.092668
904,292.301823,20.569162,5.0049589999999995,0.20508099999999999,-0.357794,1.0283360000000001
906,263.248646,46.570535,-23.193713,0.376959,-0.448859,1.089982
908,234.01236,64.209964,-48.82887,0.238529,-0.44605200000000006,1.4247040000000002
910,218.692302,58.655680000000004,-56.763560999999996,0.154788,-0.5097729999999999,1.9999689999999999
912,243.83917000000002,67.383841,-57.06874200000001,-0.024537,-0.699596,1.9999689999999999
914,249.45449,66.102083,-40.955215,-0.104128,-0.803845,1.962921
916,251.10246400000003,66.407263,-29.358358000000003,0.05651900000000001,-0.780529,1.9999689999999999
918,254.276341,70.313573,-30.701152,0.194705,-0.893935,1.7980009999999997
920,236.27069500000002,80.018311,-35.156786,0.292973,-1.0863200000000002,1.432761
922,201.480125,75.745785,-31.006332,0.24805100000000002,-1.41091,1.078508
924,142.824445,70.313573,-21.301595000000002,0.42090500000000003,-1.9499810000000002,0.819593
926,86.366064,91.920348,-30.884259999999998,0.45093500000000003,-2.0000310000000003,0.231449
928,-24.780652,25.818265,-1.464866,-0.13952799999999999,-2.0000310000000003,-2.0000310000000003
930,-232.730602,-188.662547,62.745098,0.8836799999999999,-2.0000310000000003,-0.163821
932,-125.795377,-96.803235,15.564201999999998,-0.18262,0.7900510000000001,1.9999689999999999
934,-251.77386099999998,-117.128252,48.52369,-0.026246,-0.147951,0.07727200000000001
936,-261.966888,-82.154574,58.472572,0.803845,-0.133547,1.9999689999999999
938,-132.326238,-7.629511,6.591897,0.8836799999999999,-0.188968,1.534447
940,-166.567483,-11.474784,27.100022999999997,-1.418112,-0.33264699999999997,1.9537650000000002
942,-40.894179,-99.183642,19.043259,1.27187,0.217166,1.9999689999999999
944,-48.157472999999996,-10.376135000000001,-2.624552,-0.552743,0.012695999999999999,1.12697
946,-19.165332,-38.513771000000006,-2.685588,0.375616,0.09472799999999999,1.2221870000000001
948,-17.94461,-13.794156,-2.4414439999999997,-0.046387,-0.051637,1.195453
950,-14.0383,-10.681315,-3.173877,0.026123,0.078859,0.96144
952,-12.573433999999999,-0.976577,0.183108,0.135744,-0.000366,1.093523
954,-15.625238000000001,13.916228,3.356985,0.055421000000000005,-0.001465,1.058
956,-10.315099,15.259022,4.21149,0.027466,-0.0043950000000000005,1.041032
958,-6.958114,16.296635000000002,3.1128400000000003,0.01355,0.010254000000000001,1.006607
960,-8.1178,12.817578,2.50248,-0.027832,0.026612,0.945327
962,-13.672084,7.873655,2.2583349999999998,0.003662,-0.010864,1.003433
964,-8.178836,7.446403,2.563516,0.001831,0.00293,0.9939120000000001
966,-9.948882000000001,6.103609,2.685588,-0.019409,0.008301000000000001,0.9643700000000001
968,-12.024109,2.929732,2.075227,-0.019165,-0.012329000000000001,1.0053860000000001
970,-9.704738,0.793469,1.525902,-0.021606999999999998,-0.003052,0.977798
972,-10.925460000000001,0.732433,-1.037613,0.037842,-0.255863,0.6887310000000001
974,-14.160372,-3.540093,1.525902,-0.007812999999999999,-0.023194,1.016861
976,-9.033341,-2.380407,1.40383,-0.002564,-0.030151999999999998,1.006485
978,-7.751583,-1.8310830000000002,1.70901,0.001221,-0.034913,1.011978
980,-6.469825,0.854505,0.0,0.129885,-0.070069,0.7269399999999999
982,-13.122759,-1.70901,1.8310830000000002,-0.0028079999999999997,-0.010376,0.938003
984,-14.770732999999998,-1.464866,1.8310830000000002,-0.015747,-0.005737,0.9591209999999999
986,-22.522316,-4.699779,2.014191,-0.022216999999999997,-0.024291999999999998,0.9911040000000001
988,-26.794842,-6.71397,1.40383,-0.005371,-0.022705,1.0236969999999999
990,-26.977951,-8.972305,0.366217,-0.001953,0.010254000000000001,0.992691
992,-38.391698999999996,-9.338521,-0.671397,-0.040162,-0.029419,0.9594870000000001
994,-43.762875,-8.484016,1.342794,-0.04004,-0.078981,1.007706
996,-40.283818,-4.943923000000001,4.394598,-0.028199000000000002,-0.10693499999999999,1.015152
998,-23.193713,-3.234913,4.943923000000001,0.04419,-0.15149200000000002,0.898817
1000,-38.635843,-7.2022580000000005,-7.568475,-0.041382,-0.073487,0.948623
1002,-52.307927,-9.155413000000001,-23.987182,0.013184,-0.119631,1.006729
1004,-55.603876,-2.929732,-10.437171000000001,0.08203300000000001,-0.23193699999999998,1.117693
1006,-40.466926,-4.5166699999999995,-10.315099,0.006226,-0.04419,1.021134
1008,-91.493095,-3.540093,-18.677042999999998,0.098268,0.19409500000000002,0.875135
1010,-188.23529399999998,-0.549325,-30.945296000000003,0.168826,0.309087,0.584482
1012,-479.43846799999994,-2.929732,-42.969406,0.02356,0.537972,1.21767
1014,-758.007172,-38.513771000000006,23.620966,0.16931400000000002,-0.22986199999999998,1.3770959999999999
1016,-995.559625,-111.879149,151.30846100000002,-1.204608,-1.888579,1.9999689999999999
1018,146.791791,-106.50797299999999,-0.976577,-0.615976,0.562631,1.9999689999999999
1020,36.926833,-41.138323,36.621653,-0.198123,0.839734,1.604883
1022,-0.427253,-15.197985999999998,61.46334,0.111818,0.322759,0.945327
1024,57.618067,12.268253999999999,18.432898,0.18701500000000001,0.5885100000000001,0.497932
1026,103.578241,-4.638743,-3.234913,0.12976300000000002,0.488899,1.0633709999999998
1028,148.98909,-35.400931,-13.733120000000001,0.032593000000000004,0.41528999999999994,1.20705
1030,205.508507,-33.020523,-27.954528000000003,-0.012329000000000001,0.319463,0.9434959999999999
1032,228.39704,-15.197985999999998,-35.706111,-0.152712,0.129519,1.011124
1034,254.64255699999998,-2.685588,-30.334936,-0.271855,0.016114,1.1728690000000002
1036,283.573663,7.6905470000000005,-18.616007,-0.235843,-0.070069,1.319966
1038,307.80499,12.207218,-14.526589000000001,-0.039307,-0.175174,1.332174
1040,303.105211,24.231327,-28.137635999999997,0.111696,-0.468025,0.743908
1042,247.37926299999998,49.256122999999995,-38.69688,0.123049,-0.406256,0.992691
1044,220.157168,49.988556,-49.561303,0.074952,-0.308354,1.903227
1046,231.87609700000002,76.96650600000001,-51.209277,0.004028,-0.43897200000000003,1.9999689999999999
1048,257.022965,73.975738,-40.527962,-0.079347,-0.722545,1.9999689999999999
1050,271.976806,70.313573,-30.395971999999997,0.008911,-0.8382700000000001,1.9999689999999999
1052,285.831998,77.57686700000001,-31.067369,0.23303600000000002,-0.964126,1.8933389999999999
1054,257.022965,84.657053,-41.931792,0.380133,-1.0981610000000002,1.509056
1056,224.85694700000002,89.051652,-44.983596999999996,0.28186500000000003,-1.405783,1.3550010000000001
1058,178.225376,79.89623900000001,-20.202945,0.146975,-1.9940490000000002,0.9423969999999999
1060,111.45189599999999,64.209964,-6.164645,0.6540630000000001,-2.0000310000000003,0.345586
1062,44.739452,56.092164000000004,-30.029754999999998,0.612558,-2.0000310000000003,-0.451301
1064,-114.381628,-97.169451,5.493248,0.043702,-2.0000310000000003,-1.176165
1066,-145.02174399999998,-114.86991699999999,20.996414,0.38172,-0.164431,1.9999689999999999
1068,-127.93163999999999,-54.810407,15.747310999999998,-0.588754,0.599741,-0.157961
1070,-348.27191600000003,-80.140383,63.660639,0.021851,-0.382208,1.411765
1072,-205.081254,10.131991000000001,36.865797,1.186664,-0.195682,1.9999689999999999
1074,-189.150835,-2.319371,16.662851999999997,-0.9602200000000001,-0.36463,1.9999689999999999
1076,-25.513085,-93.995575,29.541465999999996,0.192874,0.285161,1.251118
1078,-53.04036,-15.747310999999998,11.413748,0.039185000000000005,-0.10803399999999999,1.6423590000000001
1080,-32.776379,-44.068055,10.925460000000001,0.348028,0.146609,1.2293889999999998
1082,-33.325703999999995,-6.408789,-0.122072,-0.178225,-0.071046,1.061418
1084,-22.644388,-0.793469,3.051804,0.10351700000000001,-0.004273,1.167864
1086,-13.794156,2.868696,4.882887,0.05005,0.041505,1.051896
1088,-15.503166,8.1178,4.882887,-0.045411,0.028564999999999997,1.0202790000000002
1090,-11.413748,12.32929,4.150454,-0.010254000000000001,0.031127999999999996,1.019303
1092,-13.733120000000001,14.770732999999998,4.577707,-0.027710000000000002,0.025391,1.0208899999999999
1094,-12.085144999999999,18.493935,5.127031,-0.008911,-0.016358,1.056657
1096,-10.070953999999999,18.371862,5.554284,-0.044312,0.020874,0.996719
1098,-10.498207,13.000687,4.882887,-0.088624,0.020996,0.952285
1100,-9.887846000000001,8.789197,3.418021,-0.07324299999999999,0.014527000000000002,1.012589
1102,-8.178836,7.751583,2.380407,-0.05139199999999999,-0.011840999999999999,1.006485
1104,-8.1178,6.103609,2.50248,-0.095705,-0.01001,0.972305
1106,-5.554284,2.136263,2.197299,-0.088014,-0.002075,0.976699
1108,-7.751583,-4.21149,1.342794,-0.096803,-0.001221,0.9542379999999999
1110,-7.385367,-8.667124000000001,0.976577,-0.07776,-0.005615,0.9636379999999999
1112,-12.085144999999999,-12.573433999999999,1.342794,-0.109499,0.003906,0.929702
1114,-16.235599,-16.906996,-1.037613,0.045288999999999996,-0.041016000000000004,0.9939120000000001
1116,-17.395285,-22.766461,-0.244144,-0.043458,-0.030396,0.9602200000000001
1118,-10.681315,-22.644388,-2.563516,-0.093751,-0.001465,1.068986
1120,-11.352712,-21.911955,-1.70901,-0.010131999999999999,-0.026123,1.048722
1122,-17.94461,-14.648660999999999,0.671397,0.036255,-0.028808999999999998,1.058732
1124,-17.700464999999998,-8.42298,1.7700470000000001,-0.012695999999999999,-0.004273,0.959609
1126,-28.747996999999998,-12.451362,2.2583349999999998,-0.041627,-0.005737,0.96083
1128,-35.339895,-14.892805,2.868696,-0.0094,-0.062135,0.999649
1130,-37.170977,-12.207218,5.249104,-0.005615,-0.06775,1.014664
1132,-34.180209000000005,-12.695506,1.525902,-0.052613,-0.039550999999999996,0.960586
1134,-51.209277,-17.517357,-1.159686,-0.007935,-0.056641,0.9837799999999999
1136,-41.382467,-18.310826000000002,-6.042573,0.015869,-0.118654,0.968643
1138,-40.344854,-13.305867000000001,-3.845274,-0.034424,-0.12854200000000002,1.019791
1140,-44.3122,-10.193027,-5.371176,-0.01294,-0.083131,1.033829
1142,-59.75433,-15.564201999999998,-18.432898,-0.035889,-0.1178,1.2082700000000002
1144,-34.79057,-2.197299,0.793469,0.010131999999999999,-0.136599,1.059709
1146,-60.18158199999999,-3.1128400000000003,-15.747310999999998,0.011597,0.159426,0.90602
1148,-123.598077,2.50248,-14.404517000000002,0.025025,0.27808,0.762097
1150,-237.674525,-19.226368,-51.697565999999995,-0.168826,0.446296,1.3473110000000001
1152,-628.915847,-21.850919,7.812619000000001,-0.255863,0.375372,1.796658
1154,-798.962387,-70.801862,26.123445,-0.091188,-0.193973,0.91664
1156,-730.2357519999999,-43.823910999999995,156.43549199999998,-1.7245139999999999,-1.380026,1.9999689999999999
1158,373.357748,-16.418708,23.743038000000002,-1.083879,0.882338,1.9999689999999999
1160,3.295949,-25.574120999999998,112.79468999999999,-0.468757,0.462898,0.014771000000000001
1162,52.552071,-6.836042,98.45120899999999,0.061158000000000004,0.284672,0.20947600000000002
1164,15.503166,5.9205,67.872129,0.36585,0.499641,0.6048680000000001
1166,83.802548,-3.295949,29.053178000000003,0.380377,0.613779,0.9403219999999999
1168,126.039521,-47.058824,2.380407,0.23352399999999998,0.547982,1.524681
1170,207.156481,-52.857252,-26.977951,0.143801,0.43201300000000004,1.741482
1172,270.878157,-24.048219,-50.171664,-0.038209,0.09509400000000001,1.249042
1174,289.005875,-15.13695,-52.918288000000004,-0.157717,-0.11499200000000001,1.077287
1176,308.720531,-24.048219,-49.561303,-0.099123,-0.178225,1.176898
1178,312.748913,-8.239872,-60.425727,0.072755,-0.333257,0.9037
1180,263.73693399999996,40.039673,-82.276646,0.174929,-0.458625,0.36340900000000004
1182,199.282826,43.091478,-96.375982,0.028443,-0.322637,1.757107
1184,228.82429199999999,74.464027,-103.089952,-0.098146,-0.49427,1.9999689999999999
1186,277.89730699999996,118.043793,-88.50232700000001,-0.339971,-0.9004040000000001,1.644312
1188,230.655375,105.592432,-41.80972,-0.383185,-1.052873,1.9999689999999999
1190,253.48287200000001,111.69604,-12.085144999999999,-0.154665,-1.021988,1.9999689999999999
1192,277.714199,112.428473,-0.854505,0.468757,-1.0486,1.6446779999999999
1194,241.45876299999998,71.961547,-7.263294,0.6258640000000001,-1.197894,1.419944
1196,210.26932200000002,42.847333,-17.94461,0.263676,-1.6748299999999998,1.151751
1198,146.913863,35.523003,-15.564201999999998,0.499641,-2.0000310000000003,0.569345
1200,68.604562,65.125505,-58.167391,0.9275040000000001,-2.0000310000000003,-0.281376
1202,-135.07286200000001,-112.24536499999999,12.207218,0.074464,-2.0000310000000003,-1.3857629999999999
1204,-111.26878799999999,-169.74136000000001,41.321431,0.802747,0.218387,1.9999689999999999
1206,-158.205539,-70.801862,40.039673,-0.0636,0.924208,-0.202518
1208,-317.326619,-52.613108,45.777066,0.15698499999999999,-0.49292700000000006,1.2748
1210,-233.768215,1.7700470000000001,27.405203000000004,0.956435,-0.506844,1.9999689999999999
1212,-165.52987,-37.476158,36.987869,-1.238544,-0.806287,1.580957
1214,-58.716716000000005,-87.098497,19.531548,1.616236,0.249516,1.9999689999999999
1216,-42.664225,-13.366903,0.549325,-0.772961,-0.108278,0.960586
1218,-32.043946000000005,-20.935378,-5.188067,0.36548400000000003,0.030639999999999997,1.246357
1220,-15.564201999999998,-17.273213000000002,-1.525902,0.072877,-0.009766,1.103532
1222,-11.413748,-1.159686,1.40383,-0.043458,-0.042602999999999995,1.10988
1224,-0.48828900000000003,0.976577,1.8921189999999999,0.026368,-0.003662,1.056168
1226,5.371176,0.366217,2.319371,0.005982,0.026612,0.988418
1228,0.183108,-0.793469,2.4414439999999997,-0.021851,0.031127999999999996,0.969009
1230,-6.225681,-5.981537,1.8310830000000002,-0.042115,0.06579700000000001,0.8997940000000001
1232,-9.887846000000001,-10.925460000000001,2.380407,-0.05139199999999999,0.036011,0.9796290000000001
1234,-10.498207,-15.442129999999999,3.234913,0.014771000000000001,0.032958999999999995,1.056657
1236,-8.178836,-12.32929,1.525902,0.023681999999999998,0.019653999999999998,0.991714
1238,-9.582666,-7.141222,-2.075227,0.029664,-0.176028,0.6952010000000001
1240,-17.395285,-7.507439,1.7700470000000001,0.028931000000000002,0.010742,1.019425
1242,-11.718929,-3.418021,2.014191,0.022705,-0.009276999999999999,1.019303
1244,-11.291675999999999,-3.784237,1.70901,-0.000732,-0.041749,0.9751129999999999
1246,-8.361944,-4.638743,1.342794,-0.005615,0.025635,0.9588770000000001
1248,-15.320058,-9.399557000000001,0.671397,0.0028079999999999997,0.039918,0.926894
1250,-23.071641,-10.193027,1.40383,0.040284,0.0015869999999999999,1.023331
1252,-22.400244,-7.751583,2.2583349999999998,0.046021,-0.020996,1.014908
1254,-20.874342000000002,-3.845274,3.356985,0.04358,-0.032593000000000004,1.007584
1256,-20.935378,-1.159686,3.6621650000000003,0.041382,-0.051637,1.00441
1258,-23.254749,0.122072,4.028382,0.039673,-0.028076999999999998,0.9824370000000001
1260,-27.100022999999997,-0.183108,3.1128400000000003,0.0094,-0.039307,1.000381
1262,-28.747996999999998,-1.8921189999999999,2.2583349999999998,-0.009766,-0.028076999999999998,0.9626610000000001
1264,-34.851606,-4.333562000000001,2.990768,0.013793999999999999,-0.06067,0.981827
1266,-31.067369,-2.624552,3.723201,0.059204999999999994,-0.036744,0.960464
1268,-46.509499,-5.554284,3.90631,0.088624,-0.033814,1.121843
1270,-44.373236,-2.380407,-2.197299,0.028076999999999998,-0.07849199999999999,1.0085600000000001
1272,-45.044633000000005,-2.990768,-5.554284,-0.015381,-0.110231,1.001358
1274,-38.513771000000006,-2.380407,-16.174563,-0.042847,-0.02356,1.0714270000000001
1276,-61.829556999999994,-4.333562000000001,-18.921187,0.132692,-0.286625,1.0876629999999998
1278,-48.767834,5.188067,-13.855192,0.06006,0.185306,0.901869
1280,-145.51003300000002,21.179522,-18.005646,0.10656900000000001,0.23071599999999998,0.710704
1282,-233.03578199999998,-14.587625,-17.334249,-0.027955,0.668345,0.688487
1284,-605.722133,-75.989929,31.982909999999997,-0.6086520000000001,0.198489,1.9999689999999999
1286,-770.51957,-151.674678,55.725947999999995,0.138308,-0.171023,1.0526280000000001
1288,-788.586252,-79.346914,184.939345,-1.092912,-1.060929,1.9999689999999999
1290,319.890135,15.014878,15.564201999999998,-0.647837,0.905043,1.9999689999999999
1292,-3.6011290000000002,-18.005646,80.689708,-0.354986,0.562142,0.567391
1294,98.08499300000001,-12.32929,54.505226,0.21423699999999998,0.369879,0.056152999999999995
1296,28.442816999999998,4.21149,22.1561,0.409064,0.45264399999999994,0.42358999999999997
1298,81.971466,5.493248,-19.65362,0.17773699999999998,0.52015,0.820081
1300,129.579614,-22.095064,-32.776379,-0.022705,0.404303,1.2340280000000001
1302,184.267948,-20.386053,-36.865797,-0.176516,0.238529,1.344747
1304,233.09681899999998,0.0,-31.677729,-0.33862800000000004,-0.018921,1.192401
1306,257.145037,9.52163,-13.183795000000002,-0.36878,-0.207279,1.224018
1308,281.92568900000003,11.718929,3.418021,-0.225345,-0.26208899999999996,1.304463
1310,292.057679,22.766461,4.333562000000001,0.030151999999999998,-0.35242199999999996,1.190936
1312,274.601358,36.987869,-8.667124000000001,0.19031099999999998,-0.5511560000000001,0.894057
1314,235.111009,52.796216,-27.344167,0.24048200000000003,-0.492683,1.0874190000000001
1316,199.038682,61.524376000000004,-43.21355,0.14844000000000002,-0.490242,1.953155
1318,225.833524,58.3505,-48.584726,0.149172,-0.686778,1.9999689999999999
1320,235.84344199999998,57.49599499999999,-62.806134,0.18579400000000001,-0.781994,1.8496380000000001
1322,233.707179,60.975052000000005,-74.158846,0.12378099999999999,-0.83473,1.9999689999999999
1324,238.773175,75.379568,-84.351873,0.27563899999999997,-0.831312,1.53518
1326,216.128786,77.332723,-86.243992,0.27576100000000003,-0.846082,1.385153
1328,201.358053,60.486763,-67.322805,0.093019,-1.016617,1.338277
1330,179.324025,41.199359,-35.400931,0.034424,-1.317769,0.929213
1332,125.673304,37.537194,-7.141222,0.113283,-1.896025,0.7878539999999999
1334,76.478218,55.725947999999995,14.160372,0.298711,-2.0000310000000003,0.224369
1336,-15.381094000000001,39.551384999999996,40.161746,0.014649,-2.0000310000000003,-2.0000310000000003
1338,-248.477913,-164.370184,86.549172,1.091569,-1.211933,0.711559
1340,-124.391547,-54.20004599999999,30.640116,-0.065675,1.462547,1.991852
1342,-273.44167200000004,-101.25886899999999,40.588998,0.223514,-0.537484,0.234134
1344,-284.000916,-55.970092,36.1944,1.001846,-0.130495,1.9999689999999999
1346,-181.21614399999999,-53.101395999999994,25.024796,-0.660044,-0.781384,1.9999689999999999
1348,-17.273213000000002,-54.749371,6.897078,0.985245,0.06286699999999999,1.852934
1350,-48.82887,-5.371176,6.591897,-0.353155,0.056641,0.9143209999999999
1352,-22.583351999999998,-16.84596,-2.80766,0.202029,0.102052,1.1346610000000001
1354,-8.42298,-13.611048,-3.1128400000000003,0.015259,-0.002564,1.124041
1356,-14.892805,-7.141222,0.671397,0.013062,-0.016358,1.086198
1358,-2.2583349999999998,-3.967346,3.540093,0.014771000000000001,0.052979,0.991836
1360,-4.394598,-2.80766,4.028382,-0.001221,0.05285700000000001,0.9868309999999999
1362,-8.545052,-3.845274,3.418021,0.009033,0.056275,0.9587549999999999
1364,-15.930419,-6.225681,2.685588,-0.0051270000000000005,0.045045,0.9941559999999999
1366,-13.977264000000002,-8.606088,1.8921189999999999,-0.0028079999999999997,0.015869,0.95729
1368,-13.183795000000002,-11.963073,3.479057,0.023804,0.073365,0.9156629999999999
1370,-15.442129999999999,-12.756542,0.9155409999999999,0.031617,-0.0051270000000000005,1.054582
1372,-13.977264000000002,-10.193027,1.09865,-0.001221,0.018311,0.9973299999999999
1374,-15.197985999999998,-7.568475,-1.281758,-0.016358,-0.132448,0.9643700000000001
1376,-16.968032,-5.859464,1.8310830000000002,0.014893,-0.01001,1.024063
1378,-16.723888,-6.347753,1.037613,0.00293,0.001099,0.9698629999999999
1380,-18.005646,-8.667124000000001,0.427253,0.017823,-0.008911,1.011734
1382,-17.639429,-7.080186,0.732433,0.051148,-0.036988,1.028824
1384,-16.235599,-2.868696,1.342794,0.03003,-0.037842,1.028214
1386,-16.418708,-0.244144,1.647974,0.023438,-0.038819,0.9990389999999999
1388,-19.165332,0.244144,2.4414439999999997,0.014159999999999999,-0.012573,0.9506979999999999
1390,-23.071641,-0.48828900000000003,2.50248,0.036744,-0.032958999999999995,1.0091709999999998
1392,-25.146867999999998,1.281758,2.380407,0.015137000000000001,-0.068971,1.017472
1394,-23.86511,-0.793469,1.342794,0.016236,-0.058838999999999995,1.0156399999999999
1396,-23.498894,-1.2207219999999999,-0.244144,0.032837,-0.052247,1.0129549999999998
1398,-24.109254999999997,0.793469,1.342794,0.020874,-0.028443,0.9167620000000001
1400,-38.513771000000006,2.075227,9.399557000000001,0.068971,-0.091188,1.093889
1402,-33.997101,7.446403,10.193027,0.021973,-0.066285,0.967666
1404,-37.659265999999995,6.530861,7.629511,-0.020263999999999997,-0.061769000000000004,0.996475
1406,-25.574120999999998,5.859464,2.014191,-0.086427,0.035279000000000005,1.091691
1408,-58.838788,-9.094377,-31.311513,-0.013793999999999999,-0.066285,0.972549
1410,-63.233387,0.0,-3.845274,0.111452,-0.24365599999999998,1.159319
1412,-45.777066,-0.061036,-23.987182,0.069215,0.17554,0.979141
1414,-152.224002,12.207218,-26.489662,-0.052003,0.424567,0.538582
1416,-307.438773,-13.427939000000002,-6.591897,0.018189,1.228046,1.294942
1418,-740.062562,-87.403677,95.643549,-0.46948999999999996,0.041627,1.480858
1420,-883.375296,-170.412757,104.066529,1.0985280000000002,-2.0000310000000003,1.9999689999999999
1422,202.212558,6.836042,-74.64713499999999,0.11108599999999999,0.458747,1.9999689999999999
1424,154.970626,35.950256,-119.63073200000001,-0.569955,1.263569,0.37158800000000003
1426,-91.126879,-55.237658999999994,2.075227,-0.359747,0.311528,0.443488
1428,74.158846,-22.827497,-20.263981,-0.26453000000000004,0.505867,0.612436
1430,61.036088,-4.5166699999999995,-12.390326,-0.29077600000000003,0.377569,0.9222549999999999
1432,110.780499,-2.868696,-3.784237,-0.393683,0.37903400000000004,0.905531
1434,159.30418899999998,-1.525902,9.704738,-0.305425,0.299199,1.061784
1436,192.75196499999998,17.090104999999998,17.395285,-0.23376799999999998,0.16907,1.126116
1438,227.237354,32.654307,22.888533,-0.108278,0.015991,0.9743799999999999
1440,243.961242,32.837415,22.095064,0.068116,-0.013306,1.148577
1442,265.690089,32.776379,11.047532,0.203128,-0.112428,1.291279
1444,269.657435,35.034714,-6.530861,0.276738,-0.354864,0.785412
1446,225.58937999999998,40.039673,-27.588312,0.326177,-0.274052,0.9510639999999999
1448,194.827192,47.119859999999996,-50.965133,0.341924,-0.124636,1.9999689999999999
1450,232.30334900000003,52.979324,-71.961547,0.170779,-0.465217,1.9999689999999999
1452,237.18623599999998,54.20004599999999,-79.89623900000001,-0.006714,-0.678477,1.8022740000000002
1454,234.62272099999998,49.866484,-74.769207,-0.11499200000000001,-0.741222,1.9999689999999999
1456,264.957656,66.407263,-66.529335,-0.149172,-0.8305790000000001,1.859648
1458,242.43534,80.689708,-51.087205,-0.082277,-0.846937,1.48098
1460,217.288472,91.676204,-39.00206,0.109133,-0.865492,1.571923
1462,192.50782,96.742199,-26.367590000000003,0.10815599999999999,-1.282246,1.3205770000000001
1464,144.960708,94.605936,10.620279,0.133425,-2.0000310000000003,0.9184709999999999
1466,86.610208,108.644236,14.770732999999998,0.506355,-2.0000310000000003,-0.08923500000000001
1468,-14.709697,35.156786,37.964446,0.036988,-2.0000310000000003,-1.156023
1470,-271.122301,-217.959869,81.300069,1.120378,-1.649561,0.100832
1472,-117.128252,-73.853666,33.264668,-0.20556999999999997,1.05275,1.9999689999999999
1474,-283.207446,-92.10345600000001,54.322118,0.41651000000000005,-0.180545,-0.11389300000000001
1476,-296.69642200000004,-45.716029999999996,50.2327,1.14406,-0.119875,1.9999689999999999
1478,-159.18211599999998,58.777752,-1.8310830000000002,-0.276127,0.11499200000000001,1.9999689999999999
1480,-139.406424,-54.261081999999995,45.960174,-1.202045,-0.926894,1.574243
1482,-56.031128,-53.77279300000001,18.371862,1.865995,0.12219400000000001,1.9999689999999999
1484,-34.79057,-17.883574,8.850233,-0.770031,-0.105959,0.76527
1486,-27.588312,-6.2867169999999994,-2.868696,0.114504,0.017945,1.164691
1488,-17.273213000000002,-21.179522,0.671397,0.19677999999999998,-0.004517,1.173846
1490,-12.268253999999999,-4.8218510000000006,2.990768,-0.129641,0.010254000000000001,0.988418
1492,-11.902037,-3.173877,2.380407,-0.010131999999999999,0.035889,1.026505
1494,-9.582666,-1.7700470000000001,1.8921189999999999,0.020874,0.018555000000000002,1.0401770000000001
1496,-10.193027,0.061036,2.2583349999999998,-0.015747,0.029664,0.989883
1498,-12.756542,-2.868696,2.197299,-0.04065,0.021606999999999998,0.9871979999999999
1500,-12.939651,-6.103609,1.525902,-0.061402,0.021363,0.960342
1502,-10.376135000000001,-7.263294,-0.6103609999999999,-0.020874,0.008911,0.9583889999999999
1504,-14.831769,-9.338521,0.366217,-0.001221,0.010742,1.009781
1506,-17.639429,-7.080186,1.342794,-0.042359,0.018067,1.135271
1508,-14.831769,-2.929732,2.380407,0.025025,-0.021851,0.993423
1510,-10.315099,0.30518,2.075227,-0.014038,-0.002686,0.9948879999999999
1512,-11.718929,-1.09865,2.136263,-0.04065,-0.006592,0.9871979999999999
1514,-10.803388,-4.272526,1.525902,-0.037476,-0.023681999999999998,1.002945
1516,-6.836042,-10.254063,0.48828900000000003,0.048707,0.079347,0.876967
1518,-9.277485,-8.667124000000001,-0.427253,-0.0074459999999999995,-0.023681999999999998,1.0390780000000002
1520,-9.094377,-8.361944,0.0,0.010498,-0.023438,1.000992
1522,-7.812619000000001,-7.873655,0.48828900000000003,0.01709,-0.052979,1.006485
1524,-4.8218510000000006,-3.1128400000000003,1.647974,-0.015747,-0.003296,1.101335
1526,-14.404517000000002,-3.723201,2.746624,0.000488,-0.014649,0.971817
1528,-20.080873,-4.8218510000000006,2.685588,-0.022095,-0.019776,0.9944
1530,-23.193713,-6.897078,2.014191,-0.008179,-0.042969,0.9668120000000001
1532,-27.527276,-8.239872,1.70901,0.003296,-0.068238,1.023209
1534,-24.231327,-4.882887,2.014191,0.014527000000000002,-0.048341,1.006241
1536,-30.762188000000002,-2.075227,4.028382,0.0177,-0.063111,1.006485
1538,-32.288090000000004,-4.028382,2.136263,0.01001,-0.032471,0.958145
1540,-39.551384999999996,-7.751583,-0.671397,-0.0063479999999999995,-0.052979,1.005997
1542,-35.156786,-5.127031,1.342794,0.03418,0.012818000000000001,1.06154
1544,-40.894179,1.159686,-17.456321,0.066896,-0.366705,0.750744
1546,-56.641489,0.0,-5.493248,0.093141,-0.19531500000000002,1.075212
1548,-56.702525,-3.051804,-11.902037,0.055421000000000005,-0.010986,0.999771
1550,-116.21271100000001,-5.432212,-24.902724,0.044923000000000005,0.23108299999999998,0.9544819999999999
1552,-206.118868,-4.943923000000001,-34.912642,0.059327,0.252201,0.7900510000000001
1554,-511.726558,-22.888533,-13.244831,-0.174441,0.404059,1.306783
1556,-732.616159,-104.798962,51.819638,-0.033936,-0.355596,1.490867
1558,-896.25391,-187.19768100000002,91.676204,0.647349,-2.0000310000000003,1.9999689999999999
1560,61.524376000000004,-85.08430600000001,-29.602502,-0.20691199999999998,0.06884900000000001,1.9999689999999999
1562,165.34676100000001,40.588998,-33.203632,-0.32556599999999997,0.8057979999999999,1.659327
1564,42.542153000000006,14.770732999999998,30.212863,-0.234623,0.091188,0.220218
1566,86.915389,15.320058,26.367590000000003,-0.029907999999999997,0.34729499999999996,0.058106
1568,98.146029,4.760815,15.686275,0.140749,0.380865,0.5872890000000001
1570,120.424201,-6.836042,-3.234913,0.11548,0.40528000000000003,0.9163959999999999
1572,169.37514299999998,-4.577707,-20.874342000000002,0.064942,0.352056,1.220356
1574,213.443198,3.1128400000000003,-27.283131,-0.139651,0.130129,1.4458229999999999
1576,263.126574,15.075914000000001,-19.34844,-0.255253,-0.096193,1.4693829999999999
1578,300.968948,25.452049,-4.272526,-0.17615,-0.224613,1.479149
1580,324.95613,27.100022999999997,0.0,0.101076,-0.364874,1.239765
1582,299.870298,56.641489,-26.367590000000003,0.47363999999999995,-0.670054,0.341192
1584,211.062791,67.261769,-52.918288000000004,0.370001,-0.481575,0.886122
1586,198.245212,41.565576,-73.12123299999999,0.19677999999999998,-0.34876,1.9999689999999999
1588,242.31326800000002,78.919661,-83.61944,-0.001953,-0.764782,1.9999689999999999
1590,237.49141699999998,92.77485300000001,-66.529335,-0.194827,-0.882704,1.9999689999999999
1592,280.155642,80.933852,-45.471885,0.137453,-0.985977,1.9999689999999999
1594,264.835584,100.70954499999999,-46.387427,0.599252,-0.899062,1.360983
1596,238.956283,69.764248,-50.659953,0.42761899999999997,-1.0199129999999998,1.448631
1598,206.301976,48.035401,-41.748684000000004,-0.084962,-1.44741,1.113664
1600,149.172198,69.58114,-21.545739,0.053834,-2.0000310000000003,0.9715719999999999
1602,103.212024,125.06294299999999,-20.202945,0.22241599999999997,-2.0000310000000003,-0.096803
1604,-86.12191999999999,-18.982223,59.510185,-0.026733999999999997,-2.0000310000000003,-1.99649
1606,-200.381476,-179.995422,65.308614,1.245624,-0.930434,1.213642
1608,-106.446937,-125.12398,15.869383,-0.46167700000000006,1.0251620000000001,1.9999689999999999
1610,-262.02792400000004,-107.606622,61.46334,0.0021969999999999997,-0.41895200000000005,-0.22803099999999998
1612,-275.45586299999997,-88.197147,63.233387,1.228534,-0.108644,1.9999689999999999
1614,-133.180743,-0.427253,-1.342794,0.028199000000000002,-0.164553,1.337911
1616,-104.310674,-100.4654,39.368276,-0.128298,-0.39697899999999997,1.9999689999999999
1618,-50.2327,-11.413748,6.836042,0.45361999999999997,0.172,1.525292
1620,-55.725947999999995,-31.128404999999997,10.864424,0.024291999999999998,0.031738999999999996,1.227924
1622,-32.654307,-12.207218,0.732433,-0.13257,-0.055421000000000005,1.07924
1624,-10.864424,-18.005646,-2.685588,0.10815599999999999,0.08105599999999999,0.992691
1626,-24.109254999999997,-8.728161,0.0,0.035401,-0.08105599999999999,1.120623
1628,-18.127717999999998,-0.244144,2.136263,0.010254000000000001,-0.025757,1.019791
1630,-10.925460000000001,0.122072,1.40383,0.034302,-0.02295,1.0167389999999998
1632,-11.413748,0.30518,1.342794,0.022827,-0.007568000000000001,0.9941559999999999
1634,-15.442129999999999,0.6103609999999999,1.342794,-0.023681999999999998,-0.00293,0.975723
1636,-16.296635000000002,-1.8921189999999999,1.40383,0.008545,-0.062379,0.9752350000000001
1638,-13.061722999999999,-2.014191,1.037613,0.014649,-0.029541,1.002945
1640,-13.122759,-1.464866,0.976577,0.026001,-0.052735000000000004,1.030411
1642,-12.268253999999999,0.6103609999999999,1.159686,0.023681999999999998,-0.046387,1.018326
1644,-12.085144999999999,0.671397,0.854505,0.009888,-0.044068,0.9873200000000001
1646,-12.024109,0.30518,0.732433,0.004273,-0.055542999999999995,0.9984280000000001
1648,-10.376135000000001,0.061036,0.793469,0.016846,-0.067384,1.010391
1650,-6.897078,-0.6103609999999999,0.549325,0.016236,-0.07800399999999999,1.0483559999999998
1652,0.671397,-0.427253,-0.183108,0.005371,-0.062623,0.988418
1654,-2.80766,-3.723201,0.0,-0.005615,-0.050172,0.97145
1656,-5.0049589999999995,-4.882887,-0.122072,0.031738999999999996,-0.059815,1.017838
1658,-4.455634,-2.197299,0.732433,0.033204000000000004,-0.06286699999999999,1.012467
1660,-3.784237,-0.244144,1.2207219999999999,0.021851,-0.073121,1.030289
1662,-2.868696,0.793469,1.40383,0.014771000000000001,-0.066163,1.0095370000000001
1664,-2.868696,0.30518,1.342794,0.0037840000000000005,-0.025635,0.9511860000000001
1666,-11.169604,-1.037613,1.159686,0.017578,-0.057984,1.008316
1668,-12.878614,-0.48828900000000003,1.342794,0.022338999999999998,-0.07190099999999999,1.005631
1670,-11.169604,0.183108,2.014191,0.019532,-0.071046,1.010269
1672,-9.643702000000001,0.48828900000000003,1.2207219999999999,-0.001343,-0.08447400000000001,1.015763
1674,-7.324331,-1.464866,-1.037613,0.0070799999999999995,-0.077882,1.009903
1676,-7.01915,-2.197299,-2.929732,0.018921,-0.069459,0.985245
1678,-15.930419,-0.732433,-1.2207219999999999,0.026368,-0.07946900000000001,0.9950100000000001
1680,-16.906996,0.6103609999999999,-0.122072,0.00293,-0.034058,0.950576
1682,-31.982909999999997,2.50248,3.540093,0.02295,-0.1084,1.01857
1684,-29.358358000000003,6.897078,5.7984279999999995,0.025879000000000003,-0.093141,1.033951
1686,-23.743038000000002,10.559242999999999,4.394598,0.031006,-0.066773,1.01088
1688,-17.395285,15.442129999999999,-2.380407,-0.083619,0.018067,0.9344629999999999
1690,-45.716029999999996,-7.080186,-28.381781,-0.108644,-0.203006,0.945449
1692,-53.04036,-12.146181,-26.733806,0.083009,-0.074952,0.9344629999999999
1694,-93.44625,-4.8218510000000006,-27.893492,0.107912,-0.012206999999999999,0.899184
1696,-152.834363,5.188067,-20.630198,0.068482,-0.191653,0.980972
1698,-219.119554,-7.446403,-23.559929999999998,0.043458,-0.15491,1.235248
1700,-299.137865,-32.227053999999995,1.159686,-0.18677,-0.291508,1.0842450000000001
1702,-351.14061200000003,-102.84580799999999,11.596857,-0.11902,-0.273075,1.0520180000000001
1704,-322.758831,-121.15663400000001,31.860838,0.082277,0.040284,1.9999689999999999
1706,-54.688334,-45.532921,7.934691,-0.11194000000000001,-0.239506,1.9999689999999999
1708,116.273747,35.278859000000004,-30.884259999999998,-0.276616,0.310674,0.547127
1710,65.918975,19.65362,2.685588,-0.29333899999999996,0.045288999999999996,0.64918
1712,80.81178,7.934691,3.234913,-0.135622,0.227787,1.12697
1714,159.243153,26.611734000000002,-8.850233,-0.093019,0.196414,1.053483
1716,178.957809,44.678416,-9.887846000000001,-0.17260999999999999,-0.042237000000000004,0.685679
1718,187.258717,42.603189,0.48828900000000003,-0.171756,-0.116701,0.7523310000000001
1720,203.494316,42.175937,13.183795000000002,-0.11120799999999999,-0.10693499999999999,1.329122
1722,250.980392,50.843061,24.780652,-0.036744,-0.338384,1.2677200000000002
1724,254.337377,67.627985,33.813992999999996,0.051759000000000006,-0.606332,0.6421
1726,220.035096,69.947356,42.90837,0.133425,-0.737682,0.849989
1728,199.649043,43.945983,51.209277,0.267338,-0.8653700000000001,1.230365
1730,196.047913,27.771420000000003,40.40589,0.362554,-0.82826,0.867323
1732,148.195621,5.432212,34.668498,0.074098,-0.8481569999999999,0.597787
1734,90.63859000000001,-38.941024,38.025483,-0.06958099999999999,-0.725109,0.178347
1736,-310.856794,-69.398032,84.473945,0.00415,-2.0000310000000003,-2.0000310000000003
1738,71.900511,-41.565576,80.872816,0.12487999999999999,-2.0000310000000003,1.9999689999999999
1740,246.280613,66.346227,-193.484398,-0.294072,0.98793,-0.851331
1742,-336.98024,-68.36041800000001,150.514992,-0.009522,0.816785,0.881727
1744,104.615854,25.696193,-22.888533,-0.34375500000000003,-0.404913,1.506126
1746,-64.393072,-3.845274,13.855192,0.22034,0.181277,0.724376
1748,-21.728847000000002,-5.065995,0.183108,-0.076661,-0.053467999999999995,0.997086
1750,-13.427939000000002,-9.338521,-2.380407,-0.036988,-0.0058590000000000005,0.980972
1752,-8.239872,-6.652933999999999,-1.2207219999999999,0.023681999999999998,-0.032715,1.057145
1754,-8.178836,-6.164645,-0.366217,0.011719,-0.0023190000000000003,1.0129549999999998
1756,-3.90631,-4.638743,0.366217,0.033692,-0.017212,1.038346
1758,-1.342794,-1.09865,0.48828900000000003,0.027710000000000002,-0.014771000000000001,1.030167
1760,-0.061036,1.09865,0.183108,0.016724,-0.004883,1.006241
1762,2.136263,2.319371,-0.244144,0.018433,-0.022583000000000002,1.022721
1764,4.760815,3.479057,-0.122072,0.005005,-0.005737,0.991836
1766,4.333562000000001,2.990768,0.0,0.000977,-0.0021969999999999997,1.0031889999999999
1768,3.90631,1.8921189999999999,-0.30518,-0.001953,-0.004517,1.00209
1770,5.371176,1.342794,-0.854505,0.005615,0.001709,0.9903719999999999
1772,4.699779,1.464866,-0.854505,0.014893,0.0051270000000000005,0.9991610000000001
1774,4.8218510000000006,3.6621650000000003,-0.122072,0.018311,0.001343,1.005509
1776,5.065995,5.7984279999999995,0.427253,0.0094,0.007812999999999999,0.999893
1778,4.394598,5.432212,0.427253,-0.011597,0.010254000000000001,0.989883
1780,4.577707,1.525902,0.0,-0.022827,0.016358,0.970108
1782,3.173877,-2.685588,-0.6103609999999999,-0.019043,0.020508000000000002,0.96791
1784,1.09865,-4.272526,-0.48828900000000003,0.004517,0.014038,0.985733
1786,0.30518,-2.197299,0.0,0.016724,0.007324,1.021866
1788,2.197299,1.40383,0.671397,0.006836,0.002441,1.003067
1790,5.188067,-0.854505,0.0,-0.047974,0.015259,0.962173
1792,-0.671397,-3.051804,-0.30518,0.016236,0.0058590000000000005,1.020035
1794,2.014191,-3.845274,0.976577,0.005493,0.026001,0.965225
1796,2.197299,-5.0049589999999995,0.854505,0.0070799999999999995,0.031127999999999996,0.958267
1798,-5.859464,-6.530861,0.0,-0.016236,0.034302,0.9510639999999999
1800,-7.2022580000000005,-10.925460000000001,-1.70901,-0.005249,-0.013672,1.036027
1802,-2.50248,-5.127031,-0.427253,0.100587,-0.032349,1.09865
1804,1.70901,1.09865,1.342794,-0.027587999999999998,0.061890999999999995,0.8999159999999999
1806,-4.455634,-9.277485,-1.7700470000000001,-0.002564,0.011963,1.020157
1808,2.624552,-4.21149,-1.40383,0.048829000000000004,0.015991,0.9941559999999999
1810,-6.2867169999999994,-4.028382,-0.854505,0.050294,-0.0028079999999999997,1.034318
1812,-1.8310830000000002,2.624552,-0.6103609999999999,0.045045,-0.000732,1.013565
1814,-4.577707,2.868696,0.244144,-0.030274000000000002,-0.008545,0.995743
1816,-1.2207219999999999,2.319371,0.0,-0.011597,0.033326,0.921645
1818,-11.535821,-3.723201,-1.40383,-0.012573,0.016358,0.988418
1820,-9.338521,-3.90631,-2.319371,0.046508999999999995,-0.031738999999999996,1.048966
1822,-2.50248,1.281758,-0.30518,0.004639,-0.0177,1.01735
1824,0.244144,-2.075227,-0.854505,0.018433,0.004639,0.998184
1826,-0.793469,-1.159686,-0.30518,0.029664,-0.024903,1.036881
1828,3.540093,1.09865,-0.244144,-0.001831,0.031617,0.9553370000000001
1830,2.563516,1.525902,-0.30518,0.038575,-0.000977,1.014908
1832,0.244144,2.746624,0.122072,0.00647,-0.001099,0.993301
1834,1.159686,2.319371,-0.244144,0.032471,-0.006226,1.0352940000000002
1836,4.150454,4.8218510000000006,0.244144,0.007691,0.010742,0.988418
1838,4.8218510000000006,4.028382,0.0,-0.000366,0.01648,0.979507
1840,2.136263,3.051804,-0.30518,0.02356,0.005005,1.013199
1842,3.051804,4.882887,0.244144,0.016114,0.000366,1.01088
1844,4.333562000000001,3.90631,0.0,0.0,0.02417,0.9674219999999999
1846,-0.30518,1.7700470000000001,-0.122072,-0.005371,0.034546,0.95375
1848,-5.737392,0.854505,0.48828900000000003,-0.0035399999999999997,-0.005493,1.021134
1850,-2.4414439999999997,-0.48828900000000003,0.061036,-0.0063479999999999995,0.007691,0.992447
1852,-1.342794,-2.075227,-0.427253,-0.001221,0.017212,0.9900049999999999
1854,0.9155409999999999,-2.197299,-0.976577,0.004273,0.019409,0.9820709999999999
1856,7.9957270000000005,-1.70901,-3.051804,0.010742,0.028076999999999998,0.977676
1858,-0.122072,-2.2583349999999998,-0.854505,0.01355,0.011840999999999999,1.010758
1860,-2.624552,-2.136263,0.0,0.004273,0.012085,1.001602
1862,0.427253,-1.464866,-0.549325,0.011840999999999999,0.017334,0.9959870000000001
1864,1.159686,-1.037613,-0.122072,0.014527000000000002,0.010986,1.005509
1866,-0.427253,-1.525902,0.30518,0.008301000000000001,0.01355,1.001236
1868,-1.09865,-0.976577,0.427253,0.020263999999999997,0.015991,1.001602
1870,-0.793469,0.0,0.793469,0.020142,0.014893,1.0000149999999999
1872,-3.90631,0.183108,0.793469,0.018677000000000003,0.017212,0.991226
1874,-6.408789,0.9155409999999999,0.30518,0.010498,0.0070799999999999995,0.9953770000000001
1876,0.0,0.793469,-0.793469,0.003662,0.002564,0.984268
1878,-0.183108,-0.976577,0.061036,0.023072,0.005005,1.008194
1880,2.746624,-1.037613,0.122072,-0.001831,-0.001465,0.997208
1882,1.159686,-1.7700470000000001,0.244144,0.007935,0.015259,0.984756
1884,-2.929732,-1.09865,0.0,0.016968,0.018189,0.985367
1886,-5.065995,-1.586938,-0.122072,0.008057,0.000488,1.004532
1888,-2.075227,-1.342794,-0.30518,0.005737,-0.010376,1.043351
1890,0.671397,-0.549325,-0.30518,0.021485,0.015259,0.962173
1892,1.953155,-0.244144,-0.6103609999999999,0.011353,0.007568000000000001,1.006241
1894,2.319371,-0.366217,-0.6103609999999999,-0.000122,0.00647,0.9941559999999999
1896,-0.732433,-1.464866,0.0,0.008911,0.028808999999999998,0.996841
1898,-2.4414439999999997,-1.09865,-0.30518,0.004639,-0.007568000000000001,1.01796
1900,-2.319371,0.48828900000000003,-1.342794,0.002441,0.006592,0.9986719999999999
1902,0.9155409999999999,0.549325,-2.624552,0.0063479999999999995,0.014771000000000001,0.992447
1904,0.183108,-0.122072,-2.319371,0.012451,0.0074459999999999995,1.00441
1906,0.48828900000000003,-0.427253,-2.4414439999999997,0.000977,0.0,0.9969629999999999
1908,3.1128400000000003,0.427253,-3.90631,0.010254000000000001,0.014771000000000001,0.98854
1910,-0.6103609999999999,0.122072,-5.3101400000000005,0.004761,0.002441,0.988663
1912,-1.525902,-0.366217,-1.8921189999999999,0.005737,0.003662,0.999649
1914,-1.7700470000000001,-0.9155409999999999,-0.732433,0.013428,0.003418,1.007462
1916,0.732433,0.061036,-0.793469,0.025391,0.014038,1.0089270000000001
1918,0.732433,0.854505,-4.699779,0.015259,0.01648,0.997574
1920,0.122072,0.671397,-2.80766,-0.010131999999999999,0.003052,0.985611
1922,-1.40383,0.061036,-1.037613,0.0008550000000000001,0.015259,0.992569
1924,-2.014191,-0.366217,-0.366217,0.007568000000000001,0.001099,1.0089270000000001
