Packet number,Gyroscope X (deg/s),Gyroscope Y (deg/s),Gyroscope Z (deg/s),Accelerometer X (g),Accelerometer Y (g),Accelerometer Z (g)
0,1.525902,0.549325,-0.183108,0.007568000000000001,-0.0023190000000000003,1.0047760000000001
2,2.4414439999999997,0.854505,-0.122072,0.00061,0.001099,0.995499
4,2.2583349999999998,0.671397,0.0,-0.009766,0.019043,0.9668120000000001
6,-1.281758,-0.30518,-0.122072,-0.007691,-0.007568000000000001,1.001358
8,-1.2207219999999999,-0.183108,0.30518,-0.001221,-0.0051270000000000005,1.006485
10,-0.793469,-0.061036,0.122072,-0.00647,-0.0037840000000000005,1.001846
12,-0.183108,-0.183108,0.0,-0.006714,-0.003662,0.997574
14,0.183108,-0.244144,0.061036,-0.009276999999999999,0.006592,0.992569
16,0.183108,-0.244144,0.0,-0.001465,-0.002564,1.00734
18,0.0,-0.183108,-0.122072,-0.001953,0.000732,1.00209
20,-0.427253,0.0,0.0,-0.004517,0.000977,0.9987950000000001
22,0.0,0.427253,-0.122072,-0.0023190000000000003,-0.0037840000000000005,1.007706
24,0.427253,0.732433,0.0,-0.000244,-0.00061,0.999283
26,0.854505,0.854505,0.0,-0.005982,-0.001831,0.996841
28,0.549325,0.427253,0.061036,0.000366,-0.001221,0.995132
30,0.671397,0.549325,0.0,-0.005737,0.00415,0.999893
32,0.9155409999999999,0.854505,0.0,-0.001953,0.005615,0.988907
34,1.464866,0.671397,0.183108,0.001465,-0.002686,0.997086
36,0.671397,0.48828900000000003,0.122072,-0.003296,-0.001831,0.9986719999999999
38,1.159686,0.671397,0.183108,-0.010131999999999999,-0.0008550000000000001,0.9942780000000001
40,0.671397,0.122072,0.061036,-0.010376,0.005249,0.9979399999999999
42,0.244144,-0.427253,0.122072,-0.008545,0.003296,0.9994049999999999
44,1.159686,-0.366217,0.0,-0.007812999999999999,0.005982,0.981094
46,-1.342794,-0.9155409999999999,0.122072,-0.002075,0.001709,1.001968
48,-1.037613,-0.427253,0.122072,-0.005737,-0.003662,1.003555
50,-0.549325,-0.30518,0.183108,-0.005615,0.001099,1.001602
52,-0.183108,-0.427253,0.061036,-0.004639,-0.002686,1.005142
54,-0.061036,-0.183108,0.0,-0.025635,-0.0021969999999999997,0.988296
56,0.671397,-0.366217,0.0,-0.012085,-0.0015869999999999999,0.9945219999999999
58,0.6103609999999999,-0.427253,0.0,-0.012206999999999999,0.0074459999999999995,1.0031889999999999
60,-0.061036,-0.732433,0.0,-0.009276999999999999,-0.001221,0.989517
62,-0.061036,-0.854505,-0.122072,-0.005249,-0.006592,1.002213
64,0.6103609999999999,-0.793469,0.0,-0.003052,0.009033,1.006241
66,1.037613,-0.671397,-0.183108,0.000366,-0.007691,1.014054
68,2.197299,0.061036,0.061036,-0.000977,-0.011109,1.022232
70,5.7984279999999995,0.30518,0.122072,0.002441,0.006836,1.005509
72,6.836042,0.30518,0.0,-0.009276999999999999,0.006226,1.003433
74,5.859464,-0.30518,0.061036,-0.010131999999999999,0.010864,0.985489
76,4.882887,-1.2207219999999999,0.122072,-0.011231,0.015747,0.9820709999999999
78,3.723201,-2.014191,-0.122072,-0.012085,0.020386,0.978775
80,2.319371,-2.380407,-0.366217,0.002564,0.010742,0.996841
82,2.685588,-1.7700470000000001,-0.48828900000000003,0.00415,0.008423,1.009781
84,2.746624,-2.014191,-0.671397,0.004517,0.006836,1.0234530000000002
86,5.493248,-0.793469,-0.732433,-0.0058590000000000005,0.017578,0.985367
88,3.540093,-1.159686,-0.671397,-0.0074459999999999995,0.021485,0.972915
90,2.50248,-1.586938,-0.6103609999999999,0.00293,0.028808999999999998,0.9643700000000001
92,1.037613,-1.342794,-0.549325,0.010620000000000001,0.015869,1.0208899999999999
94,4.638743,-0.427253,-0.427253,-0.002564,0.010742,1.036149
96,8.056764,0.671397,-0.9155409999999999,0.006592,0.008057,1.00148
98,8.056764,0.0,-0.549325,0.000122,0.036133,0.986099
100,5.554284,0.0,-0.183108,-0.006226,0.044923000000000005,0.9813379999999999
102,3.234913,0.061036,-0.122072,0.0063479999999999995,0.036255,0.980972
104,1.037613,0.671397,0.061036,0.0058590000000000005,0.021241,1.0207680000000001
106,4.028382,2.80766,0.244144,-0.0021969999999999997,0.012818000000000001,0.972793
108,4.028382,1.464866,0.732433,-0.019532,0.031373000000000005,0.9544819999999999
110,1.8921189999999999,0.671397,1.037613,-0.0058590000000000005,0.035401,0.9864649999999999
112,2.014191,0.30518,1.525902,0.005005,0.031617,0.9793850000000001
114,2.014191,0.183108,1.8921189999999999,-0.029419,0.034058,0.9752350000000001
116,2.014191,-1.2207219999999999,2.136263,0.003296,0.029786,0.979751
118,3.173877,-2.685588,2.014191,-0.004517,0.017945,0.988785
120,5.3101400000000005,-1.342794,1.525902,-0.00293,0.054932,0.9350729999999999
122,-3.418021,-1.037613,1.7700470000000001,0.000488,0.000732,1.029313
124,3.6621650000000003,0.427253,2.075227,0.013793999999999999,0.033204000000000004,1.003922
126,5.61532,0.671397,1.525902,0.012451,0.034424,1.000626
128,6.164645,1.159686,0.671397,0.007324,0.052369000000000006,0.985
130,0.732433,-0.30518,-0.183108,-0.012818000000000001,0.052979,0.972427
132,-1.647974,-3.051804,-1.09865,-0.008301000000000001,0.05359,0.978042
134,-3.051804,-3.418021,-1.281758,0.013306,0.025879000000000003,1.025284
136,0.183108,-0.183108,-0.732433,0.032349,0.04358,1.008194
138,0.061036,2.563516,-0.793469,0.016846,0.027466,1.017594
140,-1.70901,5.0049589999999995,-0.793469,-0.003906,0.053223,0.9592430000000001
142,-5.127031,5.493248,-0.793469,0.004761,0.041138,0.994034
144,-3.6011290000000002,5.737392,-0.427253,0.005371,0.015869,1.019181
146,-2.50248,4.943923000000001,0.0,-0.024781,0.025513,0.9948879999999999
148,-0.6103609999999999,4.150454,-0.30518,-0.013184,0.035157,0.9785309999999999
150,-2.50248,1.7700470000000001,-0.366217,-0.023316,0.052125,0.956802
152,-3.967346,-0.366217,-0.48828900000000003,-0.024903,0.03125,0.972305
154,-5.61532,-2.197299,-0.244144,-0.028076999999999998,0.022095,0.9945219999999999
156,-4.333562000000001,-3.784237,-0.427253,-0.023804,0.027710000000000002,0.99379
158,-4.5166699999999995,-6.2867169999999994,-0.48828900000000003,-0.025025,0.028931000000000002,0.968399
160,-6.103609,-9.277485,-0.244144,-0.000732,0.023681999999999998,0.9698629999999999
162,-8.667124000000001,-8.728161,-0.244144,0.02002,0.035767,0.980117
164,-11.413748,-6.103609,0.183108,0.031738999999999996,0.014527000000000002,1.003555
166,-10.193027,-6.408789,0.793469,0.0037840000000000005,0.004883,0.9942780000000001
168,-8.789197,-7.629511,0.854505,-0.013672,0.0074459999999999995,0.980972
170,-13.977264000000002,-9.887846000000001,0.671397,-0.007812999999999999,0.043213999999999995,0.9305559999999999
172,-22.644388,-11.902037,0.9155409999999999,-0.004639,0.021973,0.9143209999999999
174,-28.747996999999998,-9.216449,3.234913,0.039550999999999996,-0.045777,1.0411540000000001
176,-26.611734000000002,-4.5166699999999995,4.699779,0.034913,-0.035889,1.022232
178,-24.658579,-5.3101400000000005,4.150454,0.017945,-0.008301000000000001,0.9589989999999999
180,-30.457008000000002,-6.530861,3.356985,0.010376,-0.034302,0.9715719999999999
182,-31.372549,-8.1178,4.028382,-0.001709,-0.075685,0.996719
184,-28.137635999999997,-9.155413000000001,3.479057,0.105348,0.10998699999999999,0.8715950000000001
186,-62.56199,-5.065995,2.197299,0.124392,-0.064454,1.116716
188,-47.852292999999996,3.479057,-0.854505,0.031738999999999996,-0.053223,1.001358
190,-49.683375,2.50248,-3.90631,-0.066285,-0.071412,1.028824
192,-48.340581,7.568475,-24.536507,-0.000488,-0.068116,0.8733040000000001
194,-56.153201,11.352712,-26.123445,0.218021,-0.33521,1.063127
196,-61.646448,11.352712,-5.065995,0.07946900000000001,-0.000244,1.019181
198,-111.69604,20.325017000000003,-5.61532,0.041138,0.044068,0.8305790000000001
200,-142.458228,4.638743,17.761501000000003,0.030151999999999998,0.133425,0.646616
202,-317.93698,14.282444,-38.941024,0.00647,0.6772560000000001,1.738796
204,-615.243763,45.044633000000005,-10.498207,0.147951,-0.091432,1.9999689999999999
206,-604.562448,188.72358300000002,143.37377,-2.0000310000000003,-0.137942,1.9999689999999999
208,316.716259,15.747310999999998,36.621653,-1.316182,0.470344,1.790677
210,-50.537881,-71.595331,150.63706399999998,0.19763499999999998,0.572152,-0.030518
212,52.918288000000004,8.606088,26.367590000000003,0.729137,0.696788,0.552255
214,-7.2022580000000005,43.274586,-35.950256,0.302007,0.540658,0.44409899999999997
216,53.894865,-9.277485,-53.467613,-0.180423,0.481575,0.5700770000000001
218,65.36965,-51.514458000000005,-35.278859000000004,-0.317144,0.45093500000000003,0.999527
220,108.339055,-41.870756,-23.193713,-0.408453,0.48963100000000004,1.391867
222,161.867704,-10.437171000000001,-9.338521,-0.42761899999999997,0.361944,1.51162
224,206.485084,14.282444,4.8218510000000006,-0.36609400000000003,0.24109299999999997,1.144427
226,226.688029,15.014878,18.860151000000002,-0.184085,0.150637,0.9629049999999999
228,226.504921,-0.244144,18.066682,0.161135,0.063966,0.694713
230,192.62989199999998,15.014878,-13.183795000000002,0.344488,0.073487,0.8242309999999999
232,172.365911,35.339895,-38.330663,-0.064942,0.129274,1.9999689999999999
234,247.257191,39.612421000000005,-31.189441,-0.318486,-0.168704,1.9999689999999999
236,243.53398900000002,42.725260999999996,-15.259022,-0.166629,-0.31555700000000003,1.495995
238,234.37857599999998,45.899138,-6.042573,-0.187381,-0.319829,1.9999689999999999
240,269.718471,25.513085,0.244144,-0.08581699999999999,-0.35242199999999996,1.797879
242,260.563058,20.630198,-8.1178,0.088624,-0.350103,1.595361
244,243.289845,36.987869,-28.381781,0.088014,-0.401862,1.811551
246,235.538262,50.171664,-43.091478,0.127687,-0.573739,1.367575
248,186.160067,63.721675,-57.007706000000006,0.127932,-0.8299690000000001,0.922011
250,120.546273,58.594643999999995,-64.820325,0.125978,-1.333639,1.234638
252,83.55840400000001,47.669184,-67.566949,0.409918,-2.0000310000000003,1.085954
254,62.989242000000004,45.349813,-64.02685600000001,0.0542,-2.0000310000000003,-0.273808
256,-53.101395999999994,-69.58114,-0.48828900000000003,-0.405158,-1.462791,0.346197
258,-100.83161700000001,-113.09987,26.67277,-0.499275,-1.712673,-1.293477
260,-177.981231,-149.29426999999998,67.750057,-0.008423,-0.367437,1.7290299999999998
262,-151.369497,-73.853666,71.839475,-0.127932,0.666148,0.6419779999999999
264,-261.78378,-89.84512099999999,68.48249,1.168719,-0.032227,0.883558
266,-204.776074,-48.950942,27.344167,1.017227,-0.018677000000000003,1.9999689999999999
268,-90.943771,0.6103609999999999,-9.765774,-0.472175,-0.014038,1.3388879999999999
270,-116.945144,7.324331,35.706111,-0.605356,-0.078614,0.747814
272,-73.975738,-59.449149,36.682689,0.120119,-0.085328,1.386007
274,-62.928206,-54.810407,22.705425,0.5103840000000001,-0.133547,1.526146
276,-38.391698999999996,-34.058137,7.507439,-0.038452999999999994,0.092775,1.1239190000000001
278,-32.410163,-14.099336,2.014191,-0.034424,0.013062,1.057511
280,-36.804761,-22.095064,2.380407,0.026978,0.104005,1.040055
282,-24.902724,-6.958114,-0.549325,0.044433999999999994,0.049317,1.071672
284,-22.1561,-0.732433,2.380407,0.071778,0.029541,1.057877
286,-20.386053,-0.671397,4.333562000000001,-0.012695999999999999,0.004273,1.035172
288,-12.32929,-4.699779,-0.549325,-0.085328,-0.020386,1.005142
290,-14.831769,-9.216449,1.159686,-0.010131999999999999,0.034302,1.00441
292,-13.916228,-7.6905470000000005,0.48828900000000003,-0.057862000000000004,0.130495,1.197894
294,-10.925460000000001,-5.676356,2.380407,-0.012451,-0.011963,0.968887
296,-11.902037,-5.859464,2.563516,0.027222000000000003,0.019532,1.046403
298,-7.507439,-6.2867169999999994,1.70901,-0.003906,0.024048,1.025528
300,-7.507439,-7.263294,-0.366217,0.026489999999999996,-0.015625,0.8997940000000001
302,-14.709697,-10.376135000000001,0.30518,0.00647,0.041749,0.9834129999999999
304,-15.075914000000001,-9.887846000000001,0.244144,0.00647,0.002075,0.988907
306,-16.723888,-9.52163,0.061036,0.02417,-0.029053,1.005264
308,-12.878614,-6.897078,0.732433,0.034913,-0.028564999999999997,1.026627
310,-12.451362,-5.065995,2.380407,0.037598,-0.019653999999999998,0.9542379999999999
312,-19.897765,-5.9205,2.4414439999999997,0.025147,0.010864,0.968765
314,-23.682002,-5.7984279999999995,2.136263,0.029419,-0.021729,1.0048979999999998
316,-20.935378,-6.225681,1.8310830000000002,0.014038,-0.020752,0.9803620000000001
318,-23.682002,-7.080186,2.685588,0.030762,-0.030639999999999997,1.027359
320,-32.471199,-7.507439,2.80766,0.064454,-0.015747,1.0686200000000001
322,-30.090790999999996,-4.272526,4.699779,0.11425999999999999,0.031006,0.975723
324,-56.702525,2.319371,9.399557000000001,0.072511,-0.11218399999999999,1.045304
326,-52.368963,4.638743,8.911269,0.010864,-0.06994700000000001,1.001846
328,-42.969406,0.6103609999999999,-0.122072,-0.047363999999999996,-0.060913999999999996,0.9900049999999999
330,-51.392386,1.464866,-21.789883,-0.10852200000000001,0.091066,1.084855
332,-24.231327,1.953155,-34.058137,0.149783,-0.320317,0.9226219999999999
334,-32.410163,-1.8921189999999999,-6.347753,0.069215,-0.019165,1.23183
336,-110.353246,19.104295,-14.953841,0.184817,0.165652,1.084855
338,-192.141604,37.232013,-13.977264000000002,-0.0051270000000000005,0.5450520000000001,0.35523000000000005
340,-354.314488,-30.090790999999996,-0.9155409999999999,0.267216,1.128801,1.024308
342,-709.971771,-88.380255,52.429999,-0.10473800000000001,0.033692,1.288106
344,-845.71603,-56.336309,37.720302000000004,0.248783,-0.699229,1.066545
346,-404.974441,13.122759,15.991454999999998,-1.208392,-1.625269,1.9999689999999999
348,147.341115,66.77348,-84.229801,-0.681285,0.777478,1.5312729999999999
350,-101.319905,-52.613108,70.191501,-0.6997180000000001,0.115846,1.732082
352,169.558251,-48.584726,64.942397,-0.320317,0.562142,1.026261
354,132.265202,-44.495308,72.3888,-0.058473000000000004,0.282841,1.0789959999999998
356,176.089113,-2.868696,40.894179,0.114748,0.346075,0.626352
358,183.352407,29.48043,12.390326,0.061279999999999994,0.246098,0.781506
360,201.54116100000002,29.907683000000002,2.014191,-0.09777999999999999,0.142458,1.160906
362,250.06485099999998,10.070953999999999,4.882887,-0.105348,0.086793,1.266133
364,290.409705,-5.9205,3.051804,0.043458,0.028687,1.8305939999999998
366,351.567865,1.464866,-17.273213000000002,0.250248,-0.154177,1.580591
368,351.262684,12.756542,-50.965133,0.373053,-0.511116,0.43433299999999997
370,251.1635,69.88632,-91.493095,0.310307,-0.475959,0.336065
372,188.23529399999998,54.932479,-96.009766,-0.20679,-0.350958,1.9999689999999999
374,216.67811099999997,77.759976,-69.398032,-0.41638800000000004,-0.5477380000000001,1.9999689999999999
376,275.577935,86.854353,-36.1944,-0.38355100000000003,-0.858534,1.754299
378,250.24795899999998,61.34126800000001,4.8218510000000006,-0.280644,-0.9001600000000001,1.9999689999999999
380,297.734035,59.998474,16.84596,0.11340499999999999,-0.817395,1.8209509999999998
382,282.84123,57.923246999999996,6.591897,0.3794,-0.7495229999999999,1.5274889999999999
384,260.196841,44.495308,-4.638743,0.209598,-0.8955209999999999,1.657618
386,240.726329,33.325703999999995,-2.014191,-0.046754000000000004,-1.38735,1.1970399999999999
388,176.455329,33.813992999999996,8.178836,0.211429,-2.0000310000000003,0.5085529999999999
390,75.684749,78.187228,-28.442816999999998,0.701671,-2.0000310000000003,0.1355
392,3.356985,23.620966,-11.291675999999999,0.242679,-2.0000310000000003,-0.21692199999999998
394,-57.557031,-114.930953,39.917601,0.421393,-1.656275,-1.925689
396,-180.849928,-113.954376,7.141222,-0.048096,-0.599741,1.511254
398,-106.813153,-69.336996,-1.7700470000000001,-1.008316,0.5971770000000001,0.827039
400,-312.99305699999996,-100.64850799999999,83.131151,-0.180056,-0.470466,0.5100180000000001
402,-227.96978700000003,-28.564889,68.909743,1.281514,-0.1178,1.9999689999999999
404,-160.341802,29.785611,-7.751583,0.950576,0.12134,1.72488
406,-160.708019,6.103609,25.329976000000002,-1.776516,-1.0323639999999998,1.9999689999999999
408,-48.82887,-76.478218,31.799802000000003,1.364034,0.40003099999999997,1.925689
410,-66.468299,0.6103609999999999,19.226368,-0.6677350000000001,-0.072999,1.125017
412,-36.49958,-12.207218,3.051804,0.461189,0.173098,1.347433
414,-35.09575,-4.455634,7.141222,-0.147097,-0.02417,1.151141
416,-22.766461,6.2867169999999994,5.249104,-0.067506,-0.010864,1.04921
418,-15.381094000000001,6.408789,4.455634,-0.025879000000000003,0.066163,0.993179
420,-18.738079,1.70901,4.394598,-0.052003,0.025879000000000003,1.0234530000000002
422,-15.991454999999998,0.732433,3.1128400000000003,-0.066896,0.009888,0.9902489999999999
424,-15.991454999999998,-2.685588,3.418021,-0.080568,0.004883,0.9790190000000001
426,-14.892805,-7.324331,2.80766,-0.088136,0.006836,0.972183
428,-14.648660999999999,-10.254063,1.8310830000000002,-0.062135,0.022705,0.9675440000000001
430,-16.479744,-9.399557000000001,1.586938,-0.043824,0.015381,1.006363
432,-17.212177,-9.277485,0.732433,-0.06652899999999999,0.025147,1.059709
434,-17.395285,-8.972305,1.525902,-0.038575,-0.018921,1.007462
436,-16.479744,-6.164645,-0.183108,0.019653999999999998,-0.050660000000000004,0.958633
438,-14.526589000000001,-9.216449,1.037613,-0.028687,-0.038331,0.949722
440,-12.817578,-8.056764,0.244144,-0.016236,-0.038087,0.9876860000000001
442,-17.883574,-5.065995,1.525902,-0.01001,-0.016846,1.026261
444,-18.493935,-3.356985,2.746624,-0.025269,-0.061402,0.9935450000000001
446,-17.639429,-2.80766,3.479057,-0.021606999999999998,-0.06543099999999999,1.00209
448,-15.930419,-5.371176,3.356985,-0.045533,-0.021118,0.96791
450,-26.306554,-9.338521,2.868696,-0.038452999999999994,-0.011475,0.9716950000000001
452,-33.813992999999996,-9.277485,1.40383,-0.042725,-0.031861,0.9636379999999999
454,-44.129090999999995,-8.484016,1.464866,-0.021606999999999998,-0.063722,1.015518
456,-42.90837,-9.216449,2.014191,0.020630000000000003,-0.09472799999999999,1.021866
458,-36.438544,-8.361944,4.760815,-0.008911,-0.126833,1.0196690000000002
460,-32.715343,-4.577707,4.455634,-0.053834,-0.08777,1.039933
462,-34.363316999999995,-6.897078,-1.2207219999999999,-0.085328,-0.11071900000000001,1.020645
464,-25.879301,-1.953155,-16.052491,0.001953,-0.167239,0.867079
466,-62.256809,2.014191,-46.692607,0.048219,-0.359869,1.11574
468,-17.517357,-7.812619000000001,-10.009917999999999,-0.035401,-0.071046,1.036027
470,-57.49599499999999,-10.864424,-17.883574,0.005982,0.11071900000000001,0.906264
472,-129.457542,-4.455634,-17.395285,0.19971,0.215457,0.7740600000000001
474,-215.21324500000003,-5.3101400000000005,-53.04036,0.000244,0.9466700000000001,1.601831
476,-784.9851219999999,22.583351999999998,14.770732999999998,-0.24048200000000003,0.534432,1.1589530000000001
478,-897.4135960000001,8.972305,75.867857,0.409186,0.056275,0.912856
480,-486.57969,-50.110628000000005,45.960174,-1.8305939999999998,-1.4061489999999999,1.9999689999999999
482,304.69214900000003,-54.383154000000005,-53.77279300000001,-1.09279,1.350484,1.9999689999999999
484,-33.936065,-100.892653,74.952316,-0.46704799999999996,0.64564,0.628428
486,103.150988,-47.791257,33.569848,-0.12268299999999999,0.323369,0.635142
488,62.806134,-25.940337,23.010604999999998,-0.036378,0.478401,0.798718
490,149.416342,-22.827497,4.150454,-0.06286699999999999,0.487678,1.235737
492,198.489357,-40.833143,-7.263294,-0.043213999999999995,0.371832,1.185565
494,241.70290699999998,-31.921874,-24.719615,-0.067506,0.23511100000000001,1.066178
496,271.122301,-8.545052,-38.269627,-0.14721900000000002,0.062623,1.17995
498,298.954757,3.356985,-41.138323,-0.185428,-0.070802,1.228412
500,321.232929,6.591897,-41.687647999999996,-0.142092,-0.196658,1.2558790000000002
502,302.18967000000004,55.725947999999995,-47.608148,0.010620000000000001,-0.614633,0.597665
504,231.754025,66.956588,-53.71175699999999,0.065919,-0.44397700000000007,1.07155
506,210.51346600000002,68.299382,-50.110628000000005,-0.037110000000000004,-0.502571,1.9999689999999999
508,228.45807599999998,79.65209399999999,-41.80972,-0.15368900000000002,-0.702525,1.9999689999999999
510,252.628367,76.112001,-26.001373,-0.16284400000000002,-0.9542379999999999,1.9999689999999999
512,272.037842,60.852979000000005,-12.024109,-0.04358,-0.9222549999999999,1.9999689999999999
514,298.71061299999997,57.923246999999996,-13.122759,0.314458,-0.832166,1.7004650000000001
516,267.826352,62.073701,-36.926833,0.504646,-0.755993,1.462058
518,248.172732,52.002747,-56.824597999999995,0.380499,-0.851453,1.6445560000000001
520,227.847715,56.397344999999994,-72.327764,0.26001399999999997,-1.1616389999999999,1.074357
522,161.62356,72.022583,-70.069429,0.038452999999999994,-1.835966,0.547127
524,75.19646,78.187228,-46.753643,0.20679,-2.0000310000000003,0.44568599999999997
526,29.236286,50.354772,-13.488975,0.115602,-2.0000310000000003,0.03125
528,-56.275273,-35.523003,41.138323,-0.220584,-1.5462879999999999,0.505989
530,-193.85061399999998,-144.533455,100.892653,-0.008667,-0.316655,0.137575
532,-122.68253600000001,-40.71107,80.140383,-0.084596,1.057267,1.7993439999999998
534,-218.997482,-116.21271100000001,87.52575,1.129046,0.22497899999999998,-0.16589600000000002
536,-299.32097400000004,-59.021896999999996,48.82887,1.544335,-0.048219,1.9999689999999999
538,-116.21271100000001,15.686275,-25.26894,-0.10363900000000001,-0.055665,1.433616
540,-164.43122,-1.40383,27.893492,-1.342794,-0.342046,1.490623
542,-91.615167,-95.643549,57.25185,0.32422399999999996,-0.119875,1.5675290000000002
544,-61.890593,-53.284504000000005,21.850919,0.444221,0.021363,1.607691
546,-47.913329,-57.312886,14.526589000000001,0.102052,0.14966,1.175555
548,-37.59823,-20.691233999999998,1.586938,0.018189,-0.024781,1.0720379999999998
550,-36.743725,-20.630198,1.647974,0.320806,0.082399,1.308858
552,-27.954528000000003,2.197299,2.563516,0.068605,0.055909,1.061295
554,-24.109254999999997,10.009917999999999,3.234913,0.049317,0.009644,1.053117
556,-21.118485999999997,7.751583,4.089418,-0.013672,0.003052,1.032609
558,-18.432898,2.929732,2.075227,-0.028321,0.021363,0.954849
560,-19.65362,-3.784237,2.014191,0.009276999999999999,-0.008057,1.00148
562,-16.052491,-5.554284,1.342794,0.07531900000000001,-0.033814,0.851209
564,-18.554971,-9.765774,2.380407,-0.007324,0.02002,0.999283
566,-10.925460000000001,-8.178836,1.40383,0.00415,-0.011597,1.0274809999999999
568,-11.23064,-10.498207,1.342794,-0.004028,0.004517,0.976699
570,-15.625238000000001,-14.404517000000002,0.48828900000000003,0.003662,-0.041993,0.945205
572,-18.860151000000002,-14.221407999999998,0.244144,0.05127,0.022338999999999998,1.028702
574,-16.235599,-14.160372,0.244144,0.043213999999999995,-0.009033,1.0276040000000002
576,-20.569162,-13.305867000000001,0.0,0.01001,-0.024903,1.003922
578,-23.193713,-13.916228,2.197299,0.036622,-0.017578,0.983658
580,-22.095064,-12.939651,1.7700470000000001,0.043091000000000004,-0.046998000000000005,1.0047760000000001
582,-22.1561,-11.169604,2.685588,0.055299,-0.05005,0.9666899999999999
584,-25.146867999999998,-5.9205,2.136263,0.057862000000000004,-0.066773,0.9790190000000001
586,-29.297321999999998,-3.051804,2.685588,-0.019532,-0.144045,1.1692069999999999
588,-30.640116,-3.234913,2.563516,0.036744,-0.075685,0.930434
590,-34.851606,-0.732433,7.01915,0.156497,-0.042847,1.002335
592,-53.284504000000005,6.042573,14.526589000000001,0.065553,-0.139773,0.999527
594,-45.716029999999996,6.408789,13.061722999999999,-0.00293,-0.134768,1.015274
596,-25.085832,1.464866,-4.394598,-0.020752,-0.077394,1.119768
598,-47.486076000000004,2.685588,-38.269627,0.109499,-0.185306,1.016861
600,-19.775692000000003,10.437171000000001,-27.222095,0.179568,-0.272343,1.04445
602,-26.245518,15.014878,-1.09865,0.046265,0.114504,0.942641
604,-118.28793799999998,28.0766,-19.897765,0.11120799999999999,0.30640100000000003,0.9902489999999999
606,-211.18486299999998,14.587625,-5.3101400000000005,-0.429572,0.6435649999999999,0.305669
608,-583.1998169999999,-29.297321999999998,-53.04036,-0.484382,0.401251,1.597436
610,-903.578241,-117.372396,56.580453000000006,0.117433,-0.16907,1.3824670000000001
612,-642.7100019999999,15.808347,174.319066,-1.487938,-0.733776,1.9999689999999999
614,450.62943499999994,21.667811,-60.059509999999996,-0.5343100000000001,1.080705,1.801663
616,-5.676356,-139.528496,63.965819999999994,-0.132448,0.36243200000000003,-0.164675
618,109.07148899999999,-109.559777,-18.371862,0.38355100000000003,0.511849,0.729137
620,49.683375,-32.410163,-73.12123299999999,0.19971,0.610727,0.637827
622,119.752804,-14.709697,-100.526436,-0.22632199999999997,0.448615,0.796277
624,135.07286200000001,-27.649348,-83.192187,-0.394781,0.336675,1.192279
626,193.240253,-3.90631,-65.491722,-0.44653999999999994,0.292973,1.130388
628,222.96482799999998,21.545739,-48.218509000000005,-0.32959499999999997,0.197269,0.809461
630,229.312581,48.462654,-38.941024,-0.138308,0.175174,1.0213780000000001
632,254.337377,61.646448,-35.88922,0.012818000000000001,0.175784,1.274067
634,276.12726000000004,61.46334,-40.222782,0.157961,0.022705,1.150042
636,259.525444,90.699626,-46.753643,0.137453,-0.195926,1.215839
638,249.210346,112.184329,-48.462654,0.33228,-0.063233,1.852934
640,263.431754,113.64919499999999,-52.124819,0.33655300000000005,-0.203128,1.9795220000000002
642,268.80293,96.31494599999999,-51.819638,0.36328699999999997,-0.19018800000000002,1.9999689999999999
644,313.481346,89.906157,-57.740139,0.42945,-0.401617,1.9999689999999999
646,326.604105,88.990616,-63.782712,0.284916,-0.596201,1.99173
648,303.654536,91.73724,-59.20500500000001,0.370489,-0.777356,1.960967
650,267.460136,88.380255,-34.485389,0.241825,-1.40029,1.5182120000000001
652,175.47875200000001,86.30502800000001,-2.136263,0.155886,-2.0000310000000003,0.592172
654,32.837415,96.49805400000001,-1.281758,0.9254290000000001,-2.0000310000000003,0.895766
656,34.302281,95.887694,-5.188067,0.446662,-2.0000310000000003,0.439338
658,-120.91248999999999,-37.29305,43.51873,0.197757,-2.0000310000000003,-1.435691
660,-132.44831000000002,-72.938125,48.096437,0.8531620000000001,0.39819899999999997,1.9999689999999999
662,-124.391547,-81.055924,10.193027,0.075196,0.500618,-0.766125
664,-416.205081,-61.402304,66.22415500000001,0.139895,-0.417609,1.737575
666,-160.341802,29.785611,13.427939000000002,1.080217,-0.29285100000000003,1.9999689999999999
668,-154.116121,68.36041800000001,-17.883574,-0.240116,-0.10254100000000001,1.9999689999999999
670,-106.263828,7.568475,28.198672,-1.228656,-0.289677,0.9120010000000001
672,-99.36675100000001,-60.120546,35.400931,0.575937,0.110231,1.768948
674,-57.49599499999999,-42.603189,19.897765,-0.16711700000000002,-0.000122,1.069352
676,-62.867169999999994,-41.687647999999996,18.432898,0.18274200000000002,0.022705,1.547143
678,-26.550697999999997,-25.146867999999998,10.070953999999999,0.000244,0.020996,1.2014340000000001
680,-16.968032,-16.968032,7.6905470000000005,0.044433999999999994,0.093019,1.135393
682,-12.32929,-3.234913,5.7984279999999995,-0.044923000000000005,0.016236,1.042741
684,-9.82681,-1.953155,6.042573,-0.071046,0.08984500000000001,0.931899
686,-14.770732999999998,-4.272526,5.065995,-0.036011,0.032837,1.041276
688,-14.465553,-1.70901,4.272526,-0.067506,0.010864,1.033341
690,-10.193027,-2.319371,3.234913,-0.064332,0.005615,1.013687
692,-7.9957270000000005,-2.4414439999999997,2.014191,-0.026246,0.024781,1.017227
694,-8.484016,2.80766,2.014191,-0.030274000000000002,0.023438,1.000504
696,-10.131991000000001,4.943923000000001,3.418021,-0.052247,0.010620000000000001,0.9897610000000001
698,-9.399557000000001,4.21149,5.249104,-0.083619,0.025757,0.973526
700,-13.122759,-1.647974,5.065995,-0.077882,-0.002564,0.98854
702,-9.338521,-3.723201,3.418021,-0.057984,-0.00293,0.993301
704,-11.841001,-4.089418,3.234913,-0.055665,0.006592,0.9593649999999999
706,-11.413748,-5.065995,2.990768,-0.067506,0.013916,1.061173
708,-12.32929,-5.371176,3.234913,-0.07190099999999999,0.005005,0.9630270000000001
710,-16.540779999999998,-10.742351,2.4414439999999997,-0.069215,0.010620000000000001,0.952285
712,-21.667811,-14.648660999999999,0.732433,-0.031738999999999996,0.045777,1.024186
714,-29.053178000000003,-12.63447,1.525902,-0.014038,-0.049317,1.01857
716,-31.799802000000003,-11.413748,2.746624,-0.029053,-0.016968,0.9511860000000001
718,-37.170977,-12.146181,3.479057,-0.04065,-0.010864,0.952895
720,-49.256122999999995,-13.366903,4.943923000000001,-0.028931000000000002,-0.081666,0.9990389999999999
722,-43.762875,-10.009917999999999,4.028382,-0.039307,-0.081178,1.0481120000000002
724,-41.748684000000004,-10.009917999999999,2.685588,-0.002564,-0.068482,1.016251
726,-41.687647999999996,-13.550010999999998,-1.159686,0.012329000000000001,-0.073854,0.9205459999999999
728,-51.026169,-15.747310999999998,-2.136263,0.017823,-0.114015,1.074357
730,-43.274586,-9.216449,-14.526589000000001,0.015381,-0.11914200000000001,0.9869540000000001
732,-67.07866,-6.408789,-35.706111,-0.020752,-0.208011,1.049454
734,-33.142596000000005,-0.854505,-20.691233999999998,0.11316099999999998,-0.329229,1.071916
736,-43.945983,-6.836042,-6.71397,-0.013306,-0.12060699999999999,1.045182
738,-75.989929,-6.775005999999999,-19.165332,-0.053956,-0.07055800000000001,0.925063
740,-119.386587,-7.141222,-9.338521,0.007691,0.630259,0.951308
742,-420.721752,17.151141,-53.223468000000004,0.279545,0.9240860000000001,1.43801
744,-775.402457,-6.652933999999999,45.288777,-0.18579400000000001,-0.025025,1.507469
746,-913.5271230000001,-54.016938,79.16380600000001,0.9472799999999999,-2.0000310000000003,1.9999689999999999
748,-85.999847,-135.439078,-73.670558,-0.354986,-1.153704,1.9999689999999999
750,101.25886899999999,-97.65774,-63.599603,-0.10962100000000001,1.013809,1.993194
752,-55.054551000000004,-98.390173,40.283818,-0.302007,0.6418550000000001,1.6423590000000001
754,150.63706399999998,-26.611734000000002,-2.075227,-0.26819299999999996,0.6042569999999999,0.9007709999999999
756,129.579614,-30.701152,9.033341,-0.333623,0.29077600000000003,1.204974
758,213.68734300000003,-40.650034000000005,9.277485,-0.24194699999999997,0.274907,0.940932
760,244.14435,-35.400931,1.342794,-0.20813299999999998,0.112673,0.7696649999999999
762,247.257191,-19.958801,-3.173877,-0.320073,-0.05774,0.86598
764,265.934234,-13.366903,2.075227,-0.425788,-0.145266,1.3115430000000001
766,299.992371,2.685588,12.63447,-0.425666,-0.278569,1.648707
768,331.425956,33.813992999999996,17.212177,-0.188113,-0.41870799999999997,1.481468
770,323.97955299999995,67.933165,6.71397,0.072633,-0.8531620000000001,0.933364
772,266.91081099999997,78.370336,-9.52163,0.199344,-0.729992,0.46741400000000005
774,192.385748,30.579079999999998,-26.489662,0.178836,-0.502815,1.268818
776,168.520638,27.954528000000003,-45.105669,0.127687,-0.5103840000000001,1.9999689999999999
778,275.150683,67.017624,-78.492409,-0.019898,-0.723888,1.9999689999999999
780,244.693675,67.444877,-72.3888,-0.121706,-0.816663,1.779934
782,251.712825,66.163119,-71.16807800000001,0.252445,-0.621103,1.7141369999999998
784,243.778134,79.041733,-92.77485300000001,0.553964,-0.573495,1.49514
786,213.809415,79.71313,-119.447623,0.669322,-0.6965439999999999,1.29482
788,174.929427,85.57259499999999,-137.75845,0.5103840000000001,-1.039567,1.049332
790,122.6215,89.23476,-130.67826399999998,0.383673,-1.748562,1.0080719999999999
792,67.750057,89.662013,-105.226215,0.445563,-2.0000310000000003,0.672374
794,45.838102,67.689021,-55.603876,-0.107057,-2.0000310000000003,-0.258305
796,-108.09491100000001,-123.23186100000001,48.157472999999996,-0.7481800000000001,-2.0000310000000003,-1.548363
798,-102.540627,-165.651942,81.849393,0.546273,0.359869,1.9999689999999999
800,-99.488823,-122.560464,82.093538,-0.096559,0.717296,-0.679454
802,-300.907912,-93.385214,82.21561,1.9544979999999998,-0.113771,1.6997330000000002
804,-173.098344,-41.077287,-11.902037,0.560555,-0.155642,1.9999689999999999
806,-163.393606,-34.119172999999996,39.734493,-2.0000310000000003,-0.272953,1.9999689999999999
808,-68.17730999999999,-113.954376,55.603876,1.473411,0.475837,1.9999689999999999
810,-38.025483,-13.061722999999999,10.742351,-0.433967,-0.068482,1.318135
812,-29.846646999999997,-57.862211,10.498207,0.54493,0.151247,1.322164
814,-20.996414,-10.376135000000001,4.333562000000001,-0.190433,-0.011597,1.114763
816,-12.32929,-13.550010999999998,0.549325,0.176028,0.089479,1.0876629999999998
818,-9.338521,0.9155409999999999,3.1128400000000003,0.034302,0.043213999999999995,1.053483
820,-10.437171000000001,9.643702000000001,5.7984279999999995,-0.013184,-0.006592,0.9897610000000001
822,-13.550010999999998,7.324331,7.934691,-0.003418,0.063111,0.9813379999999999
824,-17.029068,4.028382,6.2867169999999994,-0.056031,0.09057799999999999,0.917372
826,-31.128404999999997,-4.089418,4.394598,-0.003418,0.06006,0.9386129999999999
828,-27.710384,-5.432212,3.723201,-0.0021969999999999997,0.019043,1.013809
830,-25.207904,-7.507439,2.929732,-0.035401,-0.058961,0.981216
832,-25.329976000000002,-10.376135000000001,3.723201,0.015747,-0.002075,1.026993
834,-20.263981,-10.070953999999999,2.197299,-0.016236,-0.00061,0.9939120000000001
836,-22.888533,-11.474784,1.342794,0.00415,0.006714,1.010269
838,-21.301595000000002,-9.643702000000001,1.70901,0.046021,-0.011109,0.984634
840,-21.911955,-8.1178,1.7700470000000001,0.011597,-0.021606999999999998,1.018936
842,-19.958801,-7.324331,1.09865,0.001953,-0.029907999999999997,1.015274
844,-18.24979,-7.751583,0.549325,0.0177,-0.02295,1.005997
846,-21.606775,-5.737392,1.586938,0.054444000000000006,-0.025147,1.010147
848,-24.292363,-2.075227,2.990768,0.024291999999999998,-0.046021,1.016129
850,-23.071641,-0.366217,2.746624,0.012818000000000001,-0.068727,1.0234530000000002
852,-18.24979,-1.037613,2.380407,-0.005249,-0.045411,0.952407
854,-27.222095,-5.737392,2.563516,-0.033814,-0.04419,1.010636
856,-41.992828,-6.225681,2.80766,0.082521,-0.034058,1.084367
858,-51.392386,-0.427253,8.178836,0.069337,-0.078737,1.0481120000000002
860,-42.420081,2.990768,9.033341,0.034668,-0.083131,1.008194
862,-54.016938,1.7700470000000001,3.90631,-0.033448,-0.099489,0.992081
864,-40.222782,-1.09865,-18.982223,-0.069459,-0.091188,0.988663
866,-49.92752,11.657893,-42.786297,0.083742,-0.21423699999999998,1.076188
868,-13.672084,-1.159686,0.0,0.012451,-0.011353,0.985977
870,-83.61944,10.986496,-17.517357,0.040527999999999995,0.32874000000000003,0.926162
872,-176.272221,10.009917999999999,-4.333562000000001,0.008545,0.244877,0.440558
874,-427.00846900000005,-20.691233999999998,-29.785611,0.376104,0.655406,1.445457
876,-832.898451,-88.746471,118.471046,-0.096071,-0.048951,1.616114
878,-1030.10605,-190.188449,216.433967,-0.409186,-0.948989,1.9999689999999999
880,413.641566,-81.544213,-81.23903299999999,-0.002564,1.185199,1.9999689999999999
882,11.352712,-59.449149,-58.655680000000004,-0.6323340000000001,0.6576029999999999,0.33777399999999996
884,-27.832456,-59.449149,-25.940337,-0.417853,0.156497,0.885389
886,65.796902,-18.982223,-35.09575,-0.461921,0.61146,0.7370720000000001
888,105.77553999999999,-1.953155,-20.080873,-0.451301,0.44800500000000004,1.099016
890,133.730068,0.122072,-9.765774,-0.23083800000000002,0.49341599999999997,1.24416
892,201.846342,17.334249,-20.874342000000002,-0.032837,0.408698,1.222675
894,236.087587,35.88922,-34.912642,0.033692,0.237308,1.171527
896,267.460136,46.143282,-43.640803000000005,0.029541,0.11572400000000001,1.236591
898,296.818494,36.926833,-47.42504,0.112551,0.026489999999999996,1.1621270000000001
900,297.18471,37.476158,-55.90905600000001,0.137942,-0.220584,0.930434
902,260.502022,72.083619,-62.867169999999994,0.195804,-0.329229,0.816663
904,221.011673,70.618753,-70.313573,0.294682,-0.003052,1.7108419999999998
906,228.519112,75.135424,-76.722362,0.157351,-0.268681,1.9999689999999999
908,281.49843599999997,91.98138399999999,-67.872129,-0.038941,-0.560067,1.9999689999999999
910,286.381323,88.807507,-46.692607,-0.084596,-0.777844,1.9999689999999999
912,279.728389,95.94873,-27.466239,-0.031006,-0.853773,1.9999689999999999
914,277.042802,101.136797,-20.508125,0.405646,-0.8927139999999999,1.856718
916,232.242313,120.851453,-23.926146,0.296025,-1.400046,1.254414
918,145.632105,127.50438700000001,-8.484016,0.323125,-2.0000310000000003,0.8809950000000001
920,19.958801,182.43686599999998,-18.921187,0.5672689999999999,-2.0000310000000003,1.4770729999999999
922,135.011826,177.00465400000002,-4.394598,-0.08069,-2.0000310000000003,-0.612558
924,-172.365911,-103.39513199999999,103.517205,0.021363,-2.0000310000000003,-1.9797669999999998
926,-224.612802,-168.581674,92.469673,0.8368049999999999,-0.5179520000000001,1.996368
928,-175.173571,-113.832303,80.81178,0.341436,0.826551,1.0842450000000001
930,-331.97528,-69.398032,64.69825300000001,1.6063479999999999,-0.356451,1.207782
932,-219.485771,22.644388,-1.586938,0.344366,-0.670665,1.9999689999999999
934,-84.596017,-99.794003,49.134051,-1.8220490000000003,-0.498421,1.302022
936,-48.096437,-69.88632,6.591897,1.9999689999999999,0.049561,1.7652860000000001
938,-69.764248,-47.852292999999996,24.475471,-0.684947,-0.03418,0.973526
940,-72.999161,-28.198672,0.48828900000000003,0.20520300000000002,-0.107668,1.203265
942,-5.493248,-33.447776,-3.173877,0.23291399999999998,0.155642,0.9758450000000001
944,-23.743038000000002,-10.070953999999999,0.183108,0.003906,-0.066163,1.097063
946,-36.49958,-1.281758,3.234913,0.060792,0.023194,1.009659
948,-31.006332,2.197299,6.469825,0.05505499999999999,0.006592,0.9708399999999999
950,-30.090790999999996,0.9155409999999999,5.493248,-0.001831,-0.024413999999999998,1.066056
952,-22.217136,-0.061036,2.868696,-0.028076999999999998,-0.034668,1.0095370000000001
954,-17.822538,-2.868696,1.70901,0.000732,-0.031495,1.0008700000000001
956,-16.84596,-3.967346,0.976577,0.019287000000000002,-0.027466,0.984756
958,-19.104295,-4.455634,0.183108,0.031617,-0.038087,1.013809
960,-17.456321,-2.990768,-0.244144,0.037598,-0.052490999999999996,1.002213
962,-17.212177,-2.319371,0.671397,0.022705,-0.06579700000000001,0.9945219999999999
964,-17.334249,-1.586938,1.464866,0.031373000000000005,-0.054932,1.000626
966,-15.808347,-1.2207219999999999,1.7700470000000001,0.040406,-0.078614,1.022232
968,-11.23064,-0.976577,1.342794,0.012695999999999999,-0.055299,0.9745020000000001
970,-14.953841,-3.723201,0.732433,0.008301000000000001,-0.058106,0.969009
972,-18.982223,-7.446403,0.854505,-0.003296,-0.05835,1.012345
974,-18.616007,-7.385367,0.244144,0.059815,-0.05774,1.086809
976,-23.926146,-3.051804,0.427253,0.071778,-0.10278499999999999,0.928481
978,-22.400244,-0.427253,0.732433,0.052247,-0.058838999999999995,0.9956209999999999
980,-31.677729,3.173877,4.882887,0.061158000000000004,-0.036255,0.9694969999999999
982,-43.640803000000005,4.638743,7.385367,0.030639999999999997,-0.084108,0.973037
984,-55.115587,5.3101400000000005,10.254063,0.036622,-0.22070599999999999,1.0365149999999999
986,-22.278172,3.173877,8.300908,-0.020386,-0.10583699999999999,1.0000149999999999
988,-31.860838,-3.90631,-10.498207,-0.11645699999999999,-0.150515,1.030777
990,-50.659953,0.48828900000000003,-40.833143,0.002686,-0.258915,1.020157
992,-10.193027,-8.300908,-22.705425,0.169802,-0.305913,1.0865639999999999
994,-21.179522,3.6621650000000003,-4.882887,0.08618300000000001,0.14111500000000002,0.9870760000000001
996,-112.001221,30.884259999999998,-23.682002,0.070069,0.237186,0.870497
998,-171.26726200000002,-24.780652,-16.174563,-0.390509,0.11218399999999999,0.980728
1000,-535.835813,-48.950942,-59.998474,-0.318242,0.528328,1.33901
1002,-836.682689,-196.353094,62.745098,-0.047242,0.045045,0.9466700000000001
1004,-1217.303731,-178.225376,237.1252,-0.738537,-1.281147,1.9999689999999999
1006,337.041276,33.081559000000006,-75.562676,-0.408942,0.9713280000000001,1.9999689999999999
1008,67.750057,26.001373,-23.987182,-0.8247200000000001,0.7323109999999999,1.298848
1010,-18.738079,-48.157472999999996,62.256809,-0.32227100000000003,0.360723,0.681041
1012,123.170825,-23.559929999999998,40.650034000000005,-0.08484,0.472419,0.5924159999999999
1014,116.88410800000001,-23.254749,35.706111,-0.001221,0.36463,1.1772639999999999
1016,184.695201,-11.23064,8.239872,0.20691199999999998,0.468025,1.160662
1018,225.58937999999998,15.503166,-23.071641,0.171023,0.297002,1.1497979999999999
1020,255.863279,25.391012,-37.90341,-0.0037840000000000005,0.106447,1.134051
1022,294.254978,20.996414,-38.635843,-0.042969,-0.033082,1.3513389999999998
1024,324.773022,29.541465999999996,-37.90341,0.072145,-0.12903,1.306538
1026,330.632486,41.565576,-49.744411,0.207279,-0.35217800000000005,0.777478
1028,275.82207999999997,76.478218,-66.468299,0.356451,-0.429084,0.598642
1030,226.504921,64.45410799999999,-82.21561,0.25195700000000004,-0.323613,1.509667
1032,217.776761,66.468299,-87.098497,0.067018,-0.404913,1.9999689999999999
1034,248.90516499999998,93.690394,-80.445563,-0.12487999999999999,-0.7092390000000001,1.9999689999999999
1036,256.35156800000004,97.169451,-53.467613,-0.11950899999999999,-0.8570690000000001,1.9999689999999999
1038,302.128634,93.934539,-36.438544,0.32556599999999997,-0.8973530000000001,1.974884
1040,262.211032,106.263828,-46.814679,0.702037,-0.741711,1.567041
1042,232.364385,93.080034,-57.862211,0.323857,-0.960098,1.579858
1044,197.146563,64.759289,-35.767146999999994,-0.200931,-1.727077,1.265522
1046,123.90325800000001,72.14465600000001,-14.0383,0.395636,-2.0000310000000003,0.754162
1048,75.745785,140.505074,-22.034028,0.322881,-2.0000310000000003,0.008911
1050,-34.424353,46.631571,44.373236,-0.533944,-2.0000310000000003,-1.692409
1052,-247.19615499999998,-225.28419900000003,130.312047,0.725963,-1.7991,0.490608
1054,-96.375982,-91.126879,65.186542,0.140017,0.404181,1.9999689999999999
1056,-213.748379,-111.329824,77.210651,1.419699,0.300664,-0.046632
1058,-305.607691,-71.839475,41.138323,1.20351,-0.10315099999999999,1.9999689999999999
1060,-127.38231499999999,-21.301595000000002,-0.183108,-0.735851,-0.42468900000000004,1.6992450000000001
1062,-126.894026,-135.439078,52.368963,0.357427,0.096925,1.9999689999999999
1064,-66.529335,-12.939651,-1.09865,0.368658,0.197147,1.693874
1066,-42.1149,-60.852979000000005,3.418021,0.499275,0.0058590000000000005,1.772
1068,-33.752956,-14.587625,-1.464866,-0.176272,-0.15259,1.1648129999999999
1070,-1.464866,-15.930419,0.671397,0.073365,0.084352,0.9643700000000001
1072,-12.939651,-14.953841,3.6621650000000003,0.075441,0.026123,0.98024
1074,-14.770732999999998,-9.52163,6.469825,0.096193,-0.004761,1.060685
1076,-15.13695,-2.746624,6.347753,0.080446,0.015869,1.060319
1078,-6.042573,3.418021,5.432212,0.048463,0.037842,0.977066
1080,-17.151141,2.380407,4.028382,-0.019043,0.010254000000000001,0.9049209999999999
1082,-23.010604999999998,-0.183108,1.586938,0.01355,0.018799,1.015274
1084,-19.958801,1.159686,1.8310830000000002,0.060182000000000006,0.07067999999999999,1.069718
1086,-23.315785,1.464866,1.2207219999999999,0.052003,0.004761,1.015885
1088,-24.536507,-0.244144,-0.366217,0.045288999999999996,-0.045411,1.0199129999999998
1090,-20.630198,-2.563516,-0.671397,0.015503,-0.035889,0.9907379999999999
1092,-21.667811,-5.9205,-1.8921189999999999,0.020263999999999997,-0.058717,0.996841
1094,-16.235599,-6.347753,-1.2207219999999999,0.035767,-0.075929,1.01149
1096,-12.268253999999999,-5.188067,-0.30518,0.058717,-0.08630499999999999,1.028946
1098,-2.80766,-1.8310830000000002,0.671397,0.0636,-0.072755,1.010391
1100,-9.460594,-0.793469,1.70901,0.040894,-0.03418,0.964126
1102,-18.616007,-0.244144,2.50248,0.039918,-0.034302,0.9232319999999999
1104,-16.113526999999998,0.6103609999999999,1.342794,0.034791,-0.048341,0.9976959999999999
1106,-25.024796,0.793469,0.671397,0.028199000000000002,-0.04712,0.982193
1108,-27.100022999999997,0.48828900000000003,-0.244144,0.024537,-0.046387,0.9754790000000001
1110,-34.302281,1.464866,2.014191,0.072389,-0.06994700000000001,1.0000149999999999
1112,-46.692607,6.164645,10.864424,0.049194999999999996,-0.107668,0.993179
1114,-43.823910999999995,7.446403,6.836042,-0.021363,-0.098512,0.977188
1116,-32.410163,2.319371,-7.507439,-0.016846,-0.079347,1.023941
1118,-40.650034000000005,4.5166699999999995,-30.090790999999996,-0.030151999999999998,-0.13086099999999998,1.021012
1120,-30.884259999999998,11.535821,-31.372549,0.24548699999999998,-0.411627,1.085466
1122,9.704738,11.596857,15.197985999999998,-0.055665,0.160891,1.037247
1124,-116.639963,29.602502,-4.577707,0.124025,0.152102,0.851698
1126,-227.96978700000003,-0.9155409999999999,-8.545052,-0.377691,0.324468,0.74464
1128,-585.763333,-19.836728,0.732433,-0.41272600000000004,0.38709099999999996,1.7217060000000002
1130,-857.25185,-85.206378,130.43411899999998,0.042481,0.21130700000000002,0.8686659999999999
1132,-1084.611276,-78.00412,186.953536,-0.6007170000000001,-1.9532770000000002,1.9999689999999999
1134,194.949264,-4.943923000000001,-28.015564,-0.562875,0.551766,1.9999689999999999
1136,-207.522698,5.859464,63.294422999999995,-0.963516,0.885634,1.99649
1138,77.515831,-5.188067,56.153201,-0.425422,0.34070300000000003,1.9355759999999997
1140,66.468299,-58.899825,77.57686700000001,0.058227999999999995,0.539925,1.5715569999999999
1142,213.56527000000003,-58.838788,33.447776,0.317021,0.537362,1.379538
1144,240.726329,-31.921874,-15.930419,0.403204,0.264164,1.081926
1146,258.243687,21.423667000000002,-67.261769,0.190921,0.05139199999999999,0.717296
1148,261.417563,22.888533,-78.00412,-0.17236600000000002,-0.13086099999999998,0.846448
1150,278.69077599999997,-15.13695,-61.280232,-0.25098000000000004,-0.12268299999999999,1.2568549999999998
1152,317.998016,-5.432212,-53.162431999999995,-0.116701,-0.153201,1.844755
1154,364.019226,39.368276,-53.589684999999996,-0.066773,-0.332403,1.8157020000000001
1156,384.466316,57.984283,-50.415808,0.059449,-0.556527,1.1259940000000002
1158,330.87663100000003,84.290837,-65.186542,0.398566,-0.753429,-0.143557
1160,200.259403,63.111315000000005,-77.63790300000001,0.31995100000000004,-0.42017200000000005,1.072648
1162,192.935073,45.532921,-90.943771,0.065309,-0.34216799999999997,1.9999689999999999
1164,307.133593,98.390173,-81.23903299999999,-0.255619,-1.031876,1.9999689999999999
1166,249.271382,88.92958,-40.10071,-0.092164,-1.065446,1.9999689999999999
1168,326.482033,76.722362,-31.433584999999997,0.544442,-1.037491,1.7995880000000002
1170,258.487831,62.256809,-39.551384999999996,0.326787,-1.3125200000000001,1.4924540000000002
1172,215.274281,67.322805,-33.447776,0.10315099999999999,-1.9855040000000002,1.158587
1174,134.462501,85.206378,-28.381781,0.655406,-2.0000310000000003,0.70338
1176,93.14107,122.194247,-48.279545,0.354376,-2.0000310000000003,-0.591318
1178,-52.552071,-3.356985,33.813992999999996,-0.457649,-1.931914,0.036133
1180,-248.294804,-231.26573599999998,94.361791,0.786145,-1.013565,0.5824060000000001
1182,-92.408637,-78.248264,7.507439,-0.594125,1.060685,1.9364310000000002
1184,-382.81834100000003,-144.472419,128.23682,0.70399,-0.575937,0.42883999999999994
1186,-247.623407,-61.524376000000004,52.491035,1.733791,-0.042602999999999995,1.9999689999999999
1188,-130.92240800000002,-2.075227,-14.404517000000002,0.02417,-0.10009900000000001,1.6068360000000002
1190,-138.002594,-97.840848,62.195772999999996,-0.8941790000000001,-0.406378,1.775296
1192,-56.153201,-45.716029999999996,7.01915,1.2165709999999998,0.14538800000000002,1.629297
1194,-57.984283,-44.92256,11.963073,-0.316777,-0.097414,1.186664
1196,-38.330663,-12.024109,-2.075227,-0.02356,-0.10852200000000001,1.112688
1198,-8.361944,-18.127717999999998,-2.075227,0.13305899999999998,0.087404,0.9593649999999999
1200,-19.470512,-11.169604,0.48828900000000003,0.001709,0.022216999999999997,1.047868
1202,-21.606775,2.746624,2.929732,0.047608,0.024781,1.099992
1204,-13.000687,6.775005999999999,4.8218510000000006,0.04419,0.032349,1.016373
1206,-11.352712,5.3101400000000005,4.8218510000000006,0.006592,-0.072267,0.986099
1208,-9.82681,2.990768,3.234913,-0.019165,0.009888,0.9873200000000001
1210,-5.981537,1.7700470000000001,0.549325,0.003906,0.017334,1.0520180000000001
1212,-5.981537,0.366217,3.1128400000000003,-0.0070799999999999995,-0.053467999999999995,0.9461809999999999
1214,-11.535821,-3.173877,2.990768,0.005249,-0.020874,1.008316
1216,-7.6905470000000005,-3.051804,2.563516,-0.006104,-0.037842,0.968276
1218,-12.32929,-7.141222,0.48828900000000003,-0.025757,-0.046508999999999995,0.916884
1220,-13.000687,-11.902037,0.122072,-0.008667,0.032837,1.038712
1222,-14.709697,-12.085144999999999,-0.48828900000000003,0.027832,-0.029907999999999997,1.0160069999999999
1224,-11.841001,-9.887846000000001,-0.30518,0.016114,-0.030883999999999998,0.9973299999999999
1226,-13.244831,-9.582666,-0.183108,0.051514,-0.063111,1.037125
1228,-9.033341,-5.737392,1.037613,0.042969,-0.040894,0.998917
1230,-9.887846000000001,-2.624552,2.136263,0.031983,-0.038697,0.98854
1232,-17.273213000000002,-2.868696,2.2583349999999998,0.019653999999999998,-0.015015,0.9602200000000001
1234,-23.437858,-4.333562000000001,3.1128400000000003,0.027222000000000003,-0.020386,0.992691
1236,-30.945296000000003,-6.042573,2.685588,0.0063479999999999995,-0.013306,0.94435
1238,-36.49958,-2.80766,2.136263,0.008667,-0.130617,1.043717
1240,-28.137635999999997,1.464866,8.484016,0.078737,-0.012818000000000001,0.953384
1242,-61.768521,3.418021,10.620279,-0.009766,-0.070314,0.948989
1244,-64.148928,-0.6103609999999999,0.549325,-0.010986,-0.070802,0.9941559999999999
1246,-57.862211,-2.4414439999999997,-14.0383,-0.067018,-0.1897,1.0213780000000001
1248,-45.044633000000005,6.042573,-36.133364,0.052369000000000006,-0.20288399999999998,1.084977
1250,-31.189441,1.464866,-12.63447,0.180179,-0.321416,1.109514
1252,-47.547112,7.446403,-6.103609,0.014038,0.099977,1.069963
1254,-143.86205800000002,33.447776,-18.127717999999998,-0.071778,0.448615,0.866712
1256,-229.617762,-36.011292,3.540093,0.151247,1.253193,1.074968
1258,-697.642481,-125.673304,-37.781338,-1.067033,-0.235355,1.9999689999999999
1260,-958.8159,-285.64889,143.73998600000002,0.133913,-0.556771,1.369039
1262,-339.665827,-108.278019,110.902571,-0.8053100000000001,-0.486336,1.9999689999999999
1264,341.863127,53.589684999999996,-78.736553,-0.010498,1.4969709999999998,0.898451
1266,-81.23903299999999,-36.011292,35.400931,-0.454719,0.19202,0.053712
1268,71.778439,-11.108568,9.155413000000001,-0.313603,0.163333,0.782116
1270,70.618753,-3.540093,15.075914000000001,-0.10669100000000001,0.501595,0.9167620000000001
1272,145.998322,1.8310830000000002,2.319371,0.033448,0.442512,1.199359
1274,174.99046299999998,3.6621650000000003,-14.0383,0.12695499999999998,0.408942,1.129412
1276,223.20897200000002,25.940337,-36.255435999999996,0.11804400000000001,0.325444,1.2442819999999999
1278,266.544595,38.818952,-48.82887,0.081666,0.095338,1.427634
1280,310.12436099999996,32.471199,-52.67414399999999,0.110597,-0.048463,1.036759
1282,313.237202,24.353399,-61.524376000000004,0.28809,-0.073487,1.028458
1284,299.809262,46.753643,-87.037461,0.266361,-0.352667,0.8563360000000001
1286,250.492103,98.207065,-99.24467800000001,0.22717600000000002,-0.389899,0.8846569999999999
1288,212.95491,95.277333,-109.07148899999999,0.26978,-0.240116,1.9999689999999999
1290,244.693675,115.968566,-94.728008,-0.137575,-0.7052109999999999,1.9999689999999999
1292,259.952697,121.21767,-61.158159999999995,-0.103395,-0.8676889999999999,1.9999689999999999
1294,242.67948399999997,124.696727,-30.151827,0.026978,-1.1057299999999999,1.9999689999999999
1296,238.16281400000003,130.861372,-1.281758,0.20679,-1.208515,1.9999689999999999
1298,269.901579,96.070802,16.418708,0.543465,-1.2561229999999999,1.770657
1300,241.45876299999998,66.102083,29.053178000000003,0.377569,-1.7119400000000002,1.517113
1302,207.94995,49.683375,37.354085999999995,0.191897,-2.0000310000000003,0.647471
1304,114.930953,79.346914,20.874342000000002,0.605478,-2.0000310000000003,0.096803
1306,-47.180896000000004,39.551384999999996,30.884259999999998,0.04773,-2.0000310000000003,-1.6369879999999999
1308,-256.656748,-155.642023,100.70954499999999,0.92079,-2.0000310000000003,-0.573983
1310,-161.440452,-100.282292,12.756542,0.697276,1.167987,1.9999689999999999
1312,-321.35500099999996,-116.76203600000001,49.195087,0.35046900000000003,-0.6936140000000001,1.253803
1314,-222.23239500000003,-71.412222,44.068055,0.36536199999999996,-0.10071000000000001,1.9999689999999999
1316,-90.211337,-20.202945,31.616692999999998,0.172,-0.10241900000000001,0.827039
1318,-136.04943899999998,-51.514458000000005,26.306554,0.475959,-0.650767,1.9999689999999999
1320,-69.275959,-26.184482,7.629511,0.05505499999999999,-0.098634,0.8726940000000001
1322,-36.621653,-20.630198,-3.479057,-0.008545,-0.103029,0.996475
1324,-35.278859000000004,-18.432898,0.976577,0.10901,-0.003296,1.060319
1326,-29.17525,-12.878614,-0.244144,0.055177,-0.004028,1.111589
1328,-21.728847000000002,-7.446403,0.061036,0.060426,-0.000977,0.9748680000000001
1330,-25.085832,0.793469,2.563516,0.079591,-0.008179,1.036759
1332,-25.635157,3.295949,3.723201,0.000244,-0.012695999999999999,0.999771
1334,-25.024796,3.356985,3.051804,0.025269,-0.043336,1.033097
1336,-19.165332,4.089418,2.685588,0.022705,-0.04065,1.040055
1338,-15.075914000000001,4.638743,2.2583349999999998,0.012818000000000001,-0.042481,1.010636
1340,-15.625238000000001,3.6011290000000002,2.197299,0.01709,-0.054565999999999996,0.9786530000000001
1342,-15.869383,2.136263,2.014191,0.00647,-0.033326,0.9793850000000001
1344,-18.432898,0.793469,1.037613,0.001099,-0.040772,0.989883
1346,-15.625238000000001,0.122072,0.976577,0.012573,-0.08777,1.0116120000000002
1348,-15.075914000000001,-0.671397,1.70901,0.004517,-0.057252,0.9942780000000001
1350,-15.808347,-1.342794,1.525902,0.02417,-0.088502,1.025528
1352,-7.812619000000001,-0.244144,1.70901,0.004883,-0.072999,0.977676
1354,-11.291675999999999,-1.09865,0.976577,0.001221,-0.07715,0.985245
1356,-12.878614,-2.624552,0.854505,0.0035399999999999997,-0.084108,0.9909819999999999
1358,-10.498207,-3.90631,1.342794,0.018921,-0.07434199999999999,0.999527
1360,-10.559242999999999,-4.333562000000001,1.464866,0.032593000000000004,-0.078248,0.984634
1362,-20.325017000000003,0.793469,0.48828900000000003,0.027587999999999998,-0.122927,0.969131
1364,-17.822538,1.40383,2.136263,0.009276999999999999,-0.075929,0.9746239999999999
1366,-28.0766,1.09865,4.028382,-0.001099,-0.09838999999999999,0.999893
1368,-33.264668,2.685588,7.263294,0.020142,-0.09362899999999999,0.999771
1370,-37.59823,4.8218510000000006,10.376135000000001,-0.009033,-0.14868399999999998,1.033219
1372,-28.198672,3.295949,4.8218510000000006,-0.040894,-0.109133,0.9834129999999999
1374,-25.207904,-4.150454,-8.1178,-0.021485,-0.11523599999999999,0.992081
1376,-47.852292999999996,3.723201,-35.400931,0.019653999999999998,-0.022338999999999998,0.91371
1378,-17.151141,0.6103609999999999,-16.906996,0.14331300000000002,-0.333135,1.0283360000000001
1380,-11.963073,-0.9155409999999999,-8.42298,0.023804,0.053712,0.9901270000000001
1382,-107.057298,9.338521,-22.949569,0.060548000000000005,0.16858199999999998,0.973404
1384,-154.970626,-14.465553,-37.59823,-0.25696199999999997,0.111574,0.8878309999999999
1386,-505.62295,-16.357671,-89.23476,0.12976300000000002,0.773938,1.502464
1388,-820.080873,-191.042954,23.498894,-0.311406,-0.074586,1.384176
1390,-1184.71046,-283.81780699999996,223.514153,-1.2899370000000001,-0.397345,1.9999689999999999
1392,374.45639700000004,-6.897078,-62.195772999999996,-0.356817,0.7954220000000001,1.9999689999999999
1394,84.534981,38.452735,-35.400931,-0.6677350000000001,0.47022200000000003,0.094484
1396,-81.055924,-21.423667000000002,75.928893,-0.208377,0.33862800000000004,0.190066
1398,81.849393,15.320058,31.921874,-0.048951,0.427375,0.596689
1400,57.801175,6.591897,30.518044,0.031006,0.47180900000000003,0.9922030000000001
1402,133.241779,8.606088,9.948882000000001,0.097536,0.5512779999999999,1.06154
1404,178.042268,12.268253999999999,-9.094377,0.106813,0.391119,1.295308
1406,226.99321,24.658579,-22.827497,0.011353,0.18799100000000002,1.26833
1408,268.07049700000005,26.245518,-24.170291,-0.014405000000000001,0.012085,1.274311
1410,295.963989,26.245518,-23.254749,0.083131,-0.10925499999999999,1.325948
1412,314.946212,25.574120999999998,-32.288090000000004,0.246464,-0.2439,1.0472569999999999
1414,282.53604900000005,43.335622,-56.458381,0.386481,-0.525887,0.526864
1416,214.41977599999998,72.266728,-70.008392,0.225345,-0.42468900000000004,1.262593
1418,210.33035800000002,70.313573,-71.16807800000001,-0.026489999999999996,-0.417731,1.9999689999999999
1420,243.472953,78.187228,-55.176623,-0.094118,-0.784802,1.9999689999999999
1422,245.914397,96.25391,-39.734493,0.04712,-0.929702,1.635523
1424,214.114595,101.747158,-32.410163,0.21325999999999998,-0.9212790000000001,1.9999689999999999
1426,224.06347799999998,110.29221000000001,-31.372549,0.292241,-0.8802620000000001,1.9999689999999999
1428,226.81010099999997,79.77416600000001,-25.879301,0.313237,-0.919692,1.9999689999999999
1430,257.938506,36.377508,-24.536507,0.22803099999999998,-1.145525,1.482933
1432,216.983291,44.251164,-12.756542,-0.153933,-1.6634779999999998,0.858534
1434,146.73075500000002,49.134051,21.606775,0.038331,-2.0000310000000003,0.48535900000000004
1436,76.661326,45.716029999999996,31.067369,0.550912,-2.0000310000000003,-0.163333
1438,-20.935378,6.897078,50.537881,0.22571100000000002,-1.8890669999999998,-0.089723
1440,-266.239414,-129.39650600000002,79.71313,0.819593,-1.5046620000000002,-0.385748
1442,-89.23476,-66.83451600000001,14.526589000000001,-0.147341,1.266865,1.9999689999999999
1444,-316.044862,-101.197833,53.955901000000004,0.04358,-0.220218,0.026123
1446,-257.57229,-43.701839,46.814679,1.252583,-0.18493900000000002,1.9999689999999999
1448,-155.886168,23.804074,-10.803388,0.038819,-0.233646,1.7993439999999998
1450,-107.362478,-68.909743,47.73022,-1.293477,-0.606577,1.076799
1452,-64.820325,-68.299382,21.240558,1.6148930000000001,0.12573399999999998,1.9999689999999999
1454,-66.102083,-32.288090000000004,16.540779999999998,-0.501106,0.06006,1.006363
1456,-61.524376000000004,-18.738079,-1.159686,0.223514,-0.099489,1.598169
1458,-5.249104,-18.127717999999998,-2.136263,0.205692,0.142336,0.992447
1460,-20.752270000000003,-12.817578,3.234913,0.039307,-0.030396,1.222553
1462,-20.569162,-5.3101400000000005,4.150454,0.018433,0.029541,1.050431
1464,-17.395285,-2.868696,3.723201,0.011231,0.002564,0.9792629999999999
1466,-20.263981,-4.272526,3.418021,0.0070799999999999995,-0.007935,1.029191
1468,-15.686275,-5.61532,1.7700470000000001,0.000732,-0.032715,1.01735
1470,-12.695506,-6.775005999999999,0.549325,-0.014405000000000001,-0.028687,1.010025
1472,-8.606088,-7.080186,0.30518,0.004028,-0.013672,0.992935
1474,-11.841001,-6.164645,-0.183108,0.015259,-0.094362,0.9504540000000001
1476,-13.000687,-5.61532,0.0,0.009766,-0.020996,0.992447
1478,-15.747310999999998,-5.493248,0.427253,0.0058590000000000005,-0.027832,1.0047760000000001
1480,-12.207218,-4.943923000000001,0.48828900000000003,0.012206999999999999,-0.046143,1.0396889999999999
1482,-7.263294,-4.394598,-0.732433,0.009766,-0.038209,0.945205
1484,-19.34844,-6.469825,-1.586938,0.007812999999999999,-0.00061,0.937514
1486,-26.67277,-6.347753,-2.014191,0.024048,-0.065064,1.034928
1488,-21.728847000000002,-2.624552,-0.732433,0.038697,-0.10363900000000001,1.073747
1490,-10.803388,1.342794,1.8921189999999999,0.03418,-0.095705,1.0560459999999998
1492,-6.408789,1.586938,1.8310830000000002,0.0023190000000000003,-0.05127,0.973159
1494,-7.324331,-0.976577,0.732433,0.015259,-0.072145,0.9908600000000001
1496,-11.047532,-0.9155409999999999,0.183108,0.05127,-0.075563,0.9043110000000001
1498,-5.859464,-1.464866,-0.427253,0.033569999999999996,-0.034913,0.991714
1500,-13.550010999999998,-1.2207219999999999,-0.549325,0.031983,-0.069459,1.0160069999999999
1502,-15.014878,0.183108,0.671397,0.017578,-0.069215,0.984878
1504,-18.432898,0.6103609999999999,2.014191,0.012451,-0.07910299999999999,0.9858549999999999
1506,-23.132676999999997,-0.732433,1.342794,-0.000732,-0.072267,0.9902489999999999
1508,-24.719615,-1.037613,-0.183108,0.049317,-0.059937,0.9983059999999999
1510,-33.69192,2.075227,1.464866,0.02356,-0.115602,1.016129
1512,-39.30724,6.775005999999999,4.333562000000001,0.044068,-0.126223,1.034806
1514,-27.405203000000004,12.695506,4.943923000000001,0.020874,-0.114748,1.033951
1516,-25.513085,14.465553,-3.540093,-0.005249,-0.11084200000000001,0.9472799999999999
1518,-42.053864000000004,21.423667000000002,-33.447776,0.032227,-0.24365599999999998,0.94789
1520,-15.320058,4.943923000000001,-5.7984279999999995,-0.084718,0.117556,0.878431
1522,-112.61158200000001,-8.056764,-25.146867999999998,0.007935,0.299199,0.8318
1524,-163.94293100000002,-7.2022580000000005,-0.427253,-0.164553,0.352667,1.2992139999999999
1526,-357.122148,-9.887846000000001,-43.823910999999995,0.015991,0.020630000000000003,1.095232
1528,-496.833753,-127.016098,-7.629511,-0.41724300000000003,-0.30396,0.687755
1530,-565.98764,-201.113909,39.30724,0.118898,-0.464363,0.808606
1532,-494.270237,-145.876249,121.095598,-0.544808,0.156863,1.9999689999999999
1534,96.681163,-15.13695,-38.086519,-0.025513,0.9547260000000001,1.9999689999999999
1536,0.732433,24.719615,-21.728847000000002,-0.32507800000000003,0.311284,1.6985119999999998
1538,151.369497,24.536507,-18.127717999999998,-0.327276,0.241337,0.538949
1540,113.71023100000001,18.188754,-3.295949,-0.196292,0.103273,0.35339899999999996
1542,127.870604,36.987869,-4.943923000000001,-0.129885,0.17554,0.460212
1544,146.73075500000002,39.734493,-11.291675999999999,0.12134,0.182376,1.006851
1546,186.648356,54.810407,-32.104982,0.255619,0.016846,1.317647
1548,225.467308,78.00412,-55.664912,0.335088,-0.23047199999999998,1.270161
1550,244.632639,87.220569,-61.890593,-0.014527000000000002,-0.7224229999999999,1.233906
1552,256.16846,70.679789,-35.584039000000004,-0.203861,-0.992691,1.080827
1554,245.975433,57.007706000000006,7.01915,-0.461433,-1.151873,0.849866
1556,214.23666699999998,46.997787,57.557031,-0.5196609999999999,-1.050431,0.90248
1558,199.52697,42.175937,94.97215200000001,0.105104,-0.793957,1.131243
1560,192.141604,51.209277,76.295109,0.8768440000000001,-0.515267,1.385519
1562,191.226062,58.228428,29.419394,0.881727,-0.442267,1.213886
1564,180.422675,30.640116,4.699779,0.532723,-0.486458,1.309346
1566,169.436179,11.841001,-4.028382,0.172854,-0.748791,1.389792
1568,146.547646,17.334249,-6.164645,-0.136599,-1.124895,0.953506
1570,93.568322,41.565576,-1.2207219999999999,-0.256229,-1.348287,0.549569
1572,21.301595000000002,73.12123299999999,21.301595000000002,-0.169802,-1.381613,0.8108029999999999
1574,-20.569162,-0.427253,61.646448,0.126711,-1.6482189999999999,0.010376
1576,-72.266728,-73.30434100000001,57.373922,1.2606389999999998,-1.612696,0.330938
1578,-44.434272,-19.836728,-20.202945,0.517708,-0.038575,1.150408
1580,-148.01251200000002,-19.104295,12.756542,-1.9151900000000002,0.462776,1.9999689999999999
1582,20.752270000000003,-89.112688,-8.728161,0.544808,0.199466,1.9999689999999999
1584,-15.625238000000001,4.760815,0.671397,-0.37171,-0.086061,0.58143
1586,-57.190814,-28.442816999999998,10.193027,0.393561,0.112673,0.913588
1588,-44.678416,3.540093,9.82681,-0.195682,-0.12732100000000002,1.0037989999999999
1590,-22.766461,-9.399557000000001,5.493248,-0.056641,0.141726,0.819593
1592,-39.795528999999995,-20.569162,3.1128400000000003,0.031006,-0.0448,1.135393
1594,-32.837415,-17.456321,0.366217,-0.024781,-0.008789,0.9803620000000001
1596,-36.1944,-15.503166,-0.48828900000000003,-0.008789,-0.052369000000000006,1.0251620000000001
1598,-26.306554,-11.23064,0.671397,0.052247,-0.048951,0.978042
1600,-22.217136,-9.277485,0.671397,0.0043950000000000005,-0.042359,1.03798
1602,-21.179522,-8.361944,-0.6103609999999999,0.022583000000000002,-0.069093,1.0567790000000001
1604,-14.587625,-5.9205,-0.671397,0.031617,-0.06482,1.030167
1606,-11.657893,-4.21149,-0.6103609999999999,0.010742,-0.057984,0.9987950000000001
1608,-13.000687,-4.089418,-0.366217,0.014038,-0.068116,1.01796
1610,-5.981537,-2.075227,-0.427253,0.020752,-0.086427,1.029679
1612,-3.845274,-1.586938,-0.549325,0.022827,-0.08520599999999999,1.0274809999999999
1614,-1.464866,-1.09865,0.244144,0.027587999999999998,-0.059449,0.9907379999999999
1616,-5.737392,-1.2207219999999999,0.30518,0.020263999999999997,-0.05712999999999999,1.009293
1618,-5.981537,-0.732433,0.061036,0.016846,-0.083986,1.01857
1620,-4.638743,0.122072,-0.122072,0.029664,-0.095338,0.989517
1622,1.70901,0.549325,-0.30518,0.022338999999999998,-0.06421,1.010147
1624,0.854505,0.122072,-0.6103609999999999,0.017945,-0.070314,0.997086
1626,0.122072,0.854505,-0.48828900000000003,0.031006,-0.061158000000000004,1.001846
1628,0.671397,2.868696,0.0,0.027222000000000003,-0.079835,1.019547
1630,2.014191,4.577707,0.549325,0.019165,-0.080079,1.018692
1632,4.333562000000001,5.7984279999999995,0.366217,0.027587999999999998,-0.082643,1.0215
1634,8.300908,6.836042,1.09865,-0.007201999999999999,-0.083009,1.0251620000000001
1636,9.52163,2.319371,0.061036,-0.025757,-0.014893,0.9156629999999999
1638,-3.540093,-2.319371,-1.70901,-0.001221,-0.06274500000000001,0.992813
1640,-2.746624,-2.4414439999999997,-2.50248,0.014038,-0.06775,0.9935450000000001
1642,0.671397,-0.244144,-1.8310830000000002,0.023804,-0.079713,1.028824
1644,3.356985,1.8921189999999999,-0.671397,0.026612,-0.073976,1.022721
1646,6.042573,2.929732,0.061036,0.008179,-0.059692999999999996,1.002213
1648,5.7984279999999995,2.80766,0.48828900000000003,0.0074459999999999995,-0.073854,1.009049
1650,7.263294,2.50248,0.549325,0.0035399999999999997,-0.050660000000000004,0.995499
1652,5.9205,1.525902,-0.122072,0.010620000000000001,-0.053956,0.997574
1654,6.71397,1.70901,-0.366217,0.014893,-0.055299,1.010636
1656,8.056764,2.2583349999999998,-0.366217,0.00647,-0.053834,1.016129
1658,9.948882000000001,2.685588,-0.976577,0.001831,-0.061402,0.98793
1660,9.399557000000001,0.061036,-1.647974,-0.021606999999999998,0.0094,0.906264
1662,-1.953155,-2.685588,-1.7700470000000001,0.0,-0.052125,1.015274
1664,0.244144,0.061036,-1.159686,0.015991,-0.055542999999999995,1.018692
1666,2.197299,1.586938,-0.793469,0.011109,-0.048219,1.009293
1668,2.868696,2.197299,-0.976577,0.010131999999999999,-0.056031,1.0116120000000002
1670,5.065995,2.929732,-0.183108,0.007812999999999999,-0.053834,1.009781
1672,6.591897,3.234913,0.30518,0.007324,-0.044556,1.006851
1674,6.591897,3.234913,0.30518,0.004273,-0.038697,1.015763
1676,8.300908,3.784237,0.366217,0.005249,-0.042115,1.0091709999999998
1678,10.193027,6.164645,0.732433,0.014893,-0.044068,1.0283360000000001
1680,16.174563,8.850233,1.647974,0.005005,-0.052490999999999996,1.0352940000000002
1682,19.775692000000003,9.948882000000001,1.647974,-0.007568000000000001,-0.014405000000000001,0.972305
1684,13.611048,6.958114,0.549325,-0.042602999999999995,0.00061,0.9201799999999999
1686,5.9205,1.037613,-0.549325,-0.037232,0.038575,0.917617
1688,0.061036,-1.281758,-1.281758,-0.002441,-0.06006,1.057267
1690,8.850233,2.075227,0.061036,-0.006836,-0.035889,1.0202790000000002
1692,10.864424,1.525902,-0.30518,-0.003418,0.004639,0.9712059999999999
1694,5.493248,-1.8310830000000002,-0.183108,-0.037964,-0.011719,1.0008700000000001
1696,-1.586938,-4.089418,0.366217,-0.010376,0.037964,0.92079
1698,-1.037613,-2.929732,0.671397,0.063233,-0.047242,1.079118
1700,11.963073,3.356985,2.075227,-0.028443,-0.059449,1.095842
1702,11.535821,-0.793469,1.70901,-0.035279000000000005,0.066163,1.000504
1704,2.929732,-6.225681,-1.2207219999999999,-0.046387,0.12109600000000001,0.8452280000000001
1706,-21.606775,-11.718929,-2.50248,-0.009155,-0.028443,1.032486
1708,-12.207218,-9.887846000000001,-3.356985,0.011231,-0.018189,1.002579
1710,-0.061036,-6.775005999999999,-2.929732,0.068971,-0.09546,1.167742
1712,1.09865,5.249104,-0.183108,0.019043,0.026856,1.006363
1714,-5.737392,8.545052,0.671397,-0.055421000000000005,0.019409,0.940688
1716,2.50248,4.394598,-0.793469,-0.023926,0.002441,0.976333
1718,-1.281758,0.366217,-1.09865,-0.043336,-0.06286699999999999,0.9594870000000001
1720,5.065995,-3.295949,-1.40383,0.031373000000000005,-0.044923000000000005,1.06569
1722,0.671397,-2.380407,0.0,-0.025879000000000003,-0.012451,1.003311
1724,0.183108,-3.540093,-0.9155409999999999,-0.021606999999999998,0.044068,0.933242
1726,-4.089418,-9.033341,-3.051804,-0.013916,-0.008911,0.973037
1728,-4.333562000000001,-9.643702000000001,-4.21149,0.011597,-0.007691,1.0213780000000001
1730,-7.141222,-6.469825,-3.051804,0.027466,-0.020142,1.026383
1732,0.427253,-4.028382,-2.746624,-0.010376,-0.014282,1.002213
1734,3.540093,-1.7700470000000001,-2.563516,0.034058,-0.015259,0.9952540000000001
1736,-4.8218510000000006,0.427253,-0.549325,0.032349,-0.084718,0.976211
1738,-1.40383,1.159686,-0.427253,-0.000122,-0.030762,1.025772
1740,2.014191,2.136263,-0.122072,0.036866,-0.005249,1.02211
1742,0.30518,5.065995,0.732433,0.001953,-0.011231,0.9973299999999999
1744,1.2207219999999999,4.577707,1.037613,0.008301000000000001,0.014159999999999999,0.969253
1746,-1.8310830000000002,2.2583349999999998,1.037613,0.0094,0.026856,0.991836
1748,-11.902037,1.7700470000000001,1.8921189999999999,-0.025147,-0.063355,1.029801
1750,-2.136263,0.0,0.366217,-0.015137000000000001,0.0015869999999999999,0.9779200000000001
1752,-5.981537,-1.40383,-0.549325,0.0021969999999999997,-0.020263999999999997,1.0048979999999998
1754,-3.6621650000000003,-1.159686,-0.671397,0.006104,-0.004273,1.030045
1756,-3.1128400000000003,-1.037613,-0.549325,0.008057,-0.039063,1.011002
1758,0.122072,0.366217,0.122072,0.011719,-0.001831,0.985245
1760,-0.671397,-0.183108,0.183108,-0.001953,-0.016968,1.00148
1762,-0.6103609999999999,-1.647974,-0.793469,-0.0031739999999999997,-0.019165,1.00148
1764,-1.953155,-1.40383,-2.380407,-0.006226,-0.022827,1.011124
1766,-0.793469,-2.380407,-0.732433,0.018555000000000002,-0.015747,0.9589989999999999
1768,5.188067,-1.342794,-0.9155409999999999,0.008789,0.010376,0.9803620000000001
1770,-4.943923000000001,-0.183108,-0.427253,-0.002441,-0.045288999999999996,1.013809
1772,0.366217,0.671397,0.122072,0.000244,-0.017945,0.995743
1774,6.958114,0.122072,-2.136263,0.013062,0.001709,1.023209
1776,0.976577,-0.854505,0.366217,0.019287000000000002,-0.021729,1.003922
1778,-1.2207219999999999,-0.549325,0.0,0.009888,-0.015625,0.9862209999999999
1780,-4.638743,-0.061036,0.0,0.009276999999999999,-0.009888,0.982925
1782,-3.6011290000000002,0.6103609999999999,-0.122072,-0.000122,-0.025879000000000003,1.018692
1784,1.342794,0.061036,-0.366217,-0.0021969999999999997,-0.025391,0.9945219999999999
1786,1.70901,-0.854505,-3.295949,-0.011719,-0.021851,0.996475
1788,-2.2583349999999998,-2.319371,-1.586938,0.01001,-0.009766,1.001724
1790,-3.6621650000000003,-1.8921189999999999,-0.183108,0.011963,-0.035523,0.988907
1792,0.48828900000000003,0.793469,-1.159686,0.020996,-0.018189,1.013199
1794,5.127031,2.075227,-5.493248,0.005982,-0.016724,0.9901270000000001
1796,2.319371,0.793469,-5.981537,-0.0028079999999999997,-0.034791,1.013077
1798,2.80766,0.793469,-4.21149,0.017823,-0.023438,1.001236
