Packet number,Gyroscope X (deg/s),Gyroscope Y (deg/s),Gyroscope Z (deg/s),Accelerometer X (g),Accelerometer Y (g),Accelerometer Z (g)
0,-0.732433,-0.305180,0.000000,-0.009766,0.013062,0.995987
1,-0.793469,-0.427253,-0.122072,-0.003784,0.011353,1.004410
2,-0.488289,-0.427253,-0.122072,-0.005005,0.010864,0.995254
3,-0.427253,-0.427253,0.000000,-0.007813,0.016480,0.991958
4,-0.671397,-0.610361,-0.183108,-0.005737,0.009400,1.000748
5,-0.366217,-0.610361,0.000000,-0.004028,0.016358,0.994278
6,-0.671397,-0.610361,0.000000,-0.010010,0.014527,0.987076
7,-0.366217,-0.549325,-0.183108,-0.000610,0.014282,1.000870
8,-0.732433,-0.610361,0.000000,-0.010010,0.011231,1.006729
9,-0.549325,-0.549325,-0.183108,-0.004517,0.014893,0.993668
10,-0.854505,-0.488289,-0.183108,-0.005371,0.015137,0.991470
11,-1.342794,-0.488289,-0.122072,-0.004395,0.010254,0.999039
12,-0.793469,-0.366217,-0.122072,0.000366,0.013184,0.996353
13,-0.976577,-0.305180,0.000000,-0.005005,0.013550,0.995621
14,-0.610361,-0.244144,0.000000,-0.002686,0.010620,1.006241
15,-0.488289,-0.061036,-0.122072,-0.003418,0.015625,1.002213
16,-0.122072,-0.183108,-0.183108,-0.005615,0.015015,1.002945
17,-0.305180,-0.061036,0.000000,-0.004150,0.011841,0.994400
18,-0.244144,-0.244144,-0.244144,-0.005371,0.015503,1.003433
19,-0.549325,-0.305180,0.000000,-0.007446,0.012573,0.996353
20,-0.305180,-0.366217,-0.183108,-0.001587,0.017700,0.995132
21,-0.488289,-0.488289,0.000000,-0.014405,0.013062,0.997696
22,-0.610361,-0.488289,-0.122072,-0.006836,0.014160,0.989761
23,-0.671397,-0.488289,-0.122072,-0.004395,0.015991,1.003677
24,-0.427253,-0.488289,-0.183108,-0.007446,0.015747,0.993179
25,-0.976577,-0.488289,0.000000,0.000977,0.016602,0.992203
26,-0.793469,-0.427253,-0.122072,-0.009400,0.018555,0.995621
27,-0.671397,-0.427253,-0.122072,-0.008667,0.013916,0.998672
28,-0.854505,-0.427253,0.000000,-0.010132,0.009888,0.990372
29,-0.427253,-0.366217,0.000000,-0.009155,0.009522,0.999161
30,-0.610361,-0.488289,0.000000,-0.005493,0.014405,0.996597
31,-0.488289,-0.427253,0.000000,-0.005493,0.013916,0.998184
32,-0.366217,-0.488289,0.000000,-0.001831,0.010742,0.997574
33,-0.427253,-0.427253,0.000000,-0.009400,0.012940,0.994278
34,-0.488289,-0.427253,0.000000,-0.012329,0.013184,0.996353
35,-0.305180,-0.610361,0.000000,-0.005127,0.013916,0.998672
36,-0.427253,-0.732433,-0.122072,-0.014038,0.015625,1.001358
37,-0.366217,-0.549325,0.000000,-0.004150,0.013184,0.994888
38,-0.488289,-0.610361,-0.122072,-0.004761,0.015991,1.003799
39,-0.427253,-0.671397,0.000000,-0.008545,0.013916,0.994400
40,-0.427253,-0.610361,-0.122072,-0.004517,0.017456,0.988785
41,-0.915541,-0.671397,0.000000,-0.006104,0.012818,1.003799
42,-0.244144,-0.549325,0.000000,-0.001587,0.012940,0.997208
43,-0.671397,-0.488289,0.000000,-0.002075,0.015503,1.006363
44,-0.427253,-0.305180,0.000000,-0.000855,0.009766,1.003067
45,0.061036,0.061036,0.061036,-0.001343,0.012573,0.998917
46,0.244144,0.061036,0.061036,-0.010986,0.011597,0.999161
47,0.671397,0.000000,0.122072,-0.007935,0.016968,0.995621
48,0.366217,-0.122072,0.122072,-0.002686,0.011597,0.993545
49,0.366217,0.000000,0.122072,-0.017212,0.004639,0.980850
50,1.037613,-0.183108,0.000000,-0.004883,0.019287,1.002090
51,0.183108,-0.305180,0.183108,-0.013672,0.006470,1.009293
52,1.953155,-0.305180,0.122072,-0.001221,0.018677,1.009903
53,2.075227,0.000000,0.244144,-0.011597,0.012085,0.989273
54,2.319371,-0.366217,0.122072,0.004395,0.019287,1.008194
55,2.685588,0.000000,0.183108,-0.009766,0.018921,0.998672
56,1.953155,-0.305180,0.000000,-0.009522,0.023316,1.006241
57,2.258335,-0.244144,0.000000,-0.013428,0.013794,1.020523
58,3.173877,-0.305180,-0.122072,-0.012207,0.028809,1.000137
59,2.502480,-0.793469,0.000000,-0.005493,0.020630,1.000381
60,2.380407,-0.732433,0.244144,-0.012207,0.016480,1.017105
61,4.516670,-0.671397,0.122072,-0.013306,0.015503,0.986343
62,2.990768,-1.037613,0.061036,0.001709,0.031006,0.994522
63,2.319371,-0.854505,0.000000,-0.005859,0.016968,1.010758
64,3.967346,-0.610361,-0.244144,-0.005737,0.025147,1.004654
65,3.845274,-0.549325,-0.244144,-0.007568,0.026246,1.000992
66,4.394598,0.915541,-1.281758,-0.030762,0.026490,1.017350
67,4.333562,-0.854505,-0.427253,-0.019043,0.024170,0.963760
68,3.845274,-1.403830,-0.366217,0.000366,0.029175,0.982193
69,3.723201,-0.671397,-0.915541,-0.015259,0.035889,0.996597
70,3.173877,-1.831083,-0.976577,-0.001221,0.029175,0.967666
71,1.037613,-2.441444,-0.610361,-0.002808,0.026001,0.991470
72,1.525902,-2.197299,-0.732433,0.007202,0.029908,0.988052
73,2.075227,-1.098650,-0.732433,-0.009400,0.049561,0.990982
74,1.403830,-0.854505,-0.427253,-0.020630,0.027955,0.976699
75,0.244144,-1.403830,-0.183108,-0.000366,0.016968,1.010513
76,2.502480,-0.427253,-0.305180,0.005127,0.031617,1.009293
77,2.868696,0.061036,-0.793469,-0.006714,0.012207,0.978653
78,2.685588,0.671397,-0.610361,-0.010498,0.042969,1.011734
79,3.173877,-0.305180,-0.244144,-0.005982,0.020874,0.971817
80,2.075227,-0.366217,0.000000,-0.006348,0.034668,0.977676
81,1.831083,-0.610361,0.122072,-0.006836,0.036378,0.986831
82,0.976577,-1.098650,0.366217,-0.009888,0.035157,0.984512
83,0.854505,-1.098650,0.488289,0.004028,0.041505,0.987930
84,0.427253,-0.854505,0.488289,-0.004395,0.033082,0.995377
85,0.854505,-0.976577,0.549325,-0.006348,0.028809,0.982925
86,1.098650,-1.281758,0.488289,-0.002564,0.034424,0.990860
87,0.671397,-1.586938,0.305180,-0.004150,0.037232,0.989151
88,-0.061036,-1.892119,0.244144,-0.004395,0.027588,0.990249
89,0.305180,-1.464866,0.305180,0.008545,0.038575,0.998550
90,0.305180,-0.854505,0.793469,-0.011475,0.036255,0.999893
91,1.159686,-0.915541,0.732433,-0.010254,0.037598,0.982559
92,-0.061036,-1.281758,0.854505,0.001465,0.044556,0.991104
93,-0.732433,-0.854505,0.854505,0.001099,0.042969,0.978164
94,-0.305180,-1.098650,0.793469,-0.020508,0.039673,0.965835
95,-1.953155,-1.464866,0.793469,-0.003662,0.045899,0.987686
96,-2.807660,-1.464866,1.098650,0.002686,0.033448,1.007340
97,-1.709010,-0.976577,1.220722,-0.010498,0.008545,1.029923
98,1.525902,-0.610361,1.525902,0.005737,0.020996,1.002823
99,2.685588,-0.244144,1.525902,0.009155,0.014893,1.038102
100,7.385367,0.183108,1.098650,-0.006104,0.022217,1.005753
101,7.934691,0.549325,0.793469,0.023438,0.063722,0.976944
102,4.760815,1.342794,0.549325,-0.001343,0.072145,0.961807
103,1.892119,1.037613,0.122072,-0.009644,0.069947,0.959854
104,-2.258335,1.342794,0.305180,0.032837,0.050538,1.018570
105,-0.732433,3.479057,0.427253,0.002564,0.032959,1.021622
106,-0.671397,4.028382,0.976577,-0.001099,0.032715,1.021622
107,0.488289,4.699779,1.037613,-0.007202,0.035279,1.010513
108,0.671397,4.699779,0.915541,-0.014160,0.040650,0.995865
109,-0.061036,3.967346,0.671397,-0.015381,0.055055,0.987808
110,1.037613,3.479057,0.000000,-0.012573,0.082765,0.962051
111,-3.418021,2.624552,-0.244144,0.009522,0.062745,0.975113
112,-4.699779,3.479057,-0.610361,0.005493,0.047364,0.991958
113,-6.103609,4.333562,-0.610361,0.015991,0.043214,1.005142
114,-7.324331,5.737392,-0.244144,-0.006104,0.030884,1.019181
115,-5.432212,6.775006,0.000000,-0.000244,0.038575,1.010025
116,-5.981537,7.324331,0.122072,-0.014405,0.047120,0.980240
117,-7.446403,6.775006,0.305180,-0.028199,0.040650,0.980362
118,-7.629511,5.310140,0.183108,-0.030762,0.029175,0.991226
119,-7.080186,4.150454,-0.122072,-0.026490,0.017334,1.003311
120,-5.615320,3.479057,-0.183108,-0.034546,0.024170,0.981704
121,-4.577707,2.807660,-0.610361,-0.033448,0.052613,0.952163
122,-10.009918,1.159686,-0.305180,-0.033082,0.031617,0.974258
123,-8.178836,0.732433,-0.610361,-0.017456,0.035889,0.990738
124,-10.925460,0.732433,-0.366217,-0.010986,0.018189,1.010636
125,-9.155413,1.464866,0.000000,-0.011719,0.010498,1.028946
126,-7.507439,2.441444,0.183108,-0.009155,0.010620,1.007584
127,-6.958114,2.868696,0.488289,-0.019043,0.011597,1.017716
128,-5.615320,2.929732,0.732433,-0.029297,0.011475,1.013321
129,-4.943923,2.685588,0.671397,-0.032593,0.022461,0.978164
130,-6.042573,1.403830,0.671397,-0.036011,0.020020,0.979507
131,-5.554284,0.244144,0.244144,-0.036378,0.024537,0.972427
132,-8.484016,-1.525902,0.488289,-0.029541,0.008423,0.996109
133,-6.225681,-2.075227,0.000000,-0.036255,0.021607,0.979751
134,-8.117800,-3.540093,-0.122072,-0.030640,0.016846,0.989517
135,-7.934691,-4.211490,0.000000,-0.026123,0.007202,1.006485
136,-6.103609,-4.333562,-0.244144,-0.013672,0.011353,1.000626
137,-6.408789,-4.028382,0.000000,-0.017090,0.004395,1.003189
138,-5.859464,-3.540093,0.183108,-0.011231,0.007324,1.010025
139,-5.432212,-2.868696,0.366217,-0.016480,0.001099,1.015030
140,-5.249104,-2.441444,0.793469,-0.017700,-0.000488,0.996597
141,-4.394598,-2.319371,1.220722,-0.014160,0.010010,0.994766
142,-4.821851,-2.929732,1.525902,-0.030396,0.020264,0.980362
143,-6.347753,-4.455634,1.464866,-0.028077,0.011719,0.995865
144,-6.591897,-5.371176,1.037613,-0.018433,-0.018311,0.986587
145,-4.821851,-5.859464,0.854505,-0.014527,0.014038,1.005753
146,-5.676356,-6.225681,0.793469,-0.013794,-0.000610,0.984024
147,-5.188067,-6.958114,1.159686,-0.013916,0.003540,0.946059
148,-6.469825,-8.850233,0.854505,-0.036622,0.031739,0.924208
149,-13.366903,-12.451362,1.037613,-0.030396,0.017823,0.917983
150,-16.479744,-14.282444,1.342794,0.007568,0.029908,0.969375
151,-23.071641,-13.488975,2.258335,0.012451,0.010742,0.973648
152,-25.940337,-11.413748,3.601129,0.030762,0.008789,1.022965
153,-27.771420,-8.850233,4.699779,0.000488,-0.000732,0.974746
154,-31.860838,-8.728161,5.493248,0.004028,-0.037110,1.029923
155,-27.954528,-8.056764,6.286717,-0.000488,-0.054322,1.031632
156,-21.545739,-6.469825,5.798428,0.022217,-0.024903,1.016861
157,-22.644388,-5.310140,5.493248,0.031739,-0.009277,1.008927
158,-25.879301,-3.723201,5.920500,-0.016480,0.018921,0.990494
159,-28.076600,-3.784237,5.065995,0.006226,0.010986,0.949722
160,-35.400931,-4.272526,4.699779,-0.021241,0.030152,0.994888
161,-36.865797,-4.333562,3.418021,-0.005493,0.034302,0.935439
162,-39.856565,-3.479057,1.464866,0.019898,-0.022217,0.990738
163,-44.068055,-3.234913,2.075227,0.019287,-0.063600,0.984024
164,-37.232013,-1.220722,0.305180,0.019532,-0.122683,0.984878
165,-28.625925,2.014191,0.366217,0.001465,-0.048219,0.990372
166,-35.889220,0.244144,-1.953155,-0.040040,-0.055421,1.028336
167,-54.383154,-7.202258,-15.320058,-0.094728,0.114137,1.008438
168,-64.515145,-13.916228,-21.240558,0.078492,-0.163577,0.991714
169,-58.167391,-4.150454,-3.173877,0.077272,-0.207034,1.040543
170,-59.143969,3.540093,-0.549325,0.044190,-0.059937,1.081071
171,-59.693294,0.000000,-6.042573,-0.030152,-0.040772,0.971328
172,-75.074388,0.244144,-11.413748,0.034302,-0.104860,1.059831
173,-57.251850,23.682002,-10.864424,0.173098,-0.183230,0.817151
174,-75.867857,1.403830,-14.282444,0.071534,0.034913,0.665537
175,-116.517891,2.502480,-6.775006,0.034546,0.049683,0.967910
176,-151.430533,3.295949,4.150454,-0.016480,-0.124880,0.980606
177,-128.053712,4.394598,-2.441444,0.097536,0.767834,1.002090
178,-237.308309,-14.770733,-62.867170,0.031983,0.648203,0.881483
179,-424.200809,5.737392,-11.718929,-0.055665,0.329107,1.620142
180,-557.076371,7.446403,21.545739,0.000732,0.374762,1.591821
181,-636.850538,13.244831,-2.868696,0.046021,0.039918,1.662135
182,-725.413901,21.728847,25.329976,0.207645,-0.240116,1.485252
183,-883.619440,17.151141,148.867018,-1.925811,-0.811902,1.999969
184,-398.992905,-26.306554,47.669184,-1.641382,-1.207782,1.999969
185,278.873884,-28.198672,-20.996414,-0.560555,0.620127,1.999969
186,311.223011,-25.024796,-6.713970,-0.302251,1.541405,1.101213
187,80.384527,-46.387427,19.836728,0.038697,0.935683,0.519905
188,-51.697566,-78.370336,41.321431,0.326421,0.799084,0.424689
189,0.610361,-50.049592,-0.488289,0.490730,0.464485,1.048234
190,102.540627,-2.624552,-44.861524,0.311162,0.682139,0.814466
191,72.022583,2.563516,-58.289464,0.121706,0.700816,0.750744
192,62.623026,-3.662165,-61.463340,-0.107301,0.466926,0.820081
193,113.344015,-14.404517,-61.463340,-0.220096,0.489876,0.807507
194,126.466773,-30.884260,-55.176623,-0.253666,0.498421,0.736828
195,130.617227,-35.706111,-49.439231,-0.236576,0.457038,0.906630
196,154.970626,-25.085832,-48.462654,-0.241703,0.435187,0.968032
197,173.952850,-8.361944,-48.462654,-0.247318,0.409186,1.005753
198,185.305562,7.812619,-46.143282,-0.300542,0.329961,1.083146
199,206.057832,19.836728,-41.138323,-0.359625,0.242069,1.060075
200,224.734875,24.475471,-32.104982,-0.393439,0.164553,0.960098
201,234.927901,24.231327,-21.301595,-0.377691,0.093751,0.868666
202,241.336690,26.550698,-11.902037,-0.315801,0.053346,0.841444
203,242.191196,32.043946,-5.310140,-0.257206,-0.012451,0.756847
204,236.758984,40.283818,-1.342794,-0.167361,-0.094362,0.694347
205,223.575189,49.256123,1.037613,-0.076661,-0.172976,0.721080
206,213.443198,55.725948,0.732433,0.009644,-0.160403,0.769421
207,204.470893,59.632258,-3.295949,0.056886,-0.063722,1.013077
208,188.845655,64.332036,-8.056764,0.076783,0.020508,1.599268
209,186.282139,74.769207,-10.925460,0.027588,-0.010864,1.999969
210,212.954910,79.407950,-12.756542,0.020264,-0.144289,1.999969
211,246.036469,78.980697,-15.014878,0.047974,-0.263310,1.925322
212,245.365072,79.591058,-15.686275,0.106081,-0.364630,1.536522
213,226.810101,75.562676,-14.770733,0.117433,-0.429206,1.585962
214,213.382162,64.209964,-14.343481,0.069093,-0.524788,1.822538
215,216.311894,57.740139,-12.756542,0.014282,-0.602426,1.924834
216,220.401312,51.575494,-7.019150,-0.083253,-0.607675,1.999969
217,224.307622,37.964446,2.502480,-0.149172,-0.619394,1.999969
218,232.120241,26.855879,12.207218,-0.146242,-0.648447,1.999969
219,237.613489,25.024796,20.874342,-0.123781,-0.698375,1.813016
220,235.477226,27.283131,27.100023,-0.141482,-0.740124,1.622950
221,222.049287,29.785611,32.227054,-0.174197,-0.786633,1.625757
222,210.574502,33.142596,35.828183,-0.188357,-0.874891,1.615503
223,205.752651,42.908370,35.706111,-0.083864,-0.964370,1.426780
224,189.333944,57.129778,33.020523,0.020142,-1.087541,1.159075
225,162.478065,71.900511,29.907683,0.086183,-1.324849,0.958022
226,131.960021,76.112001,30.090791,0.185428,-1.602441,0.911025
227,98.390173,68.726635,34.485389,0.443122,-1.993927,0.972671
228,66.529335,51.880674,37.537194,0.740856,-2.000031,0.897108
229,65.491722,42.420081,26.916915,1.027970,-2.000031,0.241093
230,44.861524,26.855879,-3.967346,0.976822,-2.000031,-2.000031
231,-117.006180,-27.832456,14.160372,0.635996,-2.000031,-1.363546
232,-224.734875,-106.385901,16.784924,0.685191,-2.000031,-0.245853
233,-250.797284,-136.598764,-1.342794,0.385748,-1.069474,1.675074
234,-103.822385,-65.918975,-25.452049,-0.105592,0.232792,1.999969
235,-85.084306,-12.695506,-21.972992,-0.698497,0.965469,1.415427
236,-188.113222,-47.180896,3.906310,-0.830579,0.332891,-0.064332
237,-277.592126,-71.351186,25.757229,-0.578500,-0.310552,0.692515
238,-271.610590,-59.021897,47.119860,-0.141482,-0.206668,1.999969
239,-223.331044,-37.842374,47.241932,0.659434,-0.259403,1.999969
240,-130.556191,-13.244831,24.170291,0.714733,-0.047608,1.999969
241,-89.906157,12.451362,5.798428,0.285893,0.173098,1.482689
242,-127.504387,11.535821,21.301595,-0.643320,0.171878,1.999969
243,-112.367437,-32.654307,32.166018,-0.657969,-0.465095,1.733181
244,-23.498894,-60.364691,25.818265,0.262577,0.223392,1.999969
245,-41.626612,-52.124819,16.662852,1.006851,0.140993,1.955718
246,-12.634470,-1.647974,3.418021,0.036011,-0.022583,1.059709
247,-28.076600,-11.291676,6.836042,-0.507820,0.001709,1.075456
248,-28.686961,-34.607462,10.376135,0.137087,0.076173,1.177874
249,-14.282444,-20.813306,3.418021,0.272953,0.153811,1.127703
250,-31.067369,-11.047532,6.591897,-0.137575,0.062379,1.007095
251,-20.141909,-19.958801,3.662165,-0.134768,0.098512,0.922988
252,-21.423667,-23.437858,0.122072,0.119387,0.165530,0.986954
253,-36.499580,-16.601816,3.234913,0.037476,0.063600,1.027359
254,-30.395972,-14.221408,3.234913,0.012207,0.066163,1.067887
255,-27.527276,-11.535821,3.051804,0.101198,0.103517,1.042374
256,-31.250477,-7.385367,2.136263,-0.004639,0.055299,1.002090
257,-28.931106,-9.704738,2.319371,-0.034058,0.034058,1.041032
258,-21.118486,-12.024109,1.342794,0.026612,0.046509,1.054215
259,-18.921187,-10.864424,0.366217,-0.013062,0.043458,1.027604
260,-15.197986,-11.841001,-0.183108,-0.031128,0.037964,1.051896
261,-13.183795,-12.573434,0.122072,0.002564,0.037232,1.011002
262,-10.681315,-11.779965,-0.549325,-0.011841,0.040650,1.008072
263,-11.779965,-12.451362,-0.305180,-0.024414,0.022339,1.040299
264,-8.728161,-11.596857,0.366217,0.014527,0.028931,1.086687
265,-6.836042,-9.033341,1.220722,0.031617,0.018067,1.040665
266,-5.737392,-6.530861,1.403830,0.006226,0.025147,1.080705
267,-1.403830,-4.394598,1.159686,0.033326,0.046998,0.983047
268,1.159686,-3.906310,1.831083,-0.004761,0.010498,0.995254
269,-0.061036,-4.699779,0.854505,-0.020996,0.068360,0.915175
270,-6.469825,-6.836042,0.549325,-0.004517,0.074952,0.951919
271,-8.789197,-7.385367,0.183108,-0.016968,0.055421,0.942641
272,-11.841001,-8.911269,-0.183108,-0.006836,0.055909,0.963516
273,-16.418708,-10.070954,0.305180,0.026123,0.070802,0.984878
274,-17.578393,-9.887846,1.403830,0.027100,0.078248,1.039445
275,-17.212177,-9.826810,1.525902,0.013184,0.100587,1.049943
276,-14.038300,-9.033341,1.220722,0.024903,0.105715,1.034440
277,-15.381094,-8.972305,0.854505,0.029908,0.000244,0.913954
278,-16.052491,-10.131991,0.366217,0.022827,0.015259,0.887098
279,-24.902724,-12.024109,0.793469,0.032227,0.066651,0.946426
280,-30.457008,-12.634470,0.000000,0.011597,0.027832,0.962905
281,-31.433585,-13.183795,-0.122072,0.037964,-0.013550,1.025406
282,-27.161059,-11.413748,-0.488289,0.032349,-0.012207,1.028824
283,-26.611734,-10.803388,-1.403830,0.074342,-0.034302,0.968399
284,-24.719615,-8.606088,0.427253,0.070802,0.009033,0.996353
285,-27.954528,-6.530861,1.647974,0.041627,0.008911,0.988540
286,-29.663539,-5.920500,2.563516,0.036744,-0.001953,0.961929
287,-31.677729,-6.103609,2.746624,0.022339,0.015747,1.004776
288,-34.424353,-7.202258,2.563516,0.013550,-0.046876,0.987930
289,-27.283131,-8.484016,3.356985,0.039307,-0.063966,1.045914
290,-31.311513,-3.662165,1.403830,0.026978,-0.040650,0.948623
291,-28.625925,-5.127031,1.525902,0.040650,-0.018433,1.021256
292,-28.442817,-2.746624,1.098650,0.068849,-0.012451,1.012711
293,-33.264668,-1.403830,2.319371,0.046387,-0.056275,0.958633
294,-32.288090,0.183108,4.394598,0.060792,-0.051514,1.016129
295,-34.424353,1.709010,6.347753,0.068849,0.046509,0.972793
296,-39.002060,8.422980,7.141222,0.046632,0.058350,0.985122
297,-58.228428,7.080186,6.103609,-0.025025,-0.061158,0.929213
298,-54.261082,8.239872,3.418021,-0.004761,0.025757,1.038712
299,-61.402304,6.042573,-3.112840,-0.002441,-0.041505,0.972305
300,-60.914015,6.408789,-4.577707,-0.043458,-0.110964,1.073259
301,-46.143282,3.662165,-13.916228,-0.073121,-0.148074,0.989395
302,-42.114900,2.014191,-26.855879,-0.051148,-0.097780,1.023819
303,-49.561303,5.859464,-33.752956,0.241825,-0.374517,0.797009
304,-37.293050,2.624552,-12.634470,0.295048,-0.247440,1.103532
305,-30.945296,9.094377,1.403830,0.125368,-0.090455,1.037980
306,-46.936751,16.479744,-4.394598,0.076051,0.239994,0.972061
307,-96.253910,28.137636,-25.024796,0.096681,0.163333,0.913344
308,-144.655528,35.706111,-12.146181,-0.042237,0.456306,0.807752
309,-207.705806,11.108568,-1.220722,-0.463508,0.391485,0.478401
310,-230.289158,-25.452049,27.344167,-0.056397,1.063127,0.762951
311,-388.494698,-59.937438,-17.944610,-0.146120,0.471809,1.999969
312,-572.396429,-144.594492,8.850233,-0.694957,-0.086915,1.084977
313,-752.880140,-203.799496,42.786297,0.030762,-0.203006,1.088884
314,-813.611048,-194.033722,67.261769,0.283574,-0.059205,0.952041
315,-867.994202,-164.919509,41.992828,0.443610,-0.564584,0.866835
316,-1107.377737,-172.487984,111.390860,0.052979,-2.000031,1.999969
317,-527.351797,-8.300908,84.473945,-1.026383,-0.703502,1.999969
318,95.216297,44.373236,-102.540627,-0.272221,0.510140,1.999969
319,93.202106,85.206378,-98.084993,-0.249393,1.217182,1.999969
320,-57.312886,47.180896,-52.735180,-0.826062,0.813245,1.999969
321,-40.650034,-28.137636,0.549325,-0.850233,0.385016,1.999969
322,130.373083,-5.859464,11.413748,-0.522347,0.237308,1.999969
323,221.560998,6.958114,22.156100,-0.444953,0.383307,1.174334
324,186.526284,7.385367,35.645075,-0.298466,0.250126,0.838758
325,191.470207,19.714656,42.542153,-0.276493,0.041382,0.844739
326,228.152895,29.053178,45.410849,-0.202152,0.034424,0.668101
327,230.899519,26.184482,49.317159,-0.056031,0.049561,0.650401
328,230.777447,19.653620,50.293736,0.061646,-0.000732,0.795300
329,250.675212,17.761501,42.420081,0.193606,0.032227,0.880140
330,265.201801,24.536507,27.527276,0.360601,0.082887,0.902113
331,266.788739,40.894179,9.704738,0.407599,0.074586,0.968521
332,273.075456,58.289464,-7.995727,0.380133,-0.009277,0.936416
333,279.789426,65.857939,-19.287404,0.273442,-0.026123,0.963272
334,279.911498,57.923247,-25.818265,0.244633,-0.148196,0.974380
335,287.235828,39.978637,-27.771420,0.222538,-0.200443,1.083024
336,294.377050,21.972992,-30.518044,0.244999,-0.199588,1.268086
337,299.320974,17.212177,-35.461967,0.263920,-0.233890,1.403220
338,306.523232,27.649348,-43.518730,0.262577,-0.312871,1.438010
339,307.194629,45.532921,-49.378195,0.198856,-0.400519,1.308736
340,301.945525,60.181582,-52.002747,0.100099,-0.509041,1.185199
341,289.188983,68.787671,-48.401617,0.036622,-0.573129,1.030167
342,270.450904,66.895552,-42.603189,0.019654,-0.587533,0.912367
343,246.890974,58.777752,-37.964446,0.063355,-0.503059,1.172747
344,222.415503,50.965133,-37.720302,0.127687,-0.387823,1.859281
345,221.377890,49.683375,-41.931792,0.145876,-0.354986,1.999969
346,249.637598,56.458381,-48.523690,0.114870,-0.436286,1.999969
347,286.381323,66.224155,-52.979324,0.055665,-0.548592,1.999969
348,304.325933,74.280919,-51.941711,-0.008057,-0.676890,1.999969
349,306.889448,76.173037,-46.021210,0.000366,-0.763684,1.999969
350,300.602731,75.562676,-39.063096,0.158938,-0.785779,1.999969
351,289.066911,74.586099,-35.461967,0.341192,-0.824231,1.999969
352,282.536049,70.130465,-38.941024,0.479500,-0.889662,1.931060
353,270.572976,64.698253,-48.706798,0.522103,-1.069963,1.791287
354,247.989624,59.693294,-63.965820,0.415412,-1.449973,1.604028
355,224.795911,64.759289,-78.858625,0.440436,-2.000031,1.394553
356,182.864118,91.493095,-94.300755,0.735363,-2.000031,1.070207
357,129.945830,146.730755,-85.877775,0.832898,-2.000031,0.425666
358,116.945144,207.339590,-103.212024,0.496101,-2.000031,-0.523201
359,108.888380,195.925841,-62.806134,-0.061769,-2.000031,-1.699367
360,-23.132677,56.275273,15.197986,-0.467781,-2.000031,-1.408957
361,-109.254597,-112.550546,89.906157,-0.234012,-1.817411,0.156619
362,-174.380102,-230.777447,82.703899,0.924086,-1.690455,-0.067628
363,-246.646830,-199.343862,75.257496,0.860731,-0.360235,1.874662
364,-117.006180,-116.578927,35.461967,0.015259,0.105348,1.530297
365,-88.990616,-116.762036,39.734493,-0.304936,1.258808,1.902739
366,-232.364385,-110.658427,62.561990,0.192386,0.654673,0.118044
367,-304.814221,-106.935225,59.876402,0.640146,-0.313237,-0.488167
368,-315.617609,-93.934539,54.627298,1.196185,-0.202029,1.521630
369,-333.867399,-70.923934,36.194400,1.437766,-0.263310,1.999969
370,-211.673152,-14.404517,-5.798428,0.516487,-0.480598,1.999969
371,-106.935225,-1.525902,-12.329290,-1.059098,-0.127932,1.999969
372,-156.496529,-76.112001,34.973678,-1.433982,-0.606943,1.999969
373,-53.894865,-119.813840,32.776379,0.882582,-0.103517,1.999969
374,-25.513085,-60.486763,1.831083,1.725124,0.225956,1.878325
375,-47.425040,14.465553,4.577707,-0.352056,0.111086,1.019425
376,-57.862211,-17.273213,14.648661,-0.613535,-0.090455,1.240497
377,-16.479744,-37.232013,5.798428,0.416510,0.109133,1.189349
378,-23.865110,-13.733120,-0.732433,0.252445,0.168093,1.172625
379,-41.748684,-6.713970,5.371176,-0.147951,-0.071046,1.213886
380,-4.150454,-12.329290,-0.671397,0.031373,0.064820,1.063249
381,-16.235599,-7.751583,-0.549325,0.074586,0.029053,1.041276
382,-16.601816,-4.394598,2.380407,-0.091066,0.050294,1.110124
383,-7.263294,-4.821851,1.892119,0.041138,0.087282,1.003799
384,-14.038300,-0.305180,1.525902,0.028321,0.042115,0.987686
385,-13.733120,0.976577,3.479057,0.018799,0.072023,1.015396
386,-15.197986,2.929732,2.868696,0.062623,0.020508,0.962173
387,-17.212177,4.699779,3.906310,-0.013672,0.034058,1.031754
388,-17.151141,3.295949,4.211490,0.003540,0.031495,0.989029
389,-16.968032,2.746624,3.112840,0.016968,0.032959,1.002823
390,-17.944610,2.258335,2.441444,-0.033692,0.004639,0.956924
391,-18.310826,0.183108,2.014191,-0.036011,0.041016,0.961563
392,-22.644388,-1.342794,1.892119,-0.018677,0.020020,0.994522
393,-22.766461,-1.770047,-0.549325,-0.051514,-0.009033,1.106706
394,-19.836728,-1.098650,1.159686,0.003296,0.009522,1.054582
395,-18.921187,0.000000,1.892119,0.002319,-0.008301,1.048356
396,-14.770733,0.854505,1.464866,-0.009400,0.010254,0.993790
397,-15.808347,0.488289,1.037613,0.004883,0.005005,1.004166
398,-15.503166,0.610361,0.915541,-0.015137,-0.011109,1.009659
399,-13.733120,0.427253,0.427253,-0.012451,-0.005737,1.007950
400,-12.634470,-1.098650,1.098650,0.021607,0.051881,0.981704
401,-10.742351,0.488289,1.098650,-0.032349,-0.017090,0.972793
402,-11.108568,-0.549325,0.976577,-0.009400,-0.007446,1.003799
403,-11.718929,-0.976577,1.037613,-0.016358,-0.014282,1.010147
404,-10.925460,-1.647974,1.220722,-0.003784,-0.023560,0.996109
405,-9.704738,-1.403830,1.037613,-0.013062,-0.013306,0.985122
406,-10.925460,-2.136263,1.220722,-0.009400,-0.018921,0.989273
407,-10.742351,-2.075227,1.403830,-0.019409,-0.025269,0.985000
408,-11.841001,-2.563516,2.075227,0.001343,-0.032959,1.005631
409,-10.559243,-2.319371,2.380407,0.008057,-0.032837,1.001602
410,-10.925460,-1.342794,2.868696,0.005982,-0.004517,0.976699
411,-14.953841,-1.342794,3.601129,0.015869,-0.018311,0.969863
412,-16.052491,-0.610361,4.272526,-0.004273,-0.036133,0.997574
413,-14.282444,-0.793469,4.699779,-0.016724,-0.013184,0.975357
414,-17.212177,-2.075227,4.577707,-0.034302,0.002441,0.962051
415,-21.301595,-4.699779,4.333562,-0.012085,-0.009888,0.988296
416,-24.719615,-5.432212,3.662165,-0.010254,-0.025025,1.003311
417,-24.292363,-5.310140,2.746624,0.014405,-0.025513,1.000381
418,-25.757229,-3.418021,2.075227,0.011719,-0.004028,0.993057
419,-31.677729,-1.525902,3.112840,-0.007568,-0.025757,0.991836
420,-33.386740,-2.502480,3.112840,-0.029175,-0.006348,1.000137
421,-34.424353,-2.929732,2.197299,-0.014160,-0.014771,0.950698
422,-40.466926,-3.845274,3.234913,-0.038453,-0.026978,0.929458
423,-47.852293,-5.249104,4.699779,-0.010864,-0.058473,0.963027
424,-46.387427,-7.080186,6.042573,-0.005859,-0.075196,1.219257
425,-40.161746,1.464866,6.713970,0.019287,-0.128908,1.016007
426,-32.593271,5.188067,9.155413,-0.016358,-0.113405,1.021500
427,-27.283131,5.737392,10.498207,0.026856,-0.179812,0.983047
428,-24.048219,7.202258,6.469825,-0.096315,-0.054200,0.989151
429,-41.321431,-4.150454,-3.051804,-0.088502,-0.039551,1.024430
430,-49.073014,-4.943923,-15.197986,-0.097169,0.105470,1.129412
431,-55.909056,-11.779965,-22.278172,-0.009155,-0.226444,1.096330
432,-34.058137,-5.188067,-1.892119,0.065553,-0.162966,1.116472
433,-27.832456,-3.173877,-6.897078,0.008667,-0.114870,1.047013
434,-21.728847,-3.906310,-10.315099,0.042603,-0.147829,0.999161
435,-36.011292,-2.563516,-12.756542,-0.020386,0.023926,0.980362
436,-62.500954,0.000000,-18.066682,0.012940,0.129763,0.921889
437,-98.023957,-2.441444,-14.282444,-0.018067,0.284184,0.931899
438,-130.922408,-0.976577,-15.991455,-0.089845,0.385260,0.835218
439,-168.398566,-12.939651,-41.199359,0.046143,0.515877,0.549203
440,-280.277714,-20.935378,-51.880674,0.119509,1.209857,0.936172
441,-529.671168,-23.376822,-45.166705,0.065064,0.909194,1.609155
442,-756.420234,-76.661326,18.554971,-0.538582,-0.083253,1.327291
443,-856.580453,-143.739986,45.288777,0.033936,-0.106691,1.351339
444,-909.010452,-162.050813,55.909056,0.521370,-1.243915,1.472190
445,-1129.655909,-175.417716,194.338903,-0.869398,-0.271000,1.999969
446,-199.221790,-100.221256,-16.723888,-0.383673,-1.442039,1.999969
447,318.730449,-7.690547,-63.050278,-0.109377,0.648936,1.999969
448,215.762570,33.325704,-70.374609,0.040284,1.139788,1.455344
449,9.216449,-9.582666,-16.662852,-0.621469,0.859022,0.702770
450,-91.920348,-52.063783,9.521630,-0.344366,0.441779,0.650401
451,-6.164645,-24.475471,5.920500,-0.307744,0.232181,0.703136
452,81.055924,1.342794,-2.929732,-0.233890,0.417975,0.432502
453,46.875715,-0.610361,2.380407,-0.183230,0.478401,0.513069
454,36.865797,-7.324331,7.263294,-0.198367,0.370733,0.801770
455,85.877775,-12.451362,6.836042,-0.165652,0.429572,0.910170
456,110.292210,-25.085832,8.178836,-0.137087,0.517220,0.977310
457,120.851453,-34.851606,7.934691,-0.104005,0.473152,1.156390
458,150.637064,-31.738766,2.990768,-0.065675,0.454719,1.282124
459,181.216144,-19.287404,-5.615320,-0.022827,0.458381,1.420432
460,202.822919,-4.577707,-13.427939,-0.045289,0.395148,1.524681
461,233.524071,10.193027,-20.752270,-0.083742,0.245731,1.414206
462,262.516213,23.498894,-24.902724,-0.130861,0.133059,1.184588
463,274.357214,31.677729,-24.231327,-0.164309,0.022950,1.038712
464,282.352941,35.706111,-20.141909,-0.182498,-0.062745,0.940566
465,289.311055,31.616693,-14.038300,-0.149783,-0.090944,0.944594
466,291.996643,18.127718,-8.422980,-0.061891,-0.067628,1.078264
467,297.184710,3.906310,-8.606088,0.040528,-0.065553,1.147356
468,301.945525,5.249104,-16.723888,0.136110,-0.131228,1.139544
469,292.179751,24.109255,-30.273899,0.175784,-0.296391,0.928115
470,273.685817,57.312886,-39.673457,0.174563,-0.370245,0.986709
471,248.844129,71.778439,-44.373236,0.098512,-0.281376,1.337179
472,242.313268,63.599603,-48.950942,0.091554,-0.274052,1.678004
473,254.276341,56.153201,-53.467613,0.089723,-0.255131,1.999969
474,253.421836,65.796902,-56.641489,0.065919,-0.346807,1.999969
475,259.647517,83.863584,-57.434958,-0.040772,-0.557870,1.999969
476,269.169146,95.460441,-53.894865,-0.098878,-0.637949,1.999969
477,266.971847,92.957961,-46.082246,-0.167849,-0.640879,1.999969
478,267.704280,82.215610,-36.255436,-0.157595,-0.733898,1.999969
479,298.222324,79.163806,-29.907683,-0.103639,-0.853407,1.999969
480,323.735409,90.028229,-29.541466,-0.046632,-0.927626,1.999969
481,313.664454,100.465400,-29.175250,0.123659,-1.007462,1.760403
482,293.827726,114.442664,-33.508812,0.357794,-0.932021,1.650538
483,264.286259,117.860685,-42.298009,0.532845,-0.903700,1.891997
484,249.149310,115.602350,-51.270314,0.637583,-1.045060,1.999969
485,245.609216,110.780499,-56.824598,0.535653,-1.338277,1.801907
486,227.542535,96.253910,-54.444190,0.394293,-1.897002,1.340963
487,191.103990,85.694667,-40.894179,0.470344,-2.000031,0.891127
488,141.847868,87.403677,-35.339895,0.708385,-2.000031,0.473640
489,95.216297,113.527123,-47.974365,0.814832,-2.000031,-0.014038
490,84.229801,138.551919,-51.331350,0.504402,-2.000031,-0.709117
491,10.498207,76.661326,-14.099336,0.205325,-2.000031,-1.102068
492,-72.693980,-48.096437,35.034714,0.155032,-2.000031,-0.133669
493,-93.873503,-129.457542,68.177310,0.208499,-1.914580,-1.622095
494,-205.325399,-224.002441,73.731594,1.124529,0.012451,1.040299
495,-173.708705,-159.975586,46.631571,0.620249,0.054200,1.999969
496,-82.093538,-31.677729,43.518730,-0.072999,1.262226,1.378195
497,-155.214771,-73.182269,43.762875,-0.072633,0.721569,-0.425177
498,-294.377050,-95.704585,53.772793,0.418097,0.015015,-0.373541
499,-345.342184,-63.782712,60.364691,0.714733,-0.425055,1.407736
500,-313.420310,-42.298009,49.011978,1.259297,-0.168826,1.999969
501,-222.842756,12.695506,15.320058,0.852674,-0.193729,1.999969
502,-159.670405,41.443503,-6.408789,0.061280,-0.119265,1.999969
503,-173.525597,31.433585,20.813306,-1.355123,-0.005859,1.999969
504,-131.410697,-29.541466,41.870756,-0.927016,-0.821057,1.858183
505,-28.015564,-56.702525,34.180209,0.182864,0.227420,1.112810
506,-85.023270,-63.233387,34.851606,0.960220,0.280034,1.760525
507,-52.796216,-32.349126,15.197986,-0.083742,-0.110231,1.549096
508,-37.720302,-45.899138,16.540780,-0.500740,0.068849,1.157610
509,-38.941024,-65.735866,8.850233,0.382330,0.133547,1.108904
510,-43.030442,-37.659266,4.577707,0.311772,0.186038,1.377584
511,-51.270314,-22.034028,5.798428,-0.095338,0.024414,1.159197
512,-35.339895,-20.080873,2.868696,0.083009,0.074952,1.175067
513,-34.485389,-10.254063,2.807660,0.161379,-0.018189,1.237201
514,-22.583352,-4.089418,4.272526,-0.126101,0.038087,1.102800
515,-19.165332,-6.347753,3.234913,0.073365,0.093874,1.057755
516,-22.034028,-0.610361,3.479057,0.044068,0.050416,1.039689
517,-18.738079,0.488289,4.028382,-0.034668,0.066163,1.047868
518,-18.738079,1.525902,3.662165,0.025269,0.052613,1.006119
519,-19.531548,3.723201,3.540093,-0.015625,0.040772,0.946548
520,-21.728847,2.624552,4.699779,-0.054444,0.020142,1.007584
521,-19.470512,1.403830,4.150454,-0.041505,0.047120,0.985000
522,-22.217136,0.671397,4.699779,-0.039429,0.039185,0.994888
523,-23.254749,0.000000,5.371176,-0.031983,0.014160,0.990127
524,-22.461280,-0.061036,5.554284,-0.032105,0.024537,1.012467
525,-23.132677,0.061036,5.554284,-0.069093,0.043580,1.095476
526,-17.334249,-1.281758,5.004959,-0.022950,0.083864,0.942153
527,-21.301595,-1.525902,3.356985,-0.053468,0.032105,0.956313
528,-23.926146,-4.089418,2.563516,-0.057618,0.012696,1.046647
529,-20.996414,-4.943923,1.770047,-0.025879,-0.015137,1.001358
530,-18.493935,-5.676356,0.915541,-0.050904,0.000000,0.991958
531,-19.592584,-6.836042,0.183108,-0.133303,0.107057,1.283467
532,-15.197986,-7.690547,0.915541,-0.004395,-0.017823,0.974990
533,-19.348440,-10.376135,1.342794,-0.058350,0.000000,0.920790
534,-18.554971,-12.390326,0.915541,-0.042115,-0.011841,0.970352
535,-21.667811,-15.014878,1.098650,-0.046509,0.002686,1.005631
536,-22.339208,-17.090105,0.915541,-0.020020,-0.011231,1.004044
537,-22.034028,-18.066682,0.122072,-0.019532,-0.006104,1.011368
538,-21.301595,-18.616007,-0.854505,-0.022950,-0.008423,1.010880
539,-21.057450,-18.982223,-1.464866,0.004761,-0.029664,1.019547
540,-20.386053,-17.639429,-2.014191,-0.000855,-0.012085,0.986954
541,-23.315785,-16.968032,-2.258335,-0.002441,-0.024170,0.973770
542,-28.320745,-16.968032,-2.319371,0.021607,-0.085573,0.947524
543,-24.597543,-14.404517,-0.915541,0.001465,-0.045777,1.057023
544,-23.682002,-12.878614,-0.671397,0.003418,-0.055909,1.027604
545,-22.522316,-11.474784,-0.366217,0.018433,-0.047486,1.013443
546,-20.874342,-10.681315,-1.586938,0.000610,-0.042115,0.989029
547,-22.766461,-10.498207,-1.831083,0.024292,-0.042359,1.004288
548,-24.780652,-9.582666,-2.136263,0.029175,-0.036744,1.009415
549,-26.306554,-9.277485,-3.601129,0.009277,-0.041505,0.990372
550,-29.724575,-9.338521,-3.784237,-0.011231,-0.052979,0.971328
551,-30.334936,-9.582666,-1.831083,0.032959,-0.051148,0.960952
552,-36.072328,-4.943923,1.037613,-0.001953,-0.171389,1.037247
553,-32.837415,-1.464866,3.418021,0.044068,-0.052613,0.976455
554,-40.222782,1.953155,5.615320,0.024292,-0.036011,0.992325
555,-47.180896,3.173877,8.850233,0.032471,-0.102419,1.033707
556,-43.335622,6.652934,9.399557,0.033936,-0.110109,0.969863
557,-42.298009,8.178836,11.047532,-0.008057,-0.115480,1.032731
558,-42.359045,6.836042,9.277485,-0.048707,-0.085695,1.010025
559,-32.471199,7.751583,8.728161,-0.051514,-0.096437,1.003433
560,-32.410163,2.990768,-1.098650,-0.095705,-0.097536,0.996475
561,-24.414435,-2.929732,-4.455634,-0.098634,-0.128298,1.072892
562,-38.391699,-1.464866,-25.268940,0.025513,-0.148196,0.922866
563,-46.326390,-8.178836,-13.611048,0.103273,-0.332280,0.982315
564,-28.809033,-5.065995,0.793469,0.130495,-0.275639,1.101457
565,-15.869383,-0.427253,-3.173877,0.015259,-0.215824,1.018326
566,-17.212177,-0.488289,-9.521630,-0.038819,0.067140,0.970108
567,-41.931792,-0.854505,-19.409476,0.067628,0.178225,0.898085
568,-94.422828,5.981537,-24.475471,-0.022461,0.406256,0.825574
569,-152.101930,8.545052,-45.838102,0.019287,0.590097,0.507820
570,-194.277867,-6.652934,-53.894865,-0.018433,0.556527,0.588144
571,-311.345083,-27.161059,-58.533608,0.062623,1.534447,1.053605
572,-543.099107,-30.273899,-70.862898,-0.077882,0.506233,1.832425
573,-740.306706,-103.578241,10.193027,-0.315068,0.325078,1.237324
574,-866.651408,-156.984817,44.068055,0.138308,-0.219120,1.232929
575,-932.570382,-159.731441,68.848707,0.286137,-1.740017,1.999969
576,-1153.765164,-166.323339,201.785306,-0.975479,-0.514412,1.999969
577,-73.975738,-83.741512,-7.507439,-0.323125,-1.357443,1.999969
578,451.056687,-4.150454,-26.733806,-0.659922,0.638682,1.999969
579,253.360800,21.362631,-28.503853,-0.107301,0.710216,0.286381
580,-27.954528,-48.828870,34.424353,-0.687999,0.679576,0.180911
581,-114.869917,-84.046693,57.984283,-0.272953,0.401862,0.717662
582,18.493935,-32.043946,36.011292,-0.166629,0.202152,0.809461
583,97.596704,-1.464866,19.775692,-0.110842,0.579110,0.650523
584,46.143282,-4.333562,20.752270,-0.098634,0.559823,0.756115
585,61.219196,-9.948882,17.456321,-0.142702,0.389288,0.935927
586,121.339742,-12.146181,9.948882,-0.123903,0.480110,0.804334
587,127.565423,-18.249790,7.385367,-0.137942,0.501228,0.785901
588,133.302815,-18.310826,5.554284,-0.190311,0.394903,0.947280
589,165.896086,-12.024109,2.014191,-0.182620,0.375372,1.073381
590,189.150835,-5.554284,-0.976577,-0.180179,0.361822,1.193744
591,208.377203,1.831083,-2.868696,-0.211185,0.249149,1.361471
592,239.322499,11.841001,-3.418021,-0.228641,0.125002,1.365377
593,268.741894,20.996414,-2.502480,-0.266484,-0.003662,1.192279
594,282.780194,23.987182,2.014191,-0.264897,-0.097658,1.074723
595,289.188983,24.475471,7.141222,-0.226200,-0.155398,1.092790
596,297.550927,25.696193,9.277485,-0.188724,-0.205814,1.109148
597,298.710613,31.494621,9.277485,-0.093874,-0.310796,1.030289
598,292.362860,48.340581,4.699779,0.072389,-0.519051,0.603525
599,272.404059,68.543526,-1.709010,0.174319,-0.525521,0.533333
600,233.035782,65.857939,-5.127031,0.149050,-0.474861,0.762829
601,218.631266,45.593957,-11.657893,0.200320,-0.381842,1.184710
602,218.204013,38.086519,-20.935378,0.197757,-0.287724,1.733303
603,210.269322,45.044633,-28.015564,0.139651,-0.373053,1.999969
604,228.824292,58.655680,-35.400931,0.098878,-0.515145,1.999969
605,256.351568,67.994202,-42.420081,0.069215,-0.583871,1.999969
606,253.665980,63.782712,-43.091478,0.004761,-0.624399,1.999969
607,258.182651,55.054551,-42.969406,0.036255,-0.671275,1.999969
608,278.873884,54.749371,-45.716030,0.110475,-0.696788,1.999969
609,290.836957,60.791943,-50.049592,0.213993,-0.690074,1.999969
610,290.287633,67.017624,-54.810407,0.288090,-0.675059,1.769070
611,281.681544,67.383841,-59.815366,0.347417,-0.633921,1.699001
612,271.122301,64.026856,-65.125505,0.397711,-0.616098,1.735500
613,265.629053,61.829557,-71.839475,0.447883,-0.624277,1.737942
614,259.281300,62.745098,-79.102770,0.462043,-0.672374,1.658961
615,247.867552,64.576181,-85.694667,0.410651,-0.784802,1.477195
616,230.899519,64.087892,-89.478904,0.269902,-0.993423,1.273701
617,205.630579,62.134737,-88.563363,0.137942,-1.298238,1.040177
618,171.877623,66.285191,-83.863584,0.068971,-1.685817,0.952163
619,127.321279,73.426413,-73.609522,0.220096,-2.000031,1.054215
620,87.586786,85.938811,-60.669871,0.453864,-2.000031,1.105364
621,76.173037,106.813153,-49.317159,0.525643,-2.000031,0.473884
622,74.525063,102.784772,-38.574807,0.373419,-2.000031,-0.347662
623,18.982223,44.129091,-1.464866,0.258183,-2.000031,-0.850721
624,-69.214923,-57.434958,33.813993,0.068727,-2.000031,-2.000031
625,-223.880369,-222.232395,77.454795,0.792737,-1.532372,-0.623667
626,-221.011673,-229.556725,56.519417,0.850721,-0.296025,1.999969
627,-99.977111,-104.554818,29.480430,0.014893,0.913588,1.999969
628,-111.451896,-76.661326,37.720302,-0.348760,1.004044,0.598520
629,-247.867552,-122.499428,55.603876,0.093629,0.353155,-0.625132
630,-323.735409,-114.259556,53.589685,0.488777,-0.414191,0.523568
631,-343.450065,-81.177996,59.632258,0.988663,-0.212528,1.999969
632,-263.736934,-57.923247,30.640116,1.322286,-0.291142,1.999969
633,-163.332570,17.029068,0.305180,0.074830,-0.065431,1.999969
634,-162.111849,-3.662165,28.931106,-1.727321,0.132570,1.999969
635,-201.419089,-97.962921,52.429999,-1.232074,-0.898939,1.974395
636,-42.236973,-136.415656,21.972992,1.878569,0.093996,1.999969
637,-12.573434,-30.579080,-16.479744,1.796536,0.019409,1.787991
638,-36.804761,40.039673,-12.512398,-1.045548,0.082033,0.619638
639,-68.299382,-24.170291,13.855192,-0.308232,-0.036255,1.315206
640,-30.762188,-19.104295,3.418021,0.700450,0.200076,1.590478
641,-21.301595,10.559243,-2.746624,-0.252811,0.033692,0.927749
642,-23.132677,-7.629511,0.549325,-0.126955,0.038087,1.074113
643,-14.587625,-7.080186,-1.037613,0.165164,0.073976,1.104387
644,-17.395285,0.915541,2.014191,-0.076295,0.006104,1.052506
645,-9.277485,-1.281758,2.197299,-0.012207,0.043702,1.041154
646,-10.193027,0.427253,2.441444,0.025757,0.078737,0.991592
647,-13.611048,0.366217,3.234913,-0.059815,0.017578,1.019059
648,-8.789197,-1.586938,2.502480,0.001465,0.040772,1.022965
649,-8.056764,-0.366217,2.807660,-0.001343,0.043580,0.983902
650,-9.277485,-0.976577,3.662165,-0.048463,0.045411,0.995254
651,-8.056764,-3.295949,3.234913,-0.026856,0.040284,0.976944
652,-9.460594,-4.333562,3.784237,-0.034180,0.053346,0.978775
653,-12.451362,-4.760815,4.150454,-0.029908,0.056397,0.942641
654,-14.831769,-4.943923,0.732433,-0.070436,-0.016480,0.869520
655,-22.400244,-6.897078,3.234913,-0.024659,0.042603,1.033585
656,-23.498894,-6.897078,3.662165,-0.018921,0.025147,1.041764
657,-20.874342,-6.286717,2.807660,-0.010376,0.017212,0.994644
658,-22.278172,-5.859464,2.502480,-0.021851,0.017945,1.000504
659,-22.095064,-2.136263,-0.854505,0.094606,-0.328618,0.594980
660,-17.944610,-3.967346,0.122072,-0.027344,0.005493,1.110857
661,-21.179522,-4.455634,2.685588,-0.016846,-0.008179,1.023087
662,-16.235599,-3.479057,2.014191,-0.025269,-0.002564,0.973281
663,-15.625238,-3.723201,1.647974,-0.021118,0.000366,0.994034
664,-16.845960,-4.577707,2.197299,-0.029175,0.008667,0.987320
665,-16.174563,-5.615320,1.892119,-0.030640,-0.005615,0.969619
666,-17.456321,-6.958114,1.831083,-0.020020,-0.008789,0.995987
667,-16.662852,-7.385367,1.403830,-0.028443,-0.012940,1.002335
668,-15.686275,-8.117800,0.671397,-0.017578,-0.024048,1.003799
669,-13.550011,-8.239872,0.061036,-0.009522,-0.000488,1.026749
670,-11.230640,-8.667124,-0.549325,-0.010498,0.001953,1.027848
671,-11.474784,-8.484016,-0.732433,-0.006226,-0.012451,1.021988
672,-8.545052,-7.446403,-1.098650,-0.011109,-0.024903,0.995743
673,-9.826810,-7.263294,-1.281758,-0.006836,-0.031861,0.988174
674,-11.047532,-7.324331,-1.159686,0.010864,-0.018677,1.004898
675,-11.596857,-6.408789,-1.525902,-0.000732,-0.019043,1.013199
676,-13.366903,-5.310140,-0.915541,0.011597,-0.029541,1.007950
677,-13.183795,-3.906310,0.000000,0.021851,-0.025025,1.020279
678,-12.573434,-2.014191,0.427253,0.014405,-0.030640,1.014298
679,-14.282444,-1.159686,0.854505,0.007324,-0.020874,0.985122
680,-16.662852,-0.366217,1.647974,0.017456,-0.026246,0.997086
681,-21.057450,0.610361,1.892119,-0.000732,-0.022583,0.980972
682,-24.414435,1.281758,2.258335,0.002319,-0.023072,0.983413
683,-26.428626,0.488289,2.014191,-0.027344,-0.023072,0.970474
684,-27.161059,-0.976577,1.464866,-0.010864,-0.016480,0.968521
685,-29.724575,-0.061036,2.258335,0.001099,-0.004639,0.989761
686,-37.354086,-1.403830,3.479057,-0.069215,-0.056031,0.937392
687,-35.156786,-2.563516,5.127031,0.017823,-0.038209,0.970352
688,-40.344854,-1.403830,6.713970,0.036255,-0.089845,1.113298
689,-33.875029,3.295949,9.155413,0.005982,-0.097047,1.062638
690,-32.043946,4.211490,6.836042,-0.018433,-0.087160,0.990494
691,-30.518044,4.272526,6.103609,-0.071046,-0.021363,1.017350
692,-28.625925,2.624552,4.394598,-0.083009,-0.013062,0.960342
693,-24.719615,1.709010,1.586938,-0.122316,0.090089,1.094743
694,-37.537194,-4.028382,-12.695506,-0.106203,-0.057862,0.942397
695,-52.246891,-11.535821,-19.836728,-0.074220,0.083864,1.081559
696,-65.613794,-11.047532,-20.996414,0.030274,-0.316655,1.069596
697,-56.763561,-4.455634,0.915541,0.101564,-0.243900,1.100603
698,-36.926833,-3.723201,-0.793469,0.047974,-0.234745,1.062272
699,-16.174563,-2.319371,-3.479057,0.024048,-0.101198,1.062638
700,-31.494621,1.525902,-9.704738,-0.023560,0.117311,0.961196
701,-67.933165,2.136263,-10.925460,0.048463,0.244755,0.994522
702,-115.114061,9.094377,-22.644388,-0.002319,0.384405,0.691783
703,-146.730755,5.004959,-27.710384,0.008301,0.694224,0.520027
704,-222.781720,-19.470512,-47.974365,-0.353765,0.383185,0.874159
705,-359.441520,-37.170977,-26.672770,-0.025635,1.073259,1.710964
706,-583.016709,-55.420768,-22.156100,-0.529549,0.501961,1.447044
707,-771.862364,-148.867018,51.087205,-0.590463,-0.008667,1.184466
708,-845.288777,-189.394980,71.839475,0.159792,-0.392584,1.099748
709,-901.319905,-183.535515,83.314260,0.728161,-2.000031,1.999969
710,-1037.552453,-169.314107,188.357366,-0.615854,-0.591318,1.999969
711,-81.666285,-83.680476,-17.090105,-0.145876,-0.998795,1.999969
712,353.276875,-9.521630,-36.621653,-0.307500,0.940810,1.999969
713,192.935073,22.461280,-50.293736,-0.126467,0.885756,1.376852
714,-29.602502,-31.494621,13.550011,-0.588998,0.800183,0.806531
715,-81.483177,-59.266041,29.785611,-0.310674,0.424567,0.943252
716,35.095750,-22.400244,18.554971,-0.191897,0.286625,0.677501
717,97.840848,-0.549325,7.019150,-0.135744,0.508797,0.523568
718,60.242618,-6.591897,9.277485,-0.140627,0.523568,0.664195
719,59.205005,-17.700465,10.254063,-0.191775,0.389776,0.926528
720,113.221942,-22.522316,6.469825,-0.152712,0.445441,1.012222
721,139.101244,-27.893492,3.906310,-0.111208,0.531746,1.070939
722,147.646296,-28.747997,0.549325,-0.078370,0.469001,1.277485
723,180.361639,-17.273213,-7.202258,-0.030640,0.408331,1.403220
724,216.372931,-0.122072,-17.395285,-0.000855,0.360601,1.380392
725,238.345922,15.014878,-24.841688,-0.020874,0.248051,1.283955
726,259.159228,27.222095,-29.907683,-0.047364,0.111574,1.155535
727,277.897307,37.781338,-31.921874,-0.088258,0.016480,1.097307
728,285.893034,44.251164,-29.236286,-0.135134,-0.064698,1.181048
729,293.095293,46.082246,-23.254749,-0.169192,-0.160525,1.310689
730,310.490578,45.349813,-16.235599,-0.148074,-0.246830,1.259541
731,325.627527,43.518730,-11.230640,-0.084230,-0.316533,0.964858
732,316.655222,44.190127,-10.376135,0.044190,-0.522835,0.437873
733,286.442359,57.251850,-12.329290,0.227787,-0.618540,0.281376
734,245.059892,65.613794,-14.465553,0.259648,-0.445441,0.805676
735,220.157168,53.833829,-22.583352,0.333013,-0.360235,1.387106
736,232.364385,54.016938,-36.133364,0.332036,-0.312139,1.718044
737,239.505608,66.529335,-47.241932,0.207034,-0.393805,1.828519
738,229.800870,74.341955,-49.500267,0.062379,-0.520638,1.886259
739,233.340963,73.304341,-49.500267,-0.013916,-0.605356,1.999969
740,235.965515,73.243305,-46.143282,-0.047242,-0.647593,1.999969
741,239.383536,74.769207,-44.312200,-0.023438,-0.747814,1.999969
742,246.952010,81.849393,-42.786297,-0.006104,-0.812146,1.999969
743,250.370031,85.877775,-40.405890,-0.013062,-0.822156,1.999969
744,254.520485,83.009079,-37.659266,0.046265,-0.818006,1.999969
745,264.835584,80.018311,-37.537194,0.178836,-0.799939,1.999969
746,266.971847,78.004120,-41.992828,0.338018,-0.791638,1.822171
747,264.225223,77.821012,-50.598917,0.448981,-0.793713,1.659937
748,254.581521,76.722362,-61.463340,0.521126,-0.808362,1.566064
749,242.008087,75.684749,-72.388800,0.529183,-0.895277,1.529931
750,230.228122,76.173037,-80.079347,0.453620,-1.062882,1.437766
751,215.396353,75.074388,-81.605249,0.266484,-1.356100,1.240497
752,191.958495,71.107042,-74.219883,0.110109,-1.761624,1.066178
753,151.308461,70.496681,-60.730907,0.204227,-2.000031,0.970474
754,115.419242,78.614481,-44.495308,0.370123,-2.000031,0.802625
755,96.498054,96.620127,-41.260395,0.501106,-2.000031,0.104372
756,77.515831,91.920348,-41.626612,0.372686,-2.000031,-0.685313
757,7.141222,41.443503,-12.817578,-0.328252,-2.000031,-1.887724
758,-153.139544,-119.813840,50.965133,-0.153079,-2.000031,-1.818631
759,-293.949798,-267.154955,91.248951,0.774426,-1.473533,0.326665
760,-130.678264,-187.869078,57.862211,0.559091,0.110109,1.999969
761,-104.493782,-86.976425,53.040360,-0.343267,1.355856,1.999969
762,-191.042954,-113.221942,75.501640,-0.203372,0.675303,-0.069581
763,-303.044175,-143.617914,79.896239,0.686534,-0.373175,-0.197391
764,-315.434501,-105.470359,77.393759,0.996109,-0.296391,1.934722
765,-294.987411,-82.337682,61.829557,1.423117,-0.237430,1.999969
766,-180.727855,-30.884260,24.292363,1.363302,-0.189944,1.999969
767,-108.033875,15.381094,-4.699779,0.287236,-0.158450,1.215351
768,-166.201267,19.958801,7.385367,-0.671275,0.002197,1.654322
769,-181.033036,-10.681315,44.373236,-1.441306,-0.039429,1.999969
770,-95.460441,-76.600290,43.396658,-0.466560,-0.462654,1.680812
771,-27.222095,-100.465400,17.578393,1.252949,0.343389,1.999969
772,-28.625925,-36.499580,-4.638743,0.879042,-0.018555,1.177752
773,-30.457008,-11.108568,-5.310140,-0.661631,0.132570,1.203754
774,-52.552071,-55.298695,7.263294,-0.166384,-0.046632,1.070329
775,-18.249790,-51.087205,-8.422980,0.582040,0.141115,1.369772
776,-34.546426,-19.897765,-1.342794,0.132326,0.000366,1.276753
777,-17.456321,-15.381094,0.976577,-0.093385,-0.033814,1.152605
778,-2.075227,-17.334249,-3.784237,0.069825,0.105348,0.952407
779,-15.442130,-12.024109,-0.427253,0.046509,0.046876,1.015152
780,-16.113527,-9.521630,2.380407,0.039429,0.025635,1.049699
781,-8.056764,-6.836042,4.272526,0.121462,0.145144,1.024796
782,-16.174563,-0.915541,6.469825,0.057740,0.067750,1.020645
783,-15.136950,2.258335,6.591897,0.007446,0.016602,1.021134
784,-12.634470,1.770047,5.371176,-0.004150,0.035279,0.964614
785,-17.090105,0.610361,5.127031,0.019409,0.024537,1.007462
786,-20.080873,-0.244144,5.798428,0.017578,0.055299,1.003311
787,-17.273213,-0.366217,3.112840,-0.008789,0.057252,0.907362
788,-20.996414,-4.028382,3.051804,-0.019532,0.058961,0.988907
789,-21.118486,-5.310140,1.892119,-0.012085,0.018433,1.011612
790,-17.883574,-5.249104,0.854505,-0.058106,0.139651,0.988418
791,-21.118486,-5.065995,2.014191,0.066041,-0.068482,0.886732
792,-17.761501,-2.929732,2.075227,0.006226,-0.005005,1.063493
793,-14.953841,-3.662165,1.586938,-0.000366,0.068727,1.024796
794,-16.784924,-3.173877,1.892119,0.048096,0.001343,1.042741
795,-11.902037,-1.159686,0.976577,-0.005249,-0.007080,1.005264
796,-10.254063,-1.770047,0.427253,0.014405,-0.000244,0.944839
797,-12.756542,-2.929732,0.244144,-0.000610,-0.014771,0.937881
798,-15.747311,-4.943923,0.183108,-0.021973,0.048219,0.981582
799,-19.226368,-7.385367,0.000000,0.005493,0.044923,0.936904
800,-26.428626,-8.728161,-0.305180,0.009522,0.008545,0.977432
801,-26.428626,-9.277485,-1.220722,0.021729,-0.031617,1.018936
802,-24.109255,-8.239872,-0.671397,0.027222,-0.019532,1.039445
803,-22.705425,-7.507439,-1.098650,0.037354,-0.016968,1.008682
804,-22.278172,-6.408789,-1.037613,0.033692,-0.028443,1.022843
805,-19.958801,-5.065995,-0.976577,0.028565,-0.034424,1.007095
806,-19.226368,-4.821851,-0.671397,0.024414,-0.015503,0.980728
807,-20.447089,-4.760815,0.000000,0.023682,-0.029664,1.009659
808,-19.653620,-4.882887,0.183108,0.042481,-0.023194,1.015396
809,-20.202945,-3.967346,0.671397,0.031373,-0.030762,1.007706
810,-19.653620,-3.845274,1.037613,0.026246,-0.012085,0.955825
811,-24.048219,-4.089418,1.647974,0.023926,-0.013550,0.966934
812,-26.367590,-4.455634,1.831083,0.027466,-0.026246,0.969986
813,-29.419394,-4.821851,1.037613,0.031373,-0.024170,0.993668
814,-31.494621,-3.051804,0.549325,0.063111,-0.072145,1.090593
815,-31.067369,-0.671397,0.183108,0.025025,-0.068727,1.039200
816,-28.747997,0.000000,-0.488289,0.015991,-0.067628,1.005264
817,-27.161059,0.854505,-0.976577,0.049805,-0.064698,0.964981
818,-30.395972,0.061036,-0.488289,0.022827,-0.036255,1.019669
819,-33.142596,1.953155,2.075227,0.074586,-0.040162,0.966445
820,-46.387427,3.173877,7.629511,0.046387,-0.079103,1.059098
821,-41.748684,5.981537,7.568475,0.020630,-0.084230,0.988663
822,-41.504540,7.507439,6.591897,0.021118,-0.046876,0.996231
823,-47.364004,7.080186,4.089418,-0.017578,-0.071412,1.007340
824,-45.166705,5.004959,0.061036,-0.025879,-0.112673,1.045060
825,-33.691920,3.356985,-3.967346,-0.078004,-0.103883,1.023697
826,-26.672770,0.061036,-10.864424,-0.053712,-0.126833,1.019425
827,-31.128405,-3.784237,-27.100023,-0.057252,-0.250980,0.958999
828,-47.425040,0.061036,-29.236286,0.143069,-0.332769,1.076677
829,-33.203632,1.281758,-13.733120,0.152468,-0.271366,1.115862
830,-22.400244,6.286717,2.685588,0.105348,-0.145632,1.085466
831,-28.503853,11.535821,2.746624,0.042847,0.166262,0.978653
832,-64.515145,21.240558,-12.024109,0.180667,0.136355,0.932143
833,-108.033875,33.386740,-10.498207,-0.036988,0.531258,0.762829
834,-183.474479,23.804074,-30.090791,-0.278935,0.622202,0.232425
835,-231.998169,-16.662852,-11.352712,-0.223880,1.083268,0.819104
836,-376.287480,-36.865797,-41.870756,0.054200,1.282979,1.999969
837,-621.225299,-125.246052,-9.399557,-1.260395,0.290166,1.882841
838,-845.960174,-224.795911,69.581140,-0.380499,0.119387,1.567895
839,-952.529183,-213.138018,130.800336,0.630137,-0.569955,1.999969
840,-860.730907,-128.175784,185.061418,0.127077,-2.000031,1.999969
841,-259.159228,-13.183795,-4.394598,-0.630014,-1.219257,1.999969
842,315.922789,15.442130,-72.022583,-0.796887,0.654551,1.999969
843,175.844968,48.340581,-100.648508,-0.177371,0.705577,0.616342
844,-88.563363,-16.052491,10.620279,-0.610605,0.815076,0.154421
845,-175.051499,-70.740826,25.574121,-0.259403,0.143923,1.049943
846,-11.535821,-22.888533,19.165332,-0.245243,0.366217,1.148211
847,60.669871,-4.028382,1.403830,-0.115114,0.659922,0.741466
848,7.446403,-0.915541,2.868696,-0.126955,0.620859,0.842542
849,24.780652,2.807660,-0.305180,-0.165286,0.455695,1.042130
850,79.652094,2.502480,-4.455634,-0.180789,0.555795,0.999405
851,92.225528,-10.864424,-2.319371,-0.206424,0.576669,1.114519
852,109.987030,-25.024796,0.915541,-0.185916,0.519295,1.352926
853,155.275807,-30.518044,-2.014191,-0.101076,0.493660,1.403952
854,193.484398,-23.010605,-9.704738,-0.018433,0.485115,1.305684
855,210.879683,-5.493248,-18.982223,0.006958,0.409918,1.315816
856,230.167086,16.784924,-27.893492,-0.027588,0.282719,1.289815
857,253.971160,33.997101,-33.264668,-0.086183,0.146242,1.160418
858,270.389868,38.696880,-33.569848,-0.118776,0.053346,1.033463
859,279.972534,32.654307,-30.029755,-0.110353,0.028321,1.076555
860,289.555200,21.850919,-27.344167,-0.051881,0.004150,1.195209
861,304.509041,17.212177,-29.236286,0.021241,-0.034546,1.260761
862,314.763104,22.644388,-35.584039,0.049439,-0.144656,1.084123
863,309.452964,43.762875,-45.532921,0.066041,-0.397345,0.768322
864,290.470741,74.952316,-47.119860,0.044678,-0.458137,0.611337
865,252.262150,80.506600,-47.119860,0.092164,-0.410529,0.654063
866,234.622721,76.050965,-51.270314,0.298222,-0.226932,1.097063
867,215.457389,74.525063,-58.716716,0.237430,-0.229374,1.663111
868,217.410544,84.351873,-63.904784,0.095460,-0.319585,1.999969
869,227.420462,93.568322,-63.416495,-0.083253,-0.388312,1.999969
870,238.101778,102.113375,-57.495995,-0.152224,-0.668589,1.999969
871,244.571603,111.696040,-47.302968,-0.165286,-0.779431,1.999969
872,229.861906,112.184329,-35.400931,-0.162966,-0.834363,1.999969
873,224.246586,107.972839,-21.911955,-0.182498,-0.890639,1.999969
874,254.337377,109.620813,-10.742351,-0.229129,-0.967666,1.999969
875,280.888075,117.189288,1.098650,-0.164675,-0.932998,1.999969
876,270.389868,124.147402,13.733120,-0.089357,-0.934951,1.830228
877,260.440986,127.443351,22.522316,0.250980,-0.875013,1.811429
878,257.877470,134.584573,22.217136,0.462287,-0.773938,1.850126
879,245.181964,129.335470,17.212177,0.622324,-0.833265,1.884916
880,240.787366,118.715190,11.841001,0.607553,-1.042008,1.720851
881,236.453803,97.657740,9.521630,0.524544,-1.382467,1.277974
882,216.556039,72.510872,10.070954,0.564096,-1.861112,0.927382
883,168.703746,54.749371,8.484016,0.832898,-2.000031,0.735607
884,108.400092,66.468299,-15.991455,1.094865,-2.000031,0.360357
885,75.806821,110.719463,-41.626612,0.898451,-2.000031,-0.206912
886,73.914702,124.513619,-69.764248,0.312505,-2.000031,-1.007950
887,-21.057450,40.344854,-40.100710,-0.212650,-2.000031,-1.169451
888,-179.751278,-132.753491,29.236286,-0.577523,-2.000031,-2.000031
889,-318.486305,-309.636072,79.835203,1.118303,-1.017838,1.412619
890,-156.008240,-207.095445,32.593271,0.708995,0.151003,1.999969
891,-67.566949,-76.234073,24.414435,-0.419684,1.412375,1.999969
892,-149.050126,-98.451209,43.457694,-0.436774,0.775647,-0.787366
893,-282.780194,-132.570382,51.697566,0.242557,-0.292607,-1.065934
894,-345.464256,-103.089952,63.477531,0.676402,-0.277958,1.727687
895,-368.352789,-86.854353,65.857939,1.090105,-0.349126,1.999969
896,-210.696574,-28.015564,29.724575,1.170550,-0.833997,1.999969
897,-145.510033,-22.827497,34.180209,-0.881727,0.422370,1.999969
898,-230.106050,-86.549172,59.327077,-1.306416,-0.886976,1.999969
899,-72.571908,-150.087739,32.959487,1.056535,-0.082887,1.999969
900,-34.973678,-75.867857,-12.817578,1.816434,0.164065,1.994415
901,-56.336309,5.065995,0.549325,-0.277226,0.206180,1.140887
902,-70.008392,-30.579080,7.507439,-0.689586,-0.084474,1.123674
903,-36.987869,-50.843061,-4.699779,0.631357,0.111818,1.401266
904,-42.236973,-8.606088,-9.155413,0.220706,-0.110231,1.268574
905,-23.437858,-2.380407,-3.356985,-0.238041,0.002197,1.100481
906,-17.639429,-9.338521,-3.479057,0.187503,0.120607,1.025772
907,-27.771420,3.173877,0.244144,0.041138,0.015137,1.089738
908,-21.179522,7.202258,1.464866,-0.010132,0.032715,1.053361
909,-18.799115,8.667124,2.014191,0.058473,0.069459,1.010880
910,-23.498894,11.352712,3.784237,0.003540,0.028809,1.037003
911,-19.348440,10.864424,3.601129,-0.006714,0.006104,1.053849
912,-15.136950,10.986496,3.356985,0.026123,0.031006,1.025162
913,-15.136950,11.108568,3.234913,-0.017456,0.046387,0.976455
914,-17.517357,9.887846,2.929732,0.012451,0.040284,0.995010
915,-17.883574,10.315099,2.807660,-0.032959,0.027955,0.991470
916,-18.799115,8.422980,3.112840,-0.025513,0.014527,1.010025
917,-16.540780,7.995727,3.356985,-0.025757,0.017212,1.019303
918,-12.817578,6.530861,3.356985,-0.019898,0.106447,0.968887
919,-14.892805,5.737392,4.028382,-0.050050,0.043702,0.981338
920,-15.869383,3.295949,3.234913,-0.034180,0.020142,1.022477
921,-14.038300,1.953155,2.075227,-0.031739,0.032959,0.969863
922,-17.273213,0.305180,1.647974,-0.022339,0.013672,0.992325
923,-17.639429,-0.488289,0.671397,-0.031617,0.007935,1.009415
924,-15.442130,-0.366217,0.244144,-0.019776,0.003784,0.990982
925,-15.564202,-0.427253,0.244144,-0.033082,-0.004761,0.995010
926,-14.648661,-0.854505,0.488289,-0.070192,0.002441,1.039689
927,-10.864424,-2.563516,2.136263,0.031983,0.051270,0.874403
928,-13.611048,-1.159686,1.464866,-0.019532,-0.029664,0.966690
929,-11.657893,-0.732433,1.098650,-0.030152,-0.026123,1.043717
930,-8.728161,-0.793469,0.671397,-0.038087,-0.008423,0.997574
931,-9.643702,-1.892119,0.671397,-0.027100,-0.020874,1.003677
932,-7.324331,-2.075227,0.122072,-0.037110,-0.031739,1.030045
933,-4.638743,-2.807660,0.549325,0.007080,-0.022827,1.005386
934,-3.418021,-2.136263,0.244144,-0.045899,-0.010498,0.968276
935,-5.859464,-2.929732,0.671397,-0.013672,-0.010376,0.950698
936,-10.681315,-3.540093,1.403830,-0.014282,0.002930,0.964370
937,-15.991455,-4.150454,2.014191,-0.016236,0.014160,0.959243
938,-21.545739,-5.188067,2.685588,-0.013428,0.003296,0.978531
939,-23.193713,-4.638743,2.990768,-0.017090,-0.027710,0.965103
940,-20.569162,-5.065995,2.746624,-0.018921,-0.014771,0.994278
941,-21.362631,-5.493248,2.563516,-0.010620,-0.008301,0.993668
942,-26.489662,-6.775006,2.441444,-0.065675,-0.037598,0.993423
943,-20.935378,-9.216449,1.220722,-0.024659,-0.009888,0.951431
944,-25.024796,-10.437171,-1.037613,-0.022339,0.005859,0.961807
945,-31.250477,-12.207218,-1.647974,-0.018067,-0.011109,0.965957
946,-33.630884,-12.268254,-4.089418,-0.017090,-0.005737,0.963882
947,-38.391699,-11.902037,-3.967346,0.009766,-0.020386,1.018936
948,-44.495308,-10.620279,-2.319371,-0.063722,-0.064332,0.988785
949,-39.856565,-10.376135,0.854505,0.039551,-0.067994,1.005997
950,-44.617380,-6.958114,2.197299,-0.006104,-0.099245,0.999405
951,-41.992828,-6.408789,5.127031,0.020996,-0.079713,1.001602
952,-36.621653,-5.432212,6.042573,0.005371,-0.104860,1.134905
953,-37.048905,0.366217,5.004959,-0.009400,-0.085328,0.923476
954,-35.889220,-0.183108,5.615320,-0.077516,-0.013916,1.052873
955,-42.420081,-3.845274,2.197299,-0.048829,-0.011841,1.068376
956,-47.241932,-4.577707,1.892119,-0.194339,0.151980,1.258808
957,-46.265354,-9.277485,-13.794156,-0.135744,-0.000855,0.969375
958,-64.087892,-9.155413,-27.893492,0.046509,-0.235233,0.961563
959,-65.735866,-5.432212,-4.089418,0.168460,-0.305180,1.031632
960,-50.049592,-3.723201,4.089418,0.032349,-0.261601,1.054704
961,-25.574121,-5.249104,-5.371176,0.016846,-0.135622,1.017716
962,-34.851606,-4.394598,-11.413748,-0.002930,0.129397,0.931044
963,-79.652094,-1.831083,-18.371862,0.055177,0.178225,0.947402
964,-127.565423,2.380407,-22.522316,-0.019532,0.257572,0.718517
965,-148.928054,1.770047,-26.184482,0.092897,0.591806,0.624399
966,-199.404898,-26.001373,-50.171664,-0.308476,0.260380,0.997208
967,-338.628214,-39.246204,-44.434272,0.049561,0.688853,1.576318
968,-527.412833,-41.626612,-42.664225,-0.377447,0.593149,1.433738
969,-670.542458,-137.819486,-5.065995,-0.640513,0.017334,1.157977
970,-827.222095,-227.664607,50.110628,-0.080446,-0.166384,1.046525
971,-907.606622,-249.149310,76.234073,0.462898,-1.227924,1.745998
972,-1154.314489,-271.732662,237.369345,-0.919326,-0.579721,1.999969
973,-212.283513,-147.219043,34.180209,-0.480110,-1.442283,1.999969
974,356.023499,-41.321431,-27.161059,-0.046509,0.761242,1.999969
975,278.690776,39.673457,-39.307240,0.104616,1.156023,1.748562
976,79.224842,14.770733,14.404517,-0.790295,0.920546,0.665049
977,-36.011292,-24.414435,41.382467,-0.419440,0.395392,0.390387
978,20.630198,-3.723201,50.293736,-0.321416,0.247440,0.400153
979,93.751431,10.864424,41.687648,-0.130739,0.362676,0.317754
980,71.961547,7.507439,41.321431,0.067262,0.504158,0.476936
981,54.932479,-2.685588,37.842374,0.141238,0.463874,0.815076
982,97.474632,-9.338521,25.757229,0.187625,0.507576,1.043839
983,132.814527,-15.991455,12.512398,0.232670,0.598642,1.120745
984,147.951476,-18.860151,-0.366217,0.243290,0.578622,1.248432
985,173.464561,-12.817578,-14.038300,0.183474,0.502205,1.378805
986,207.400626,-7.080186,-26.001373,0.085939,0.418219,1.382101
987,234.073396,-2.868696,-33.875029,-0.016480,0.278447,1.281880
988,255.741207,3.356985,-37.232013,-0.100832,0.132937,1.135882
989,271.488518,11.841001,-37.354086,-0.146609,0.032593,0.998672
990,276.615549,19.226368,-34.241245,-0.181643,-0.033326,1.055314
991,280.888075,21.179522,-28.931106,-0.197391,-0.113405,1.177264
992,291.386282,18.127718,-22.949569,-0.155886,-0.135622,1.338521
993,305.546654,11.841001,-20.202945,-0.071168,-0.164187,1.396872
994,315.983825,7.263294,-21.362631,-0.020508,-0.233280,1.338888
995,319.401846,12.390326,-27.893492,0.095094,-0.358160,1.146990
996,306.523232,31.921874,-37.354086,0.151980,-0.526864,0.947280
997,289.066911,50.965133,-43.091478,0.174563,-0.481086,0.871962
998,263.187610,56.153201,-50.720989,0.190311,-0.474861,0.925673
999,245.059892,51.941711,-58.655680,0.142702,-0.454597,1.176898
1000,224.979019,55.481804,-60.669871,0.084474,-0.322148,1.693141
1001,203.982605,58.228428,-59.754330,0.045777,-0.341924,1.999969
1002,218.204013,62.500954,-57.801175,0.030762,-0.512581,1.999969
1003,269.169146,77.149615,-56.519417,0.034058,-0.617929,1.999969
1004,291.630427,86.060884,-50.782025,0.073732,-0.656382,1.999969
1005,288.883803,85.938811,-42.664225,0.159548,-0.761120,1.999969
1006,299.443046,86.793317,-37.537194,0.232181,-0.843519,1.999969
1007,297.306783,89.478904,-33.386740,0.295781,-0.945449,1.996490
1008,284.550240,87.708858,-29.053178,0.295415,-1.090105,1.843778
1009,272.709239,80.445563,-25.024796,0.285161,-1.240375,1.693141
1010,255.924315,75.379568,-25.696193,0.268925,-1.452415,1.532006
1011,233.585107,81.910430,-27.344167,0.217777,-1.718044,1.334615
1012,203.616388,98.023957,-26.672770,0.172854,-2.000031,1.099138
1013,167.177844,115.053025,-21.362631,0.311040,-2.000031,0.919814
1014,121.583886,125.062943,-15.686275,0.583871,-2.000031,0.824964
1015,86.305028,138.185702,-14.160372,0.781872,-2.000031,0.633310
1016,68.848707,147.341115,-17.578393,0.672374,-2.000031,0.042237
1017,38.269627,114.015412,-4.333562,0.460700,-2.000031,-0.656626
1018,-63.721675,18.371862,16.540780,0.041382,-2.000031,-2.000031
1019,-275.394827,-158.693828,64.515145,0.782361,-2.000031,-1.620630
1020,-217.654688,-179.934386,43.335622,0.831067,-0.603159,1.776028
1021,-121.278706,-96.925307,18.799115,-0.013428,1.285298,1.999969
1022,-175.051499,-77.027543,28.076600,-0.473518,1.068742,1.218769
1023,-320.378424,-107.606622,44.068055,-0.313848,-0.402716,-0.033326
1024,-293.827726,-102.235447,60.425727,0.032959,-0.444831,1.030777
1025,-292.362860,-84.901198,65.674830,0.831678,-0.197879,1.999969
1026,-224.368658,-40.955215,49.317159,1.204608,-0.228397,1.999969
1027,-100.770581,7.568475,14.831769,1.003311,-0.315068,1.349874
1028,-108.766308,18.127718,3.601129,-0.173465,0.109743,1.148211
1029,-184.328985,-22.705425,29.358358,-1.093767,-0.597787,1.651881
1030,-100.282292,-66.102083,29.846647,-0.412360,-0.200076,1.999969
1031,-65.003433,-95.582513,3.540093,1.212177,-0.062013,1.999969
1032,-32.288090,-36.377508,-7.019150,0.487068,0.145022,1.403708
1033,-65.491722,-27.222095,0.183108,-0.491096,-0.148196,1.084489
1034,-44.068055,-52.613108,0.671397,0.036133,-0.009155,1.333272
1035,-29.846647,-32.593271,-10.070954,0.505745,0.014771,1.254658
1036,-30.334936,-4.028382,-2.868696,-0.002686,0.049805,1.239155
1037,-23.071641,-6.103609,0.488289,-0.078614,-0.014160,1.021012
1038,-9.399557,-6.652934,-3.479057,0.130739,0.167483,1.020768
1039,-24.414435,-1.525902,0.000000,0.040650,0.025513,1.093400
1040,-13.488975,2.502480,1.037613,0.017945,-0.014038,1.125994
1041,-4.638743,7.202258,0.793469,0.088136,0.045289,1.045182
1042,-7.568475,10.559243,2.563516,-0.018189,0.036988,0.975601
1043,-7.446403,8.545052,2.319371,0.011719,0.025147,0.858900
1044,-12.390326,7.202258,3.906310,0.025147,0.119265,0.993057
1045,-15.075914,4.516670,5.493248,-0.034058,0.026612,1.009903
1046,-14.953841,1.159686,4.150454,-0.008179,0.034424,0.880140
1047,-21.423667,-1.892119,2.929732,-0.017090,0.014160,0.883558
1048,-23.987182,-4.394598,3.234913,-0.013672,0.000610,1.046281
1049,-16.601816,-4.394598,2.502480,-0.002808,0.028443,1.029557
1050,-15.747311,-3.967346,2.197299,0.009155,0.017823,0.971328
1051,-14.526589,-3.723201,2.685588,-0.001221,-0.010742,0.965713
1052,-13.977264,-4.211490,2.380407,0.005127,-0.044068,0.945571
1053,-12.390326,-4.760815,2.380407,0.018799,-0.019287,0.938979
1054,-13.611048,-5.371176,2.502480,-0.001831,0.014893,0.995743
1055,-15.014878,-7.019150,2.136263,-0.021851,0.030762,0.991470
1056,-15.442130,-7.995727,0.915541,0.003296,-0.006470,1.007218
1057,-13.611048,-7.629511,0.671397,0.016724,-0.081910,0.979507
1058,-9.399557,-7.629511,0.671397,-0.009277,0.026978,1.032486
1059,-9.521630,-8.239872,0.671397,-0.002564,0.021851,0.966690
1060,-10.559243,-9.948882,0.183108,-0.015747,0.015137,0.951186
1061,-12.939651,-12.024109,-0.427253,0.006958,0.039796,0.998184
1062,-15.686275,-12.634470,-0.427253,0.023926,-0.007935,1.005875
1063,-14.709697,-11.963073,-0.793469,0.021729,-0.012207,0.996719
1064,-14.892805,-11.413748,-0.915541,0.038575,-0.016236,0.965469
1065,-18.127718,-10.559243,-0.244144,0.030396,-0.011719,1.000015
1066,-19.165332,-9.399557,0.549325,0.034791,-0.035523,1.020645
1067,-17.273213,-7.324331,1.586938,0.051637,-0.027710,1.022232
1068,-19.287404,-5.676356,2.380407,0.041993,-0.025147,1.018936
1069,-15.442130,-4.333562,1.831083,0.030396,-0.007568,0.995010
1070,-18.493935,-4.516670,1.403830,0.013672,-0.003296,0.975723
1071,-19.043259,-5.859464,0.854505,0.007446,-0.001587,0.951797
1072,-22.034028,-7.446403,-0.122072,0.006714,0.013306,0.953506
1073,-27.344167,-8.850233,0.183108,0.013062,0.001831,0.964248
1074,-29.541466,-9.765774,0.488289,0.020630,-0.020386,0.941543
1075,-32.227054,-8.911269,0.000000,0.097047,-0.024659,1.136248
1076,-38.818952,-4.821851,-0.427253,0.002564,-0.048951,1.013321
1077,-35.828183,-4.272526,-0.549325,0.062013,-0.047852,1.009781
1078,-36.682689,-1.403830,0.427253,0.031861,-0.011719,1.094743
1079,-39.063096,4.272526,3.540093,0.105470,-0.046509,0.906142
1080,-58.350500,5.981537,10.620279,0.042969,-0.063844,1.074723
1081,-53.345541,8.850233,10.925460,0.019532,-0.071778,1.046769
1082,-51.148241,9.338521,8.056764,-0.013428,-0.035645,1.007584
1083,-53.467613,6.042573,2.685588,-0.042237,-0.099123,0.992569
1084,-44.068055,1.586938,0.000000,-0.096803,-0.108156,1.074235
1085,-35.584039,-2.075227,-13.794156,-0.050904,-0.153689,0.979019
1086,-29.663539,-4.211490,-26.367590,0.017700,-0.251469,0.956802
1087,-46.448463,-3.723201,-25.391012,0.157229,-0.239506,0.971084
1088,-27.466239,-2.014191,-9.704738,0.175906,-0.230472,1.080949
1089,-12.085145,-2.441444,0.976577,0.060548,-0.283085,1.124163
1090,-15.381094,3.967346,4.150454,0.039063,-0.001709,1.093889
1091,-44.678416,13.244831,-4.760815,0.110597,0.147951,0.993790
1092,-79.224842,24.597543,-7.019150,0.073610,0.268437,0.974990
1093,-123.476005,32.227054,-14.709697,-0.048341,0.552743,0.840833
1094,-221.866178,31.128405,-40.161746,-0.088380,0.541756,-0.066041
1095,-233.401999,-23.132677,5.127031,-0.100710,1.011490,0.559457
1096,-408.941787,-43.091478,-22.400244,0.143069,1.231708,1.999969
1097,-623.483635,-87.708858,-8.789197,-0.936904,0.292607,1.754788
1098,-822.766461,-174.868391,56.153201,-0.255497,0.123049,1.210712
1099,-902.296483,-181.643397,81.422141,0.211185,-0.192142,0.922744
1100,-1001.724270,-175.173571,98.878462,1.652247,-2.000031,1.999969
1101,-897.352560,-105.409323,224.917983,-0.250492,-0.956802,1.999969
1102,78.919661,-35.278859,-65.857939,0.148684,-0.457771,1.999969
1103,363.408866,41.321431,-54.566262,-0.411261,1.101335,1.999969
1104,153.505760,46.997787,-69.153887,-0.240726,1.138079,1.719387
1105,-24.353399,-21.728847,-6.103609,-0.540780,0.630014,0.812879
1106,-34.058137,-51.270314,3.234913,-0.245731,0.195682,0.670542
1107,93.568322,-22.278172,-7.446403,-0.293095,0.246098,0.589731
1108,117.433433,-13.794156,-10.376135,-0.184329,0.496223,0.416999
1109,66.773480,-9.887846,-7.873655,-0.137453,0.450446,0.735729
1110,84.718090,1.831083,-11.474784,-0.114260,0.381231,1.071427
1111,141.298543,10.376135,-19.287404,-0.088258,0.459724,1.095109
1112,159.487297,4.821851,-21.850919,-0.078981,0.471809,1.066667
1113,171.267262,-2.075227,-22.461280,-0.072755,0.382330,1.115373
1114,202.761883,-1.953155,-27.466239,-0.023926,0.352911,1.159564
1115,224.551766,7.263294,-33.875029,0.012329,0.324590,1.219501
1116,239.200427,22.949569,-40.100710,0.030762,0.223636,1.276631
1117,262.333104,39.002060,-45.532921,0.012940,0.106935,1.246601
1118,285.282673,47.730220,-48.767834,0.027344,0.000488,1.103777
1119,297.123674,49.561303,-49.439231,0.046998,-0.046509,1.003433
1120,301.274128,45.838102,-49.378195,0.115969,-0.050416,1.139544
1121,308.598459,41.260395,-52.918288,0.169558,-0.083742,1.285054
1122,316.044862,42.969406,-59.815366,0.181155,-0.245609,1.095109
1123,309.330892,57.740139,-67.444877,0.125978,-0.602670,0.504402
1124,288.151370,84.901198,-70.008392,0.177249,-0.628672,0.177493
1125,239.627680,87.953002,-67.750057,0.223880,-0.435065,0.418219
1126,199.404898,71.534295,-68.421454,0.278691,-0.253544,1.218647
1127,187.624933,69.275959,-73.182269,0.299931,-0.194461,1.999969
1128,201.602197,86.121920,-76.966506,0.238529,-0.253788,1.999969
1129,252.933547,108.339055,-80.933852,0.081666,-0.600107,1.999969
1130,284.428168,125.917449,-73.731594,-0.013916,-0.730358,1.999969
1131,261.844816,125.062943,-58.350500,-0.097169,-0.922011,1.809232
1132,246.219577,116.884108,-40.588998,-0.075196,-1.027237,1.999969
1133,245.670253,107.362478,-25.696193,-0.003052,-1.001846,1.999969
1134,254.581521,98.329137,-13.611048,0.061158,-1.022232,1.999969
1135,276.066224,94.728008,-5.737392,0.260502,-0.995621,1.999969
1136,287.724117,93.934539,-4.516670,0.520638,-0.940444,1.839384
1137,276.920729,87.342641,-9.338521,0.604257,-0.936049,1.530663
1138,261.173419,74.158846,-16.296635,0.563363,-0.951186,1.473167
1139,246.402686,61.097124,-23.254749,0.445441,-1.052995,1.508568
1140,232.242313,57.190814,-27.649348,0.264775,-1.281147,1.437522
1141,215.823606,60.791943,-27.588312,0.120607,-1.611353,1.180926
1142,185.610742,67.017624,-23.559930,0.206302,-2.000031,0.892103
1143,146.364538,81.422141,-20.447089,0.452033,-2.000031,0.671275
1144,110.048066,108.339055,-25.818265,0.620127,-2.000031,0.326055
1145,75.684749,132.021057,-27.954528,0.496834,-2.000031,-0.184207
1146,35.767147,103.517205,-4.211490,0.305791,-2.000031,-0.547982
1147,-22.217136,17.456321,31.799802,0.189334,-2.000031,-0.277104
1148,-56.641489,-63.111315,61.646448,0.016236,-1.988800,-1.854520
1149,-200.808728,-183.047227,74.280919,0.937514,-0.865126,-0.805066
1150,-180.666819,-165.957122,52.124819,0.420539,-0.430182,1.812650
1151,-102.357519,-60.303655,50.843061,-0.459113,1.168963,1.999969
1152,-151.186389,-89.906157,63.782712,-0.447028,0.876967,0.029664
1153,-300.297551,-134.706645,74.769207,0.408453,-0.237308,-0.505379
1154,-313.725490,-104.554818,79.774166,1.116228,-0.481941,1.502953
1155,-301.213092,-77.027543,66.224155,1.569726,-0.047730,1.999969
1156,-196.780346,-38.513771,24.414435,1.626001,-0.143557,1.999969
1157,-130.067903,10.437171,-17.639429,0.415045,0.017700,1.496727
1158,-182.497902,30.945296,-2.258335,-0.786877,-0.230594,1.971832
1159,-169.497215,-11.047532,31.799802,-1.596460,-0.349737,1.999969
1160,-78.553445,-74.891279,39.490349,-0.267216,-0.262943,1.819730
1161,-49.134051,-90.699626,20.080873,1.482322,0.369390,1.999969
1162,-34.180209,-12.695506,-0.427253,0.684703,0.050172,1.309224
1163,-39.124132,5.188067,5.676356,-0.856336,-0.003784,1.057511
1164,-36.194400,-41.199359,8.361944,0.085695,0.088991,1.171527
1165,-23.376822,-18.127718,-2.197299,0.697032,0.112306,1.413474
1166,-30.395972,15.442130,4.089418,-0.278569,0.003906,1.025284
1167,-21.911955,-3.845274,3.906310,-0.306035,0.056886,0.976333
1168,-19.348440,-12.085145,0.061036,0.236332,0.121096,1.083879
1169,-24.475471,1.586938,2.746624,-0.032349,0.010132,1.102312
1170,-11.535821,-0.244144,2.685588,-0.028077,0.074342,1.089250
1171,-14.770733,1.586938,-0.915541,0.052857,-0.033326,1.052018
1172,-11.474784,5.859464,2.685588,-0.058595,0.034668,1.037736
1173,-10.193027,3.295949,3.662165,-0.011719,0.103273,0.984756
1174,-10.925460,1.464866,4.150454,0.006470,0.081300,1.003189
1175,-11.474784,2.014191,2.990768,-0.037110,0.047608,0.954849
1176,-11.169604,-0.976577,2.380407,-0.045167,0.064454,0.969619
1177,-13.305867,-2.990768,2.319371,-0.033692,0.052857,0.987686
1178,-12.756542,-2.502480,0.366217,-0.009155,0.047608,0.997452
1179,-11.657893,-4.638743,2.014191,0.006592,0.061280,0.964004
1180,-19.104295,-5.615320,3.479057,-0.044800,0.034058,0.939101
1181,-17.883574,-7.324331,3.234913,-0.026734,0.035401,1.001602
1182,-16.906996,-8.056764,3.356985,-0.023316,0.046143,0.966079
1183,-16.540780,-8.239872,0.305180,-0.078004,-0.003662,0.911513
1184,-16.968032,-11.352712,2.014191,-0.029908,0.065187,1.071305
1185,-19.897765,-12.085145,2.685588,-0.002930,0.060182,1.000137
1186,-19.104295,-11.474784,1.464866,-0.034668,0.039307,0.984878
1187,-20.874342,-11.291676,0.854505,-0.031617,0.033448,0.965103
1188,-22.888533,-11.535821,1.403830,-0.029419,0.058717,1.031510
1189,-22.522316,-8.789197,-0.976577,0.108522,-0.179080,0.669688
1190,-23.193713,-8.850233,0.793469,0.008545,0.011597,1.146014
1191,-25.085832,-8.117800,1.770047,0.005615,-0.009766,1.047379
1192,-19.165332,-5.859464,2.014191,0.025635,-0.018799,1.044083
1193,-15.075914,-3.967346,2.014191,-0.005127,0.019532,1.042374
1194,-14.221408,-4.394598,2.258335,-0.008423,-0.000122,1.015396
1195,-12.085145,-4.760815,1.586938,-0.016602,0.014527,1.009415
1196,-12.390326,-5.371176,1.770047,-0.000732,-0.017334,1.028580
1197,-9.765774,-4.638743,1.647974,0.007324,-0.020508,0.999771
1198,-9.277485,-4.455634,1.647974,0.004395,0.003540,0.995377
1199,-11.230640,-4.394598,1.525902,-0.008057,0.020264,0.960952
1200,-16.968032,-6.225681,1.647974,-0.023072,0.006714,0.941176
1201,-21.484703,-7.751583,1.525902,-0.014527,0.016480,0.928237
1202,-25.879301,-9.033341,1.037613,0.000732,0.018067,0.964981
1203,-30.640116,-9.338521,0.366217,0.003052,-0.003906,0.999893
1204,-32.654307,-8.300908,0.488289,0.012573,-0.016846,1.001724
1205,-32.532235,-6.469825,0.305180,0.012085,-0.008423,1.000748
1206,-33.691920,-6.958114,-0.122072,0.002075,-0.042115,0.983047
1207,-34.485389,-7.446403,0.000000,-0.000610,-0.020264,0.977554
1208,-36.499580,-7.995727,-0.671397,0.004150,-0.034302,0.968521
1209,-39.612421,-8.911269,-0.244144,0.014038,-0.054810,0.973159
1210,-38.147555,-7.995727,0.122072,-0.019776,-0.031739,0.945205
1211,-45.227741,-6.836042,6.286717,0.070802,-0.099977,1.233783
1212,-49.866484,0.000000,7.507439,-0.028931,-0.114015,0.989517
1213,-39.490349,-0.061036,6.713970,0.032105,-0.037598,1.016739
1214,-48.645762,1.403830,6.164645,-0.026001,-0.050172,1.018082
1215,-51.575494,-1.770047,3.601129,-0.035645,-0.058595,1.019303
1216,-43.579767,1.098650,-0.122072,-0.022827,-0.046876,0.964004
1217,-45.105669,3.479057,0.183108,-0.001221,-0.102296,0.851331
1218,-54.016938,-2.502480,-9.948882,-0.017090,-0.262943,0.970230
1219,-48.523690,-2.197299,-11.413748,-0.040894,-0.081544,0.966201
1220,-64.637217,-2.319371,-30.640116,0.018677,-0.254643,1.013565
1221,-58.960861,-7.141222,-14.282444,0.097780,-0.327276,1.031388
1222,-39.002060,-6.286717,-3.845274,0.141238,-0.112795,1.066667
1223,-33.081559,-2.563516,-8.239872,0.051270,0.072511,0.982315
1224,-77.271687,6.775006,-17.029068,0.101930,0.175906,1.043351
1225,-131.715877,17.517357,-25.513085,0.010376,0.251713,0.966079
1226,-162.478065,15.381094,-23.559930,-0.082033,0.240360,0.600473
1227,-158.937972,-33.630884,-21.362631,-0.412116,0.417731,1.005020
1228,-307.255665,-42.786297,-47.058824,0.057496,0.406500,1.337179
1229,-487.434195,-54.016938,-34.668498,-0.303838,0.420050,1.337179
1230,-614.877546,-131.288624,2.807660,-0.349004,0.172488,1.161639
1231,-779.003586,-201.541161,35.706111,-0.140505,-0.334234,1.207416
1232,-829.114214,-205.996796,72.816052,0.248905,-0.342168,0.763073
1233,-982.925155,-204.959182,127.077134,0.971084,-2.000031,1.999969
1234,-748.790723,-113.954376,218.081941,-0.769665,-0.728038,1.999969
1235,-102.906844,-124.696727,-11.779965,-0.087404,-0.579355,1.999969
1236,77.759976,-73.304341,20.263981,-0.111330,1.229511,1.999969
1237,-24.780652,-36.865797,5.249104,0.054810,1.055192,1.999969
1238,-20.813306,-30.212863,22.705425,-0.135988,0.635142,1.999969
1239,137.270161,9.399557,1.342794,-0.114748,0.313848,1.999969
1240,228.274968,33.813993,-4.821851,-0.196658,0.415900,1.120378
1241,204.104677,33.813993,-1.525902,-0.115602,0.263798,0.480110
1242,184.206912,39.978637,4.089418,-0.125002,0.094972,0.200443
1243,188.418402,43.152514,5.371176,-0.097780,0.025513,0.027222
1244,182.375830,37.170977,9.277485,-0.036622,0.080812,0.050294
1245,171.572442,17.395285,11.596857,0.040650,0.132448,0.235599
1246,176.943618,-4.821851,9.155413,0.124269,0.219730,0.559335
1247,188.906691,-18.677043,0.915541,0.187503,0.305791,0.943984
1248,204.776074,-19.531548,-10.315099,0.212284,0.309941,1.219501
1249,228.519112,-10.131991,-24.414435,0.159670,0.240482,1.303243
1250,253.421836,3.234913,-36.926833,0.073854,0.144289,1.275166
1251,269.474327,15.197986,-43.762875,-0.056275,0.033082,1.284443
1252,283.695735,24.536507,-44.434272,-0.188846,-0.114504,1.330465
1253,299.382010,32.593271,-38.635843,-0.271611,-0.236332,1.366476
1254,312.748913,38.269627,-28.992142,-0.286992,-0.314702,1.360494
1255,322.880903,39.124132,-18.127718,-0.245853,-0.369635,1.352071
1256,328.618296,36.743725,-9.765774,-0.161379,-0.431769,1.259907
1257,329.106584,38.941024,-7.263294,-0.058350,-0.539315,1.030777
1258,311.039902,50.843061,-9.460594,0.096559,-0.650034,0.754894
1259,285.587854,79.774166,-15.564202,0.303471,-0.649546,0.595712
1260,246.280613,85.572595,-20.691234,0.301396,-0.491463,0.819837
1261,219.485771,66.590372,-29.114214,0.392706,-0.405158,1.292012
1262,213.015946,53.833829,-38.269627,0.410407,-0.127687,1.999969
1263,205.630579,49.317159,-51.270314,0.353033,-0.321782,1.999969
1264,238.590066,58.899825,-62.989242,0.217288,-0.511482,1.999969
1265,272.465095,72.266728,-68.726635,0.042481,-0.645396,1.999969
1266,277.836271,72.632944,-62.195773,-0.097780,-0.764538,1.999969
1267,295.597772,65.369650,-55.115587,-0.117678,-0.998306,1.999969
1268,310.856794,73.304341,-47.974365,-0.017578,-1.020768,1.602686
1269,270.878157,75.318532,-38.879988,0.022217,-0.969986,1.602197
1270,250.247959,64.209964,-35.095750,0.106813,-0.947524,1.987823
1271,259.525444,63.599603,-40.222782,0.268559,-0.949722,1.999969
1272,252.079042,79.163806,-50.293736,0.397955,-1.118425,1.800931
1273,236.636912,101.747158,-58.472572,0.331060,-1.412619,1.452293
1274,213.199054,111.024643,-57.923247,0.231449,-1.779080,1.059464
1275,178.774701,103.089952,-46.753643,0.294194,-2.000031,0.883070
1276,138.063630,95.887694,-30.090791,0.542245,-2.000031,0.807752
1277,106.507973,104.188602,-22.034028,0.650645,-2.000031,0.500008
1278,97.047379,118.226902,-21.972992,0.370977,-2.000031,-0.264652
1279,23.132677,61.890593,8.361944,-0.016114,-2.000031,-2.000031
1280,-149.416342,-86.915389,62.012665,0.197879,-2.000031,-2.000031
1281,-251.956970,-183.108263,88.441291,0.699718,-2.000031,-0.462043
1282,-221.377890,-167.055772,74.708171,0.675547,-0.458747,1.760403
1283,-151.308461,-99.244678,51.209277,0.262577,0.882460,1.999969
1284,-190.188449,-85.328450,59.082933,0.245609,0.929213,1.737331
1285,-255.008774,-106.691081,52.979324,0.488045,-0.086427,0.564950
1286,-265.140764,-88.929580,49.988556,0.581918,-0.402472,0.926772
1287,-263.309682,-69.764248,46.631571,0.814710,-0.186038,1.999969
1288,-208.133059,-33.997101,31.067369,0.826184,-0.089235,1.999969
1289,-156.313420,-6.958114,10.620279,0.282841,-0.193240,1.371603
1290,-154.787518,12.024109,13.305867,-0.509285,-0.170291,1.101701
1291,-209.170672,-45.166705,44.922560,-1.134295,-0.247318,1.999969
1292,-143.923095,-90.333410,27.527276,0.749279,-0.373785,1.999969
1293,-0.610361,-55.481804,-4.211490,0.983780,-0.113161,1.638819
1294,-29.968719,-17.517357,-18.982223,-0.009888,0.207767,1.011612
1295,-89.967193,-32.654307,17.761501,-0.345953,0.089723,1.080583
1296,-58.960861,-38.452735,-0.366217,0.195560,-0.123903,1.583520
1297,-12.695506,-21.606775,-4.577707,0.131960,0.020874,1.222675
1298,-31.677729,-19.287404,0.793469,0.057252,-0.025513,1.126238
1299,-14.038300,-15.136950,-1.098650,0.006714,-0.046143,1.084733
1300,-4.882887,-12.634470,-1.281758,0.112428,0.048463,0.986831
1301,-16.723888,-8.728161,0.854505,0.033692,-0.035889,1.018448
1302,-6.530861,-6.469825,1.525902,0.050172,0.021851,1.008316
1303,-9.582666,-2.441444,2.258335,0.049683,0.074708,0.946304
1304,-19.958801,-0.244144,3.906310,0.046754,-0.005615,0.952895
1305,-17.639429,1.281758,4.455634,0.067994,-0.031250,1.058366
1306,-17.700465,1.831083,4.699779,0.018067,-0.020996,1.032853
1307,-12.817578,1.098650,3.906310,0.016358,0.020630,0.999039
1308,-15.991455,-0.061036,3.356985,0.027466,0.055787,1.036637
1309,-15.381094,-1.647974,3.051804,-0.019654,-0.000855,0.992935
1310,-13.611048,-2.502480,1.831083,0.019776,-0.002686,1.005509
1311,-16.357671,-1.647974,2.563516,0.029419,-0.032593,1.036759
1312,-10.986496,-0.305180,2.014191,0.002319,-0.007935,0.996841
1313,-15.014878,-1.464866,2.685588,0.007935,0.003052,1.019547
1314,-10.193027,-1.098650,1.770047,0.029175,-0.072145,0.982437
1315,-11.169604,-1.098650,2.136263,0.022950,-0.018677,1.021256
1316,-11.352712,-1.159686,2.014191,0.006348,-0.002075,0.997818
1317,-10.070954,-1.159686,0.915541,0.024659,-0.028199,0.958755
1318,-11.718929,-1.281758,0.793469,0.009766,-0.013550,0.999405
1319,-11.902037,-1.770047,0.366217,0.012451,-0.051881,0.952407
1320,-12.756542,-2.441444,0.671397,0.009400,-0.028809,0.980240
1321,-14.160372,-3.479057,0.732433,0.018555,-0.011963,0.981216
1322,-13.794156,-3.234913,0.671397,0.017823,-0.035279,0.994034
1323,-13.794156,-3.662165,0.488289,0.011109,-0.022827,0.990005
1324,-15.014878,-4.028382,0.366217,0.018799,-0.023438,1.000137
1325,-19.226368,-4.821851,0.427253,0.009277,-0.053956,1.026505
1326,-13.794156,-4.760815,0.000000,0.012696,-0.041505,0.988052
1327,-14.465553,-5.310140,-0.122072,0.027344,-0.034058,0.978775
1328,-15.014878,-4.943923,-0.183108,0.032593,-0.041382,0.991714
1329,-14.526589,-4.150454,-0.122072,0.034913,-0.042359,1.001358
1330,-14.648661,-3.173877,0.183108,0.035767,-0.040650,1.004654
1331,-15.686275,-2.441444,0.671397,0.030884,-0.048951,0.999283
1332,-15.930419,-1.953155,0.915541,0.039185,-0.056275,0.994522
1333,-17.334249,-1.281758,1.464866,0.031373,-0.058473,0.990738
1334,-17.456321,-1.709010,1.647974,0.021485,-0.052125,0.987198
1335,-18.066682,-2.197299,1.525902,0.022827,-0.048829,0.989395
1336,-19.043259,-2.563516,0.488289,0.016236,-0.060548,1.089738
1337,-18.005646,-0.061036,0.244144,0.029664,-0.061158,0.998306
1338,-19.287404,0.427253,0.488289,0.029297,-0.061036,0.975601
1339,-19.531548,0.122072,0.366217,0.017578,-0.052369,0.972915
1340,-22.583352,-0.488289,0.000000,-0.006226,-0.041016,0.979751
1341,-27.527276,-1.709010,-0.732433,0.010376,-0.025635,0.956191
1342,-30.151827,0.244144,0.427253,0.011841,0.005371,1.133684
1343,-41.260395,1.464866,3.906310,0.037842,-0.119631,1.012711
1344,-37.781338,2.441444,7.385367,0.027955,-0.146487,1.023087
1345,-36.377508,6.225681,7.812619,0.038575,-0.073365,0.975113
1346,-44.556344,6.897078,9.521630,0.009400,-0.076661,1.038346
1347,-41.138323,6.652934,8.178836,-0.031495,-0.097780,1.027970
1348,-33.447776,5.432212,1.831083,-0.033814,-0.102174,1.017838
1349,-25.207904,5.310140,-2.929732,0.004761,-0.091920,0.864393
1350,-24.902724,-0.244144,-9.582666,-0.049317,-0.162112,0.998062
1351,-35.523003,-1.525902,-17.883574,-0.101930,0.075441,1.034928
1352,-48.157473,0.305180,-17.883574,0.103273,-0.256962,1.074968
1353,-32.593271,-0.732433,-2.502480,0.090578,-0.277104,1.075944
1354,-15.197986,0.183108,-2.258335,0.083497,-0.192874,1.092424
1355,-5.981537,0.671397,-2.319371,0.038697,0.007446,1.025772
1356,-36.133364,6.652934,-12.695506,0.080568,0.225467,0.989273
1357,-85.511559,16.479744,-21.301595,0.123659,0.244144,0.950088
1358,-123.109789,23.559930,-33.081559,-0.063722,0.418830,0.708751
1359,-174.135958,0.244144,-50.354772,-0.203983,0.197513,0.660044
1360,-252.750439,-23.559930,-38.941024,-0.018311,0.811048,0.834485
1361,-419.439994,-44.495308,-62.378882,0.053956,0.796033,1.909575
1362,-547.737850,-89.478904,-48.218509,-1.122210,0.616953,1.828885
1363,-684.031434,-195.681697,-13.794156,-0.603159,0.151736,1.219013
1364,-864.271000,-282.291905,54.505226,-0.123171,-0.108888,0.853773
1365,-1030.716411,-298.710613,129.274434,1.391012,-2.000031,1.999969
1366,-789.379721,-188.113222,264.042115,0.032471,-1.363546,1.999969
1367,65.247578,-83.619440,-46.570535,-0.006592,-0.383917,1.999969
1368,347.661555,6.286717,0.305180,-0.621714,1.137469,1.999969
1369,157.228962,54.322118,-17.273213,-0.252445,1.028336,1.754543
1370,-14.465553,7.568475,32.471199,-0.548470,0.640269,0.680430
1371,-11.413748,-2.319371,42.481117,-0.197391,0.213138,0.432502
1372,86.488136,23.376822,31.677729,-0.161746,0.247684,0.252567
1373,85.938811,21.667811,28.686961,0.032349,0.468147,0.189334
1374,41.321431,12.512398,27.710384,0.087892,0.443488,0.456062
1375,60.791943,6.469825,19.043259,0.127199,0.421759,0.751720
1376,103.089952,2.075227,6.897078,0.089723,0.492195,0.873182
1377,115.541314,-7.446403,-1.037613,0.098634,0.499031,0.981827
1378,133.119707,-5.493248,-9.826810,0.073243,0.427619,1.126604
1379,164.492256,4.455634,-18.677043,0.023560,0.361089,1.141009
1380,187.441825,11.718929,-23.987182,-0.045045,0.286137,1.102556
1381,204.043641,15.320058,-25.329976,-0.096315,0.193729,1.135515
1382,221.805142,19.531548,-23.498894,-0.138796,0.097292,1.230854
1383,241.214618,24.292363,-19.836728,-0.122194,0.000488,1.263935
1384,260.502022,31.677729,-16.418708,-0.045655,-0.047974,1.245624
1385,272.709239,38.086519,-17.090105,0.119875,-0.126833,1.202167
1386,276.859693,46.814679,-23.437858,0.213748,-0.231693,1.210712
1387,287.296864,56.458381,-30.701152,0.215579,-0.292485,1.150774
1388,291.386282,53.223468,-36.499580,0.247196,-0.336309,1.153704
1389,288.883803,46.753643,-41.382467,0.291997,-0.367803,1.210590
1390,283.512627,41.077287,-46.875715,0.291752,-0.443000,1.311177
1391,281.803616,39.246204,-51.575494,0.215091,-0.507698,1.422263
1392,279.789426,44.312200,-53.955901,0.137331,-0.561044,1.498802
1393,276.676585,51.758602,-51.636530,-0.004883,-0.567880,1.467796
1394,273.685817,53.772793,-45.654994,-0.029664,-0.560922,1.594141
1395,265.690089,59.693294,-39.917601,0.088869,-0.528450,1.732815
1396,256.717784,69.642176,-37.903410,0.203128,-0.546273,1.799466
1397,247.318227,75.318532,-38.696880,0.295659,-0.562387,1.965972
1398,248.416876,75.928893,-41.443503,0.354620,-0.582162,1.999969
1399,254.215305,70.496681,-46.692607,0.380377,-0.629038,1.999969
1400,258.731975,64.209964,-53.284504,0.385260,-0.689830,1.982208
1401,256.351568,60.852979,-60.669871,0.325811,-0.741955,1.857328
1402,249.393454,61.951629,-68.421454,0.264652,-0.789685,1.673854
1403,234.256504,65.918975,-75.745785,0.181765,-0.830701,1.514061
1404,213.931487,71.839475,-81.605249,0.116945,-0.890639,1.419699
1405,191.897459,78.248264,-85.694667,0.076173,-0.948501,1.385153
1406,171.267262,85.389487,-89.295796,0.105470,-0.995254,1.388083
1407,153.871977,101.869230,-93.018997,0.326787,-1.138079,1.492943
1408,127.931640,135.805295,-95.643549,0.453010,-1.432761,1.580102
1409,110.353246,162.966354,-92.408637,0.442023,-1.956207,1.617945
1410,112.428473,180.788891,-73.670558,0.261723,-2.000031,1.251484
1411,129.030289,173.159380,-47.119860,0.146853,-2.000031,0.240482
1412,116.090639,128.664073,-16.601816,0.057984,-2.000031,-0.882094
1413,40.772107,50.965133,19.958801,-0.255375,-2.000031,-2.000031
1414,-114.137484,-112.916762,80.567636,0.110109,-2.000031,-2.000031
1415,-274.357214,-238.101778,111.818112,0.740124,-2.000031,-1.232319
1416,-279.911498,-253.971160,114.991989,1.110002,-0.737072,0.992935
1417,-181.399252,-188.113222,66.529335,0.725109,0.820935,1.999969
1418,-206.851301,-117.738613,67.017624,0.399908,0.976822,1.999969
1419,-267.582208,-126.710918,68.482490,0.638315,0.139895,0.594369
1420,-267.765316,-116.212711,54.688334,0.698863,-0.476448,0.452522
1421,-305.241474,-107.850767,50.415808,0.790906,-0.345098,1.999969
1422,-293.888762,-59.021897,50.659953,0.747936,-0.610239,1.999969
1423,-141.908904,-44.434272,38.879988,0.076051,-0.186282,1.999969
1424,-131.532769,-50.354772,27.893492,0.247440,-0.134401,1.999969
1425,-61.707485,-54.444190,7.263294,0.513436,-0.405402,1.999969
1426,-3.967346,-22.888533,-0.244144,0.270634,0.310796,1.142718
1427,-64.026856,-23.804074,5.798428,-0.093507,-0.003296,0.984512
1428,-69.581140,-31.738766,13.000687,-0.023926,-0.067140,1.240620
1429,-43.884947,-32.654307,2.746624,0.221073,-0.012573,1.398337
1430,-33.508812,-26.184482,0.427253,0.049439,0.036988,1.075578
1431,-32.166018,-27.527276,-1.159686,-0.012940,-0.027466,1.044205
1432,-27.405203,-27.344167,0.000000,0.126711,-0.031861,1.182269
1433,-17.517357,-20.630198,-0.854505,0.082765,0.040650,1.021134
1434,-28.259709,-16.601816,2.075227,0.023560,-0.003174,1.042985
1435,-19.958801,-14.099336,1.892119,-0.041749,0.048096,1.042252
1436,-21.240558,-12.573434,4.577707,0.110719,0.004761,0.990005
1437,-21.301595,-7.080186,2.929732,0.058595,-0.035523,1.044938
1438,-18.066682,-5.920500,3.601129,0.030884,0.005127,1.031144
1439,-18.738079,-4.699779,4.028382,0.042725,0.006470,1.042252
1440,-18.188754,-4.821851,3.662165,-0.009400,-0.006836,1.062150
1441,-13.977264,-6.164645,2.685588,0.036500,0.015259,0.999405
1442,-17.151141,-5.554284,1.342794,-0.003052,0.006226,0.975601
1443,-20.202945,-7.324331,0.488289,0.009400,-0.013184,1.016617
1444,-15.991455,-7.202258,-0.427253,0.044434,-0.031128,1.026139
1445,-15.014878,-5.798428,-0.549325,0.033936,-0.028077,1.021012
1446,-14.343481,-5.188067,0.061036,0.044678,-0.038941,1.032486
1447,-11.108568,-4.333562,0.061036,0.044068,-0.027222,1.029435
1448,-10.254063,-2.807660,0.488289,0.046509,-0.018433,1.016007
1449,-10.620279,-1.831083,0.366217,0.043946,-0.024903,1.013443
1450,-10.070954,-0.915541,0.244144,0.042847,-0.024659,0.998672
1451,-11.169604,0.000000,0.305180,0.038819,-0.012573,0.977920
1452,-14.587625,0.000000,0.305180,0.020386,-0.013306,0.975479
1453,-16.784924,-0.915541,0.244144,0.017456,-0.021241,0.967422
1454,-18.616007,-2.197299,0.122072,0.018189,-0.025757,0.964614
1455,-21.789883,-3.051804,0.061036,0.029053,-0.049683,0.996475
1456,-19.348440,-3.051804,0.366217,0.046265,-0.068116,1.013809
1457,-16.906996,-2.197299,0.915541,0.044556,-0.051759,1.024674
1458,-16.235599,-1.770047,0.915541,0.027588,-0.048463,1.004044
1459,-16.235599,-0.793469,0.000000,0.058106,-0.059205,1.019425
1460,-15.625238,0.366217,-0.427253,0.029541,-0.072999,1.008072
1461,-12.939651,-0.305180,0.427253,0.017578,-0.063478,1.024063
1462,-14.038300,-0.610361,-0.671397,0.025879,-0.058961,0.981704
1463,-14.648661,-0.549325,-0.488289,0.047730,-0.073610,1.008072
1464,-13.061723,0.976577,0.366217,0.057984,-0.083986,1.018692
1465,-12.878614,2.380407,1.342794,0.052491,-0.069703,1.053849
1466,-18.005646,4.699779,2.014191,0.068482,-0.088991,0.951431
1467,-14.160372,7.080186,2.441444,0.070314,-0.100587,0.972305
1468,-15.564202,8.545052,4.028382,0.007324,-0.066896,0.982803
1469,-15.808347,6.775006,3.540093,0.005982,-0.049073,0.995499
1470,-17.029068,4.821851,2.258335,0.028321,-0.081300,1.005020
1471,-15.991455,4.333562,2.136263,0.028687,-0.117433,1.003677
1472,-11.841001,4.028382,2.563516,0.039673,-0.101930,1.007950
1473,-10.803388,3.295949,2.685588,0.049073,-0.082277,1.030411
1474,-12.329290,4.394598,1.892119,0.023072,-0.073610,1.002335
1475,-14.465553,3.967346,2.075227,0.018921,-0.085451,0.957412
1476,-13.488975,3.051804,2.441444,-0.006470,-0.057984,0.959731
1477,-18.799115,1.831083,1.892119,-0.006836,-0.072145,0.967910
1478,-19.409476,1.464866,2.441444,0.073243,-0.079957,0.988296
1479,-26.245518,4.394598,4.882887,0.018189,-0.100710,1.016251
1480,-26.184482,5.432212,7.141222,0.036500,-0.115358,1.010880
1481,-24.841688,7.629511,8.178836,0.027222,-0.082155,0.990005
1482,-30.945296,8.239872,8.728161,0.007446,-0.079103,1.005020
1483,-31.067369,7.995727,7.263294,-0.003662,-0.102174,1.028702
1484,-27.771420,8.239872,4.699779,0.012085,-0.083497,1.004654
1485,-31.433585,8.972305,2.746624,0.026246,-0.102174,1.016007
1486,-31.128405,10.009918,2.685588,-0.042359,-0.100099,0.982559
1487,-29.053178,7.751583,-0.549325,-0.027100,-0.116823,0.938491
1488,-18.127718,14.892805,-4.089418,-0.035157,-0.201053,0.924697
1489,-20.813306,5.737392,-15.503166,-0.069459,-0.242313,1.042496
1490,-20.080873,-0.183108,-22.400244,-0.028687,-0.219242,1.016007
1491,-27.038987,1.159686,-18.371862,0.124392,-0.260014,0.923110
1492,-22.034028,3.479057,-7.324331,0.176516,-0.166629,1.045304
1493,-21.606775,7.202258,-6.103609,0.008911,0.010864,0.951675
1494,-42.725261,6.775006,-15.075914,-0.082155,0.156130,0.914565
1495,-93.873503,5.615320,-26.611734,0.049439,0.206058,0.889906
1496,-120.546273,8.239872,-25.146868,-0.035767,0.144045,0.693980
1497,-162.966354,-1.403830,-31.067369,-0.265263,0.350103,0.974990
1498,-229.617762,-7.812619,-44.556344,0.080323,0.568002,1.150042
1499,-410.772869,-17.456321,-54.200046,0.040650,0.387091,1.081682
1500,-553.658351,-56.031128,2.868696,-0.677012,0.009766,1.737087
1501,-622.018769,-141.298543,14.343481,-0.353643,-0.425666,0.625986
1502,-672.861830,-179.568170,44.373236,-0.007202,-0.461189,0.851331
1503,-706.187533,-208.316167,55.359731,0.151980,-0.700328,0.885267
1504,-858.777752,-231.815061,152.407111,0.030518,-1.867948,1.999969
1505,-483.527886,-167.666133,142.092012,-0.505135,-0.144656,1.999969
1506,30.212863,-138.490883,-8.117800,0.115114,0.294926,1.999969
1507,157.289998,-37.476158,-7.629511,0.202396,1.529808,1.999969
1508,70.191501,8.484016,-8.728161,-0.261601,0.964248,1.999969
1509,53.101396,12.634470,2.502480,-0.328252,0.359869,1.872099
1510,160.341802,43.091478,-1.403830,-0.341314,0.121218,0.989029
1511,203.006027,51.636530,3.906310,-0.261479,0.200931,0.256962
1512,163.210498,44.861524,13.855192,-0.134768,0.128420,0.053956
1513,147.280079,43.274586,19.226368,-0.057740,0.072755,0.205570
1514,164.858473,42.542153,16.784924,0.055665,0.169924,0.317388
1515,172.549020,35.889220,11.169604,0.132204,0.261601,0.430182
1516,170.229648,26.794842,6.164645,0.162234,0.261723,0.656260
1517,183.901732,22.888533,-2.807660,0.243046,0.220340,0.846937
1518,196.475166,24.902724,-19.043259,0.433845,0.131350,1.032609
1519,210.574502,41.016251,-39.490349,0.375128,-0.008057,1.115862
1520,231.692988,49.073014,-56.824598,0.304082,-0.132570,1.099748
1521,240.909438,46.875715,-67.505913,0.268559,-0.267460,1.144549
1522,246.524758,44.495308,-75.318532,0.204105,-0.477546,1.180926
1523,255.558099,43.823911,-78.675517,0.097414,-0.641123,1.158709
1524,262.943465,45.532921,-78.187228,-0.036133,-0.780163,1.141741
1525,262.455177,46.326390,-72.266728,-0.072023,-0.870130,1.107317
1526,254.337377,51.148241,-63.721675,-0.131350,-0.977554,1.087907
1527,247.379263,57.740139,-51.148241,-0.274296,-1.042985,1.000748
1528,239.749752,56.763561,-32.898451,-0.397345,-1.036027,0.925307
1529,225.650416,47.180896,-9.765774,-0.418708,-0.992935,0.925551
1530,209.170672,39.429313,11.963073,-0.286992,-0.958145,1.078386
1531,198.367285,42.236973,27.954528,-0.165164,-0.890761,1.277485
1532,194.766155,49.927520,37.170977,-0.016236,-0.814588,1.328267
1533,187.502861,54.505226,37.659266,-0.026734,-0.821424,1.451194
1534,187.563897,55.970092,38.086519,-0.008179,-0.824720,1.439353
1535,182.864118,59.937438,37.048905,0.123537,-0.808484,1.397116
1536,178.042268,69.275959,33.752956,0.340703,-0.749523,1.224628
1537,170.656901,68.116274,24.231327,0.434943,-0.670542,1.242573
1538,155.214771,59.571221,15.075914,0.491951,-0.654795,1.346334
1539,149.355306,54.383154,5.920500,0.410529,-0.712047,1.538720
1540,150.942245,54.016938,0.671397,0.316411,-0.810315,1.512840
1541,151.430533,52.246891,-1.220722,0.218143,-0.881239,1.454002
1542,145.326925,47.241932,-0.793469,0.141115,-0.968765,1.382712
1543,144.350347,43.213550,-0.732433,0.096437,-1.036393,1.252094
1544,137.148089,41.321431,0.122072,0.117311,-1.071672,1.152605
1545,125.062943,40.894179,0.488289,0.166629,-1.148089,1.112688
1546,115.724422,43.213550,0.000000,0.195071,-1.242939,1.021134
1547,106.691081,47.791257,-1.586938,0.269780,-1.342550,0.895766
1548,90.211337,54.200046,-3.540093,0.347784,-1.462181,0.687144
1549,69.336996,56.031128,-6.713970,0.374395,-1.558740,0.478767
1550,49.744411,51.819638,-8.728161,0.300053,-1.594141,0.382818
1551,27.038987,37.720302,-5.371176,0.103517,-1.633082,0.323857
1552,-64.026856,-55.970092,11.047532,-0.081178,-1.961456,-1.418967
1553,-69.398032,-128.114748,20.325017,0.379278,-0.088380,0.944594
1554,20.447089,-43.701839,-12.146181,-0.289189,0.800305,1.760281
1555,-46.692607,6.408789,7.629511,-0.837903,1.364279,0.329717
1556,-202.639811,-108.400092,28.259709,-0.245975,0.182986,-0.941176
1557,-273.807889,-112.245365,46.875715,0.116457,-0.359014,0.081910
1558,-262.455177,-105.653468,39.246204,0.286625,-0.310185,1.659205
1559,-243.106737,-111.024643,71.473259,-0.475349,-0.016846,1.999969
1560,-233.585107,-143.129625,41.199359,1.437278,-0.485725,1.999969
1561,45.166705,-28.381781,-21.179522,0.788708,-0.602304,1.576928
1562,35.400931,9.155413,-33.020523,0.107668,0.340826,1.482933
1563,-114.442664,-14.831769,19.348440,-0.430304,-0.178470,0.928603
1564,-1.037613,-6.286717,4.272526,0.254887,0.013062,1.563500
1565,6.836042,8.361944,0.915541,0.117067,0.179690,0.769543
1566,-40.833143,8.545052,7.141222,-0.076905,0.052247,1.021988
1567,-19.653620,6.652934,4.028382,-0.105348,0.025147,0.982193
1568,-18.371862,0.610361,2.502480,-0.042237,0.054200,1.021500
1569,-20.386053,-2.258335,1.586938,-0.017212,-0.005615,1.032731
1570,-11.963073,-1.770047,0.427253,-0.056641,0.028687,1.016007
1571,-10.986496,-3.906310,0.305180,-0.007813,0.050660,0.993057
1572,-11.657893,-3.356985,0.061036,-0.014893,0.052247,0.975967
1573,-11.718929,-3.662165,-0.427253,-0.013672,0.071656,0.936660
1574,-19.226368,-4.577707,0.183108,0.009766,0.053834,0.997330
1575,-19.470512,-3.295949,0.549325,0.003052,0.016114,1.037125
1576,-15.503166,-1.586938,0.244144,-0.025513,0.019287,1.025040
1577,-16.235599,-1.342794,0.488289,0.021851,-0.016968,1.119524
1578,-6.347753,2.380407,0.000000,-0.009400,-0.005249,1.055680
1579,-1.892119,3.479057,0.061036,-0.025147,0.058595,0.946792
1580,-10.986496,2.014191,0.671397,-0.017212,0.014771,1.010636
1581,-6.164645,2.929732,0.305180,0.001831,-0.000732,1.031022
1582,-3.234913,4.394598,0.549325,-0.018067,0.020630,1.008560
1583,-4.760815,3.845274,1.098650,-0.014649,0.011963,1.026017
1584,-2.380407,4.211490,1.159686,-0.012451,0.005859,1.023819
1585,-0.366217,4.638743,0.976577,-0.029786,0.027588,0.986587
1586,-1.831083,3.418021,0.854505,-0.028321,0.028199,0.989151
1587,-2.136263,2.807660,0.732433,-0.030396,0.018921,1.000137
1588,-0.671397,2.624552,0.305180,-0.035401,0.028077,0.983902
1589,-2.136263,1.647974,0.549325,-0.033082,0.025513,0.987564
1590,-1.770047,0.427253,0.366217,-0.045167,0.025879,0.963027
1591,-2.746624,-1.220722,0.183108,-0.040528,0.037476,0.955093
1592,-6.225681,-2.929732,0.000000,-0.035035,0.023560,0.996231
1593,-4.882887,-3.967346,-0.244144,-0.024903,0.013916,0.997086
1594,-4.394598,-4.272526,-0.427253,-0.019532,0.029908,0.988785
1595,-5.615320,-4.516670,-0.305180,-0.027832,0.017456,0.986831
1596,-5.432212,-4.638743,-0.183108,-0.013428,0.015625,1.002823
1597,-5.615320,-4.272526,-0.122072,-0.033448,0.013184,0.998062
1598,-4.760815,-4.394598,-0.244144,-0.010376,0.023804,0.997452
1599,-6.103609,-4.211490,-0.366217,-0.018433,0.017823,1.006607
1600,-6.103609,-4.089418,-0.244144,-0.017700,0.013550,1.006973
1601,-4.516670,-4.150454,-0.366217,-0.010742,0.017212,0.998306
1602,-5.493248,-4.455634,-0.549325,-0.008057,0.013062,1.000259
1603,-5.004959,-3.906310,-0.732433,-0.000244,-0.000244,1.023941
1604,-2.441444,-2.685588,-0.610361,-0.002319,0.001709,1.013809
1605,-2.685588,-1.647974,-0.183108,0.000610,0.000366,1.013321
1606,-1.281758,-0.671397,0.061036,-0.005493,0.006104,1.018204
1607,-0.244144,0.244144,0.122072,-0.008057,0.013672,1.002213
1608,-1.403830,0.488289,0.366217,-0.019409,0.009644,1.006851
1609,-0.427253,0.976577,0.183108,-0.021485,0.004761,1.000504
1610,0.061036,0.732433,0.061036,-0.021241,0.023316,0.978286
1611,-1.770047,-0.244144,0.000000,-0.025391,0.024292,0.969741
1612,-3.967346,-1.159686,0.000000,-0.016968,0.002930,1.013443
1613,-2.746624,-0.183108,0.122072,-0.013428,-0.004639,1.039078
1614,-0.122072,0.305180,0.122072,-0.029175,0.010010,1.001968
1615,-0.976577,-0.366217,0.061036,-0.024170,0.011231,0.999405
1616,-0.915541,-1.220722,-0.122072,-0.035889,0.014649,0.987076
1617,-0.427253,-2.990768,-0.671397,-0.032105,0.007080,0.987564
1618,-0.183108,-4.028382,-1.098650,-0.016358,-0.007813,1.024918
1619,2.868696,-4.089418,-1.342794,-0.019043,0.002564,1.016861
1620,3.967346,-4.211490,-1.647974,-0.004639,0.016724,1.005997
1621,3.295949,-3.662165,-1.464866,-0.000366,-0.005982,1.041764
1622,6.286717,-2.014191,-1.281758,0.013794,-0.001709,1.028092
1623,7.141222,0.122072,-0.854505,0.009033,0.005371,1.025650
1624,8.178836,1.709010,-0.671397,0.001709,0.008423,1.010513
1625,8.850233,2.807660,-0.488289,-0.000855,0.016480,1.000992
1626,9.033341,3.906310,-0.122072,-0.003296,0.022827,1.007462
1627,8.850233,4.333562,0.122072,-0.010742,0.025757,0.998672
1628,8.606088,4.699779,0.122072,-0.016236,0.027832,0.972061
1629,7.629511,4.150454,0.183108,-0.029908,0.033326,0.964981
1630,5.371176,3.112840,0.000000,-0.032471,0.036255,0.967178
1631,3.540093,2.380407,0.122072,-0.023316,0.035157,0.987076
1632,2.380407,2.136263,0.183108,-0.026734,0.018189,1.005997
1633,3.906310,2.380407,0.488289,-0.016968,0.014527,1.004654
1634,5.371176,2.502480,0.183108,-0.015747,0.026734,1.012100
1635,5.249104,2.685588,0.183108,-0.011109,0.018921,1.014176
1636,7.568475,3.356985,0.000000,-0.014527,0.023438,0.998184
1637,7.934691,3.540093,0.183108,-0.031128,0.036378,0.994766
1638,7.629511,3.051804,0.244144,-0.034058,0.046021,0.983291
1639,6.897078,1.647974,0.183108,-0.054566,0.058106,0.932143
1640,4.150454,-0.732433,-0.244144,-0.061769,0.088502,0.857801
1641,-5.798428,-4.638743,-0.549325,-0.039429,0.068971,0.942153
1642,-8.300908,-6.103609,-0.915541,-0.030762,0.025635,0.994766
1643,-6.103609,-5.615320,-0.976577,0.018433,0.021363,1.036515
1644,-5.554284,-2.441444,-0.793469,0.010620,-0.001343,1.060929
1645,-0.488289,0.671397,-0.244144,0.019165,-0.008545,1.089250
1646,5.493248,4.577707,0.488289,-0.001343,0.005493,1.044572
1647,7.812619,6.103609,1.098650,-0.028687,0.036866,0.998550
1648,5.798428,5.371176,1.342794,-0.051270,0.023438,0.982803
1649,6.897078,2.685588,1.159686,-0.060060,0.052613,0.942275
1650,3.662165,-1.403830,0.671397,-0.060182,0.062623,0.937636
1651,1.831083,-5.310140,0.000000,-0.065064,0.053834,0.932876
1652,0.671397,-8.911269,-0.854505,-0.041993,0.063722,0.955581
1653,-2.502480,-10.803388,-1.159686,0.000122,0.057008,0.978286
1654,-5.188067,-9.521630,-0.976577,-0.005493,0.022339,1.028458
1655,-2.441444,-7.751583,-0.732433,0.009277,-0.009888,1.082536
1656,5.737392,-3.906310,-0.488289,0.024537,0.013062,1.065324
1657,6.286717,-0.488289,0.305180,-0.000366,0.024048,1.034318
1658,6.897078,1.037613,1.159686,-0.020264,0.044312,1.001724
1659,5.920500,0.976577,1.464866,-0.017945,0.058228,0.999771
1660,4.882887,0.915541,1.159686,-0.034180,0.044556,0.988785
1661,6.164645,0.000000,0.793469,-0.033814,0.060670,0.967056
1662,3.845274,-2.014191,0.305180,-0.039551,0.067628,0.937148
1663,0.976577,-4.699779,-0.305180,-0.051881,0.066285,0.935805
1664,-0.793469,-7.629511,-0.915541,0.003662,0.049561,0.977310
1665,-2.075227,-7.263294,-0.854505,0.010986,0.026123,1.036027
1666,3.173877,-5.493248,-0.976577,-0.001465,0.028199,1.035660
1667,3.662165,-4.028382,-0.488289,0.016968,0.036011,1.035660
1668,5.981537,-1.586938,-0.793469,0.015503,0.001221,0.991348
1669,7.263294,0.732433,-0.122072,0.024781,0.039796,1.043473
1670,9.826810,4.028382,0.122072,-0.000122,0.035035,1.043595
1671,10.925460,5.065995,0.854505,-0.022583,0.052979,0.977554
1672,11.963073,3.784237,0.366217,-0.043214,0.116457,0.862074
1673,3.295949,-0.793469,-0.915541,-0.027222,0.160037,0.796765
1674,-12.878614,-4.150454,-1.220722,-0.017456,0.093263,0.901259
1675,-17.456321,-4.272526,-0.854505,-0.002564,0.032349,1.044083
1676,-10.009918,-0.854505,-0.976577,0.005005,0.072023,0.968887
1677,-18.249790,-0.244144,0.000000,0.007935,0.060060,0.996353
1678,-16.723888,0.915541,0.000000,-0.033326,-0.003296,1.055680
1679,-10.009918,-0.305180,-0.366217,-0.021241,-0.001099,1.076066
1680,-3.234913,0.122072,-0.305180,0.009888,0.024048,1.031144
1681,-1.220722,1.159686,-0.549325,-0.045899,0.064088,0.946670
1682,-6.775006,-2.014191,-0.183108,-0.022461,0.048951,0.968154
1683,-5.004959,-2.502480,-0.976577,-0.028321,0.047242,0.916274
1684,-11.657893,-5.127031,-1.403830,-0.029664,0.050660,0.923232
1685,-16.235599,-6.286717,-1.403830,-0.001221,-0.004273,1.040909
1686,-9.277485,-4.882887,-1.342794,0.008545,0.009888,1.026871
1687,-7.141222,-2.746624,-0.915541,0.018067,0.025025,0.990494
1688,-11.718929,-1.525902,0.000000,-0.007568,0.012451,1.022354
1689,-6.530861,-0.366217,0.244144,-0.000244,0.012207,1.030655
1690,-5.798428,0.854505,0.549325,0.006348,0.016602,1.025772
1691,-4.028382,1.953155,0.854505,-0.007813,0.016724,1.021622
1692,-1.709010,2.014191,0.427253,-0.021729,0.058106,0.947646
1693,-7.568475,-1.098650,-0.366217,-0.040650,0.033448,0.970230
1694,-6.469825,-3.418021,-1.037613,-0.020630,0.015381,0.994644
1695,-4.150454,-4.394598,-1.525902,-0.008179,0.013306,0.999527
1696,-4.821851,-3.845274,-1.037613,0.015625,0.005127,1.048356
1697,0.122072,-1.586938,-0.854505,-0.009766,0.034424,0.978653
1698,-4.089418,-2.258335,-0.549325,-0.018921,0.031495,0.982559
1699,-4.150454,-2.502480,-0.488289,-0.005615,-0.003662,1.039322
1700,0.122072,-1.159686,-0.244144,0.011231,0.004761,1.026383
1701,0.732433,0.000000,0.061036,0.011841,0.017212,1.007462
1702,1.464866,1.159686,0.244144,-0.006348,0.035157,0.981582
1703,-1.098650,0.732433,0.244144,-0.005982,0.018799,1.009415
1704,1.342794,0.671397,0.061036,-0.030518,0.017334,0.987930
1705,2.197299,-1.709010,-0.732433,-0.038453,0.042847,0.932265
1706,-0.976577,-4.394598,-1.159686,-0.009766,0.056641,0.979507
1707,-4.882887,-3.784237,-0.793469,0.012451,0.028443,0.976577
1708,-5.065995,-2.807660,-0.366217,-0.004517,0.035401,1.002335
1709,-7.690547,-2.258335,-0.122072,0.005249,0.005127,1.034440
1710,-3.662165,-0.915541,0.000000,0.015747,0.018433,1.002213
1711,-4.699779,-0.183108,0.305180,-0.000488,0.022827,1.005509
1712,-4.211490,0.061036,0.000000,-0.009522,-0.001587,1.023453
1713,-0.915541,0.061036,0.183108,-0.005493,0.019287,1.003555
1714,-1.342794,0.000000,0.122072,-0.009888,0.031495,0.985000
1715,-2.807660,-1.647974,-0.183108,-0.044312,0.024414,0.972427
1716,-3.295949,-3.906310,-0.488289,-0.001465,0.014649,1.000748
1717,-2.258335,-3.540093,-0.671397,-0.008423,0.010376,1.011246
1718,-0.549325,-2.868696,-0.427253,0.005371,0.020630,0.997452
1719,-2.258335,-2.319371,-0.183108,-0.000488,0.016236,1.005875
1720,-1.892119,-1.770047,0.000000,0.001343,0.019165,1.004044
1721,-2.380407,-1.037613,0.000000,0.006348,0.021363,1.006241
1722,-2.441444,-0.305180,-0.122072,-0.001831,0.015381,1.010147
1723,-2.502480,-0.061036,-0.122072,-0.003418,0.012573,1.015518
1724,-1.098650,0.305180,0.000000,0.001221,0.004028,1.015030
1725,-0.183108,0.488289,0.000000,-0.012818,0.008545,1.012467
1726,0.915541,0.793469,0.061036,0.001343,0.015991,1.003311
1727,0.793469,1.220722,0.061036,-0.007813,0.020630,0.976211
1728,2.014191,1.159686,0.183108,0.004395,0.011353,0.985611
1729,0.061036,0.854505,0.549325,-0.002319,0.017090,1.006973
1730,2.441444,0.915541,0.427253,-0.008057,0.021607,0.993545
1731,0.854505,0.488289,0.488289,-0.010254,0.018433,0.967300
1732,0.793469,0.671397,0.244144,0.001709,0.035889,0.975601
1733,-3.540093,0.610361,0.122072,-0.010742,0.024048,0.993423
1734,-3.356985,0.122072,0.061036,-0.003540,0.012451,1.001358
1735,-1.892119,0.366217,-0.122072,-0.004639,0.015625,0.998428
1736,-2.563516,-0.183108,-0.244144,-0.013428,0.013184,0.999649
1737,-1.647974,-0.427253,-0.183108,-0.002197,0.011719,1.006119
1738,-0.488289,-0.488289,-0.122072,-0.009033,0.022705,0.997940
1739,-1.220722,-0.549325,0.061036,-0.005982,0.016480,1.000381
1740,-1.953155,-0.671397,0.122072,-0.011353,0.019287,0.986343
1741,-2.380407,-0.976577,0.183108,-0.006714,0.013916,1.000381
1742,-1.342794,-1.220722,0.061036,-0.011475,0.015869,1.015518
1743,0.732433,-0.793469,0.000000,-0.006592,0.020630,0.999039
1744,2.258335,-1.037613,-0.183108,0.013672,0.023316,0.968521
1745,1.281758,-0.854505,-0.244144,-0.005859,0.042481,1.001602
1746,-1.770047,-1.647974,-0.305180,-0.004639,0.003174,1.019059
1747,2.319371,-1.220722,-0.488289,-0.002686,0.023804,0.978042
1748,-0.671397,-0.915541,-0.244144,-0.010498,0.013672,1.003189
1749,0.061036,-0.610361,-0.183108,0.009766,0.015381,1.006363
1750,-1.098650,-1.342794,0.244144,0.001343,0.018799,0.995743
1751,-1.342794,-0.854505,-0.244144,0.013306,0.019287,1.011490
1752,-1.953155,-0.427253,-0.244144,-0.009400,0.015137,1.007828
1753,0.000000,-0.366217,-0.427253,-0.002686,0.014038,1.002701
1754,-0.427253,-0.549325,-0.305180,-0.010254,0.010620,1.006241
1755,0.732433,-0.305180,-0.183108,-0.003052,0.011719,1.008072
1756,2.136263,0.061036,-0.122072,-0.007813,0.028565,0.971206
1757,0.610361,-0.305180,0.061036,-0.005859,0.040894,0.975235
1758,-2.502480,-0.671397,0.061036,-0.019532,0.032105,0.976944
1759,-3.540093,-1.342794,0.000000,-0.007080,0.031983,0.982681
1760,-4.943923,-1.342794,0.122072,-0.001343,0.020874,0.985489
1761,-5.065995,-1.403830,0.061036,-0.010376,0.015015,1.000626
1762,-3.601129,-1.464866,0.183108,-0.003662,0.011353,1.015518
1763,-1.953155,-1.342794,0.061036,-0.004761,0.012207,1.012467
1764,-0.915541,-1.098650,0.122072,0.002197,0.019165,0.995254
1765,-1.037613,-1.098650,0.122072,-0.013672,0.011963,0.998672
1766,-0.549325,-1.464866,0.183108,-0.001343,0.012451,1.006973
1767,-0.061036,-1.037613,0.122072,0.001709,0.015747,1.003067
1768,-0.305180,-1.037613,0.183108,-0.008179,0.018921,0.994644
1769,-0.183108,-0.976577,0.183108,-0.007446,0.007935,1.005631
1770,0.732433,-0.854505,0.122072,0.004639,0.014160,0.995132
1771,0.488289,-0.671397,0.122072,-0.011475,0.021729,0.985122
1772,0.000000,-0.915541,0.305180,-0.008911,0.014160,0.986465
1773,1.037613,-1.586938,1.037613,-0.019043,0.010010,0.999405
1774,1.586938,-1.953155,1.770047,0.004761,0.017090,1.000992
1775,1.647974,-1.220722,1.403830,-0.001343,0.010620,0.995865
1776,1.403830,-1.037613,1.342794,0.008423,0.021729,1.003433
1777,0.671397,-0.732433,0.671397,0.008057,0.023560,1.002213
1778,0.610361,-0.427253,-0.122072,0.001465,0.021363,0.992325
1779,-1.037613,-0.427253,-0.366217,0.000244,0.019532,0.992203
1780,-1.403830,-0.610361,-0.305180,-0.017823,0.010864,0.997818
1781,0.183108,-1.159686,0.061036,0.003296,0.011109,1.002335
1782,1.098650,-0.854505,0.244144,-0.008057,0.020142,0.990616
1783,1.281758,-1.220722,0.976577,0.001465,0.019654,0.994156
1784,2.441444,-0.732433,1.342794,0.000000,0.022339,0.995377
1785,1.770047,-0.610361,1.342794,0.006714,0.024170,0.994888
1786,1.586938,-0.122072,0.915541,0.008301,0.027222,0.995132
1787,0.366217,0.000000,0.366217,-0.003418,0.030152,0.988174
1788,0.122072,0.000000,0.122072,0.000366,0.024659,0.993790
1789,-1.037613,-0.305180,0.000000,-0.008545,0.013062,0.990005
1790,-0.854505,-0.915541,0.366217,-0.002075,0.014038,1.003799
1791,-0.122072,-0.793469,0.854505,-0.009888,0.019043,0.992325
1792,0.427253,-1.342794,2.685588,-0.011719,0.000855,0.999283
1793,1.403830,-1.342794,4.577707,0.013184,0.027955,0.992691
1794,1.159686,-1.037613,3.234913,0.004150,0.022705,1.001114
1795,1.403830,-0.854505,2.014191,0.007080,0.027588,0.990494
1796,0.793469,-0.671397,0.915541,0.002197,0.020874,0.999649
1797,1.159686,-0.183108,0.122072,0.009155,0.029664,0.983658
1798,0.305180,0.000000,-0.183108,0.002808,0.043336,0.994522
1799,-1.098650,0.183108,-0.488289,-0.005249,0.018189,1.005631
1800,1.037613,0.244144,-0.488289,-0.003662,0.017945,0.993423
1801,0.915541,-0.244144,0.000000,-0.002930,0.014405,0.998550
1802,1.831083,0.000000,0.000000,0.010132,0.026612,0.997940
1803,1.159686,-0.183108,0.183108,-0.008179,0.023682,0.994766
1804,1.037613,-0.549325,0.122072,0.001831,0.026612,1.002335
1805,1.037613,-0.305180,0.000000,0.001587,0.027710,0.988663
1806,0.671397,-0.366217,0.000000,0.000122,0.025269,0.995987
1807,0.305180,-0.366217,-0.122072,-0.001709,0.025391,1.005997
1808,0.854505,-0.183108,-0.244144,-0.005127,0.020020,0.997452
1809,1.037613,-0.305180,0.122072,-0.007568,0.022827,0.997208
1810,1.647974,-0.549325,0.427253,-0.005249,0.030274,0.995621
1811,1.831083,-0.671397,0.976577,-0.013428,0.015503,0.994400
1812,2.868696,-0.793469,2.685588,0.000000,0.030884,1.000137
1813,2.746624,-0.610361,2.868696,-0.009888,0.027344,0.989395
1814,3.173877,-0.793469,3.418021,0.005249,0.031861,0.991958
1815,2.258335,-0.610361,3.051804,0.006592,0.032593,0.997208
1816,2.319371,-0.305180,2.014191,0.004150,0.028199,0.993912
1817,1.281758,-0.183108,1.342794,0.007935,0.031617,0.993912
1818,1.098650,0.000000,0.366217,0.008667,0.031250,0.998062
1819,0.793469,0.000000,-0.122072,0.001587,0.027955,0.999527
1820,1.770047,0.122072,-0.305180,-0.004883,0.027588,0.993301
1821,1.220722,0.000000,-0.305180,-0.000244,0.034668,0.986099
1822,1.464866,-0.610361,-0.244144,-0.006470,0.035157,0.989761
1823,0.610361,-0.427253,-0.305180,-0.004273,0.041260,0.982315
1824,-0.244144,-0.854505,-0.305180,-0.008911,0.038697,0.986831
1825,-0.549325,-0.549325,-0.549325,0.003662,0.038941,0.991348
1826,-1.220722,-0.244144,-0.915541,0.006714,0.036378,0.998550
1827,-1.892119,0.305180,-1.464866,0.009644,0.030762,1.006607
1828,-1.037613,0.793469,-2.746624,0.013306,0.036866,0.995377
1829,-1.220722,1.159686,-4.455634,0.036011,0.044678,0.991470
1830,-4.211490,1.586938,-5.432212,-0.045899,0.013184,1.005386
1831,4.699779,0.732433,-8.728161,0.031006,0.052491,0.998550
1832,-2.197299,1.281758,-8.300908,-0.022583,0.007691,0.973404
1833,-0.610361,0.305180,-4.516670,-0.006592,0.039063,0.997452
1834,-2.807660,0.183108,-3.479057,0.004395,0.033082,0.981338
1835,-1.525902,0.427253,-4.455634,0.003662,0.039796,0.990860
1836,-3.295949,0.183108,-5.004959,-0.002808,0.045167,0.990127
1837,-4.516670,0.183108,-5.188067,-0.011353,0.033570,0.982315
1838,-4.638743,-0.061036,-4.699779,-0.010010,0.025879,0.979019
1839,-6.225681,-0.488289,-3.234913,-0.015503,0.021729,0.991714
1840,-6.836042,-0.732433,-1.586938,-0.004639,0.019654,1.016373
1841,-6.591897,-0.671397,-1.586938,-0.006714,0.025025,0.994156
1842,-5.004959,-0.488289,-2.136263,-0.001343,0.015503,1.018936
1843,-1.709010,-0.183108,-2.929732,0.001831,0.022827,1.008194
1844,0.488289,0.305180,-3.784237,-0.000855,0.017578,0.997940
1845,3.112840,0.366217,-4.699779,0.000000,0.037354,0.996231
1846,2.441444,0.366217,-4.760815,-0.000610,0.039185,1.004288
1847,1.342794,0.366217,-4.394598,0.003540,0.027344,1.020523
1848,0.244144,0.671397,-3.723201,-0.009888,0.035401,0.986465
1849,-1.831083,0.488289,-4.333562,-0.004028,0.032959,0.980972
