Packet number,Gyroscope X (deg/s),Gyroscope Y (deg/s),Gyroscope Z (deg/s),Accelerometer X (g),Accelerometer Y (g),Accelerometer Z (g)
0,0.000000,0.061036,0.000000,0.006714,-0.012573,1.007706
1,0.366217,0.061036,0.000000,0.000977,-0.012818,0.998672
2,0.122072,0.000000,-0.122072,0.005493,-0.006958,1.000259
3,0.366217,0.000000,-0.122072,-0.002441,-0.013794,1.009903
4,1.037613,0.000000,-0.122072,0.013550,-0.001221,0.999405
5,-0.427253,-0.183108,0.000000,0.003052,-0.012573,1.006363
6,1.220722,0.122072,-0.244144,0.000610,-0.007080,0.995499
7,0.000000,-0.305180,-0.122072,-0.001709,-0.004761,0.982925
8,-0.122072,0.000000,-0.366217,-0.007568,-0.012573,0.997208
9,-0.366217,-0.244144,-0.244144,0.003052,-0.011719,1.002457
10,0.244144,0.122072,-0.183108,0.003174,-0.007202,0.996841
11,-0.305180,0.000000,0.000000,0.007691,-0.010864,1.007584
12,0.183108,0.244144,-0.183108,-0.000732,-0.010620,0.994522
13,-0.305180,0.122072,-0.122072,0.007202,-0.010742,0.999649
14,0.061036,0.305180,0.000000,-0.002441,-0.011231,0.997086
15,0.244144,0.305180,0.061036,0.005249,-0.005127,0.997330
16,-0.305180,0.000000,0.000000,0.002564,-0.003662,1.008194
17,0.366217,0.061036,-0.122072,-0.002441,-0.009766,0.997452
18,0.183108,-0.122072,0.000000,0.009155,-0.008301,1.000748
19,0.183108,0.000000,-0.122072,-0.002686,-0.010864,1.001358
20,0.610361,-0.244144,-0.244144,0.016114,-0.006714,1.008316
21,-0.244144,-0.183108,-0.183108,-0.002808,-0.005859,0.999893
22,0.366217,-0.305180,-0.183108,0.009644,-0.010742,0.997574
23,0.122072,0.000000,-0.305180,0.001587,-0.005737,0.996475
24,-0.183108,-0.183108,-0.183108,0.005127,-0.016480,1.004166
25,0.488289,0.122072,-0.183108,0.005493,-0.007691,1.002823
26,0.000000,0.061036,-0.122072,0.002319,-0.008301,1.004166
27,0.305180,0.122072,-0.183108,0.001953,-0.009400,1.001358
28,0.122072,-0.122072,0.000000,0.010010,-0.007691,1.009537
29,-0.183108,0.000000,-0.122072,-0.007935,-0.014160,1.002457
30,0.854505,-0.244144,-0.122072,0.010742,-0.005982,1.009903
31,-0.244144,-0.183108,-0.122072,-0.002808,-0.016358,0.999527
32,0.671397,0.000000,-0.244144,0.006470,-0.012696,1.005753
33,0.976577,-0.183108,0.000000,0.013428,-0.006470,1.004898
34,0.671397,0.183108,-0.122072,-0.006714,-0.005982,0.990127
35,0.427253,0.000000,-0.244144,0.005127,-0.004395,0.994400
36,-0.915541,-0.305180,-0.183108,0.008911,-0.010498,0.990005
37,-0.061036,0.000000,-0.244144,0.006592,-0.007935,1.004532
38,-0.610361,0.244144,0.000000,0.007202,-0.008057,1.013687
39,0.305180,0.549325,0.000000,-0.000855,-0.005982,1.007584
40,0.122072,0.671397,0.000000,0.003418,-0.007691,0.999039
41,0.183108,0.671397,0.122072,0.001953,-0.009033,0.999893
42,0.549325,0.427253,-0.122072,-0.000610,-0.004150,1.003677
43,-0.305180,0.122072,0.000000,-0.003052,-0.006470,1.002213
44,0.549325,0.122072,-0.122072,0.005371,-0.005982,1.004532
45,0.183108,0.061036,0.000000,0.004273,-0.007080,0.995987
46,0.488289,0.183108,0.000000,0.000488,-0.015015,1.009049
47,0.793469,0.305180,0.000000,0.000610,-0.004273,0.993545
48,0.305180,0.244144,0.000000,0.000977,-0.013550,1.004044
49,0.671397,0.183108,0.000000,0.005249,-0.007080,0.995010
50,-0.122072,0.061036,0.000000,-0.000488,-0.008667,1.006241
51,0.183108,0.000000,0.000000,0.002441,-0.009644,1.001236
52,-0.305180,-0.061036,-0.122072,-0.001953,-0.009522,0.996841
53,0.549325,0.000000,-0.244144,0.006958,-0.004517,0.991226
54,-0.549325,-0.305180,-0.122072,-0.004150,-0.012696,0.998428
55,0.488289,-0.122072,-0.183108,0.006348,-0.002686,0.998672
56,-0.244144,-0.244144,-0.183108,-0.004028,-0.011719,0.997330
57,0.610361,-0.305180,-0.183108,0.010254,-0.001587,0.997818
58,-0.488289,-0.488289,0.000000,0.006348,-0.013428,1.005631
59,0.854505,-0.244144,-0.183108,-0.005371,-0.005127,0.989761
60,0.305180,-0.366217,-0.122072,0.001831,-0.004395,0.986709
61,-0.305180,-0.793469,-0.122072,0.003296,-0.004883,0.999283
62,-0.427253,-0.732433,-0.244144,0.004639,0.002808,0.992325
63,-1.220722,-0.610361,-0.183108,0.002686,-0.005249,1.003799
64,-0.976577,-0.427253,-0.183108,0.008179,-0.013184,1.012589
65,-0.671397,-0.244144,0.061036,0.005249,-0.008789,1.005631
66,-0.061036,0.061036,0.000000,-0.004150,-0.006592,0.997940
67,-0.549325,-0.061036,0.000000,0.003540,-0.009522,1.003677
68,-0.427253,-0.183108,-0.183108,0.003784,-0.012451,1.005875
69,-0.061036,-0.122072,0.000000,-0.005982,-0.004150,0.998795
70,-0.183108,-0.244144,0.000000,0.003784,-0.008423,1.003799
71,0.122072,-0.427253,-0.122072,0.004639,-0.003662,1.002823
72,-0.366217,-0.671397,-0.122072,0.006592,-0.002686,1.007095
73,-0.061036,-0.305180,-0.183108,-0.001709,-0.013428,1.004166
74,0.366217,-0.244144,-0.122072,0.001465,-0.013794,0.998062
75,0.610361,-0.183108,0.000000,-0.000122,-0.006836,0.984756
76,0.366217,-0.244144,-0.122072,-0.002686,-0.005859,0.992081
77,0.488289,-0.122072,-0.122072,0.007324,-0.006714,1.000381
78,0.549325,0.000000,0.061036,0.000855,-0.014771,1.000748
79,0.915541,-0.183108,-0.244144,0.000610,-0.008667,0.996353
80,0.366217,-0.305180,-0.183108,0.012329,-0.006836,1.004532
81,0.793469,0.000000,-0.122072,-0.000732,-0.014282,1.009903
82,2.746624,0.976577,-0.549325,-0.019532,-0.031739,0.935195
83,0.854505,0.000000,-0.122072,0.004639,-0.000732,1.045548
84,1.831083,-0.305180,-0.488289,-0.007813,-0.014160,1.020768
85,2.258335,-0.549325,-0.610361,0.001221,-0.021729,0.989883
86,3.906310,0.061036,-0.366217,0.015259,-0.032593,1.027604
87,7.385367,0.732433,-0.366217,0.006714,-0.001221,1.025406
88,6.469825,0.793469,0.061036,0.002930,-0.008667,1.004410
89,8.361944,1.098650,0.000000,-0.001831,-0.007691,0.994522
90,7.934691,0.854505,0.000000,-0.002564,0.003906,0.994400
91,7.141222,0.366217,-0.183108,-0.003540,0.005982,0.998550
92,6.713970,0.244144,-0.305180,0.003052,0.006470,0.992691
93,6.836042,0.244144,-0.671397,-0.003540,0.003418,0.985367
94,6.042573,-0.366217,-0.671397,0.002808,0.011719,0.997696
95,5.188067,-0.366217,-0.610361,0.008301,0.004883,1.001846
96,5.920500,0.000000,-0.610361,0.002197,0.010254,0.983169
97,4.272526,-0.427253,-0.488289,0.000244,0.028931,0.989273
98,3.295949,-0.549325,-0.610361,-0.003784,0.001221,1.018692
99,4.333562,-0.610361,-0.671397,0.004028,0.016724,0.972915
100,2.136263,-0.793469,-0.366217,0.024048,0.000732,1.011368
101,4.577707,0.671397,-0.671397,0.020630,0.041505,1.013077
102,5.371176,1.647974,-0.915541,-0.026123,-0.001099,1.005386
103,5.065995,0.000000,-0.732433,0.015869,-0.016602,0.985245
104,5.798428,0.549325,-0.793469,0.003662,0.014160,0.998184
105,5.371176,0.366217,-0.976577,-0.005982,-0.001465,0.985489
106,4.272526,-0.122072,-0.549325,-0.001343,0.016358,0.982925
107,4.028382,-0.183108,-0.305180,-0.000855,0.020874,0.988296
108,3.173877,-0.610361,-0.183108,0.006836,-0.004395,0.964736
109,2.441444,-0.488289,0.000000,-0.001831,0.010986,0.985367
110,2.502480,-0.366217,0.244144,0.003296,0.023926,0.995377
111,1.037613,-0.549325,0.244144,0.001587,0.013550,1.000137
112,1.525902,-0.122072,0.427253,0.004761,0.013550,1.008438
113,2.014191,0.305180,0.427253,0.002564,0.019165,1.000259
114,1.403830,0.244144,0.549325,0.001465,0.014893,1.005142
115,2.258335,-0.244144,0.671397,-0.003784,0.014282,0.988785
116,2.929732,-0.488289,0.793469,-0.007080,0.034424,1.004898
117,2.197299,-1.403830,1.159686,-0.003052,0.018189,0.996231
118,3.295949,-1.709010,0.976577,0.003296,0.019654,1.000137
119,2.380407,-2.075227,1.037613,0.002808,0.010498,0.990127
120,3.540093,-1.525902,0.915541,0.011231,0.006592,0.991470
121,3.356985,-1.098650,0.732433,0.008301,0.017090,0.978897
122,2.746624,-0.671397,0.915541,0.020996,-0.010986,0.958022
123,2.929732,-0.793469,1.342794,-0.006592,0.020020,1.024674
124,5.981537,-0.610361,1.098650,-0.001221,0.047486,0.929946
125,0.610361,-1.342794,1.342794,0.013428,0.053101,0.967178
126,-1.709010,-1.342794,0.793469,-0.024414,0.028687,0.945083
127,-2.075227,-2.014191,0.671397,0.017334,0.015625,0.970596
128,-5.737392,-1.709010,1.403830,0.026978,0.010620,1.061906
129,1.525902,-0.671397,1.037613,-0.010986,-0.017945,1.051408
130,3.845274,-0.549325,1.159686,0.018799,0.033814,1.022599
131,4.821851,-0.122072,0.976577,0.017212,0.021607,1.029313
132,6.469825,0.854505,0.488289,0.019409,0.036378,0.987320
133,3.662165,1.525902,0.427253,0.009644,0.058839,0.974136
134,0.671397,1.831083,0.427253,0.001465,0.060304,0.965957
135,-3.051804,1.647974,0.549325,-0.002441,0.050416,0.965713
136,-5.371176,1.586938,0.000000,-0.019287,0.035401,0.979019
137,-7.995727,0.244144,0.671397,-0.002319,0.010742,1.002945
138,-4.638743,0.671397,0.000000,-0.002075,0.021241,1.015274
139,-5.371176,0.305180,0.000000,0.005249,0.023804,1.002090
140,-5.432212,0.244144,-0.488289,0.009400,0.024903,0.997696
141,-5.554284,0.732433,-0.427253,0.015015,0.014282,1.018936
142,-4.333562,1.709010,-0.183108,0.009888,0.009644,1.002701
143,-3.295949,2.197299,0.000000,-0.004883,0.038209,0.970230
144,-7.202258,1.647974,0.183108,0.005859,0.037964,0.974868
145,-9.033341,1.709010,0.305180,-0.002319,0.009277,0.998428
146,-7.873655,1.770047,0.366217,0.006470,0.006592,1.014908
147,-7.507439,1.953155,0.488289,-0.002686,0.000855,1.003067
148,-5.737392,1.525902,0.244144,-0.012085,0.005493,1.004898
149,-5.310140,0.122072,0.000000,-0.009400,0.000244,1.008560
150,-2.807660,-0.183108,-0.305180,-0.002930,0.005982,1.004898
151,-2.502480,-0.854505,-0.366217,-0.003540,0.003418,1.000137
152,-1.586938,-1.159686,-0.488289,0.000488,0.011719,1.000015
153,-1.831083,-1.525902,-0.183108,-0.004150,0.001831,0.985000
154,-0.732433,-1.831083,-0.183108,-0.004028,0.028321,0.977066
155,-4.943923,-2.929732,0.122072,-0.004761,0.011719,0.973892
156,-5.004959,-3.601129,0.183108,0.005859,0.023804,0.977432
157,-7.934691,-4.577707,0.122072,-0.001343,0.014527,0.983047
158,-7.995727,-5.188067,0.000000,0.004395,-0.002075,1.004288
159,-6.408789,-5.554284,-0.244144,-0.008179,0.005737,0.988663
160,-7.507439,-6.652934,-0.549325,-0.005127,-0.006958,1.012467
161,-5.127031,-6.775006,-0.610361,0.008667,-0.010986,1.022354
162,-3.906310,-6.530861,-0.610361,0.004639,-0.003784,1.009293
163,-3.906310,-7.202258,0.061036,0.002319,-0.017578,0.973770
164,-1.892119,-8.117800,0.366217,-0.014527,0.026001,0.935683
165,-9.216449,-11.352712,0.000000,-0.031739,0.006714,0.921523
166,-14.099336,-14.526589,0.976577,0.018677,-0.002319,1.001968
167,-11.963073,-13.855192,0.976577,0.035279,-0.008667,1.031022
168,-11.169604,-12.085145,1.342794,0.039796,-0.015503,1.032120
169,-10.009918,-9.887846,1.220722,0.027222,-0.021485,1.029313
170,-7.812619,-7.934691,1.220722,0.047608,-0.015503,1.002823
171,-7.812619,-6.530861,1.159686,0.023804,-0.000366,0.986831
172,-12.573434,-6.652934,2.014191,0.032593,-0.019532,1.011124
173,-10.437171,-5.737392,2.014191,0.016114,-0.004028,0.985489
174,-11.779965,-6.347753,2.075227,-0.003906,0.022095,1.028336
175,-14.465553,-8.361944,2.136263,-0.000977,0.003296,0.940932
176,-17.944610,-9.582666,1.770047,0.029053,0.022217,0.931411
177,-25.818265,-10.376135,1.403830,0.014527,-0.021241,0.958145
178,-22.949569,-11.352712,1.342794,0.024903,-0.011109,0.957534
179,-27.405203,-10.193027,1.342794,0.041260,-0.030640,1.003311
180,-26.428626,-9.216449,1.647974,0.053956,-0.050904,1.037125
181,-22.827497,-7.873655,2.563516,0.060304,-0.059693,1.030655
182,-21.362631,-7.141222,3.540093,0.048585,-0.084108,0.955215
183,-19.531548,-6.286717,4.028382,0.056275,-0.054444,1.008682
184,-23.987182,-6.897078,4.699779,0.030030,-0.050538,1.006485
185,-24.841688,-4.882887,4.577707,0.059571,-0.066163,1.006851
186,-20.752270,-4.516670,4.394598,0.047974,-0.066896,1.013931
187,-21.240558,-4.333562,5.127031,0.033204,-0.049439,1.073503
188,-24.780652,-2.502480,4.943923,0.072511,-0.071534,0.921035
189,-19.409476,-1.220722,4.211490,0.053834,-0.029419,0.958755
190,-22.705425,0.854505,2.929732,0.097047,0.024414,0.992935
191,-39.063096,1.709010,2.990768,0.033448,-0.033448,1.009171
192,-37.476158,3.662165,1.831083,0.046632,-0.076295,0.976944
193,-35.706111,4.516670,0.671397,0.040162,-0.035645,0.985367
194,-42.236973,5.615320,-0.854505,0.034180,-0.049195,0.970962
195,-48.584726,4.760815,-1.403830,0.020752,-0.069581,0.956802
196,-45.410849,3.356985,-2.990768,0.008423,-0.112551,1.073503
197,-41.016251,2.319371,-4.211490,-0.062867,-0.174685,1.127825
198,-45.471885,9.338521,-9.460594,-0.027344,-0.003418,1.049210
199,-72.755016,13.794156,-31.860838,0.002564,-0.060914,1.089494
200,-65.918975,13.794156,-34.485389,0.087282,-0.320073,1.003922
201,-40.039673,10.681315,-18.799115,0.141238,-0.196292,1.045182
202,-33.325704,14.343481,-12.878614,0.117311,-0.134524,1.050797
203,-48.401617,14.892805,-2.685588,0.070069,-0.019287,1.017594
204,-74.891279,20.874342,1.647974,0.077516,-0.063600,0.989639
205,-97.596704,26.672770,3.540093,0.038209,-0.067384,0.875502
206,-86.488136,18.616007,11.841001,-0.017945,-0.252934,0.977554
207,-101.014725,12.207218,15.991455,-0.110597,-0.172854,1.069352
208,-93.202106,10.681315,6.713970,0.069215,0.468025,0.936049
209,-166.872663,3.967346,-14.770733,-0.021363,-0.006714,1.022232
210,-285.831998,18.005646,15.869383,0.055543,-0.003174,1.345357
211,-342.290379,23.559930,25.207904,-0.020508,-0.069459,1.560571
212,-362.371252,36.316472,-7.324331,-0.042115,0.015259,1.295674
213,-444.464790,44.251164,-2.075227,0.111818,-0.021607,1.536400
214,-501.289387,62.623026,20.752270,0.210208,-0.118532,1.158587
215,-526.497292,92.774853,18.799115,0.456062,-0.787610,1.328756
216,-553.353170,104.005493,65.186542,-1.139055,-0.731090,1.999969
217,-315.556573,68.116274,-52.429999,-0.677012,-1.057023,1.999969
218,83.009079,71.656367,-54.261082,-0.693248,0.261845,1.999969
219,43.152514,46.753643,-66.590372,-0.588632,0.454841,1.572656
220,-67.689021,-0.854505,23.254749,-0.556405,0.471321,1.272236
221,-30.273899,-23.376822,42.053864,-0.134401,0.208988,1.158099
222,52.124819,-26.184482,22.400244,-0.020020,0.411872,0.849012
223,19.043259,-31.982910,24.231327,0.174929,0.428840,0.796643
224,21.118486,-23.315785,15.197986,0.307744,0.363043,0.957900
225,52.979324,-10.009918,-6.103609,0.330449,0.439094,0.901015
226,53.284504,-6.775006,-20.935378,0.256962,0.422736,0.873915
227,65.857939,-9.582666,-32.837415,0.151980,0.362554,0.964248
228,86.121920,-16.418708,-40.650034,0.043580,0.374762,1.027481
229,99.794003,-24.963760,-43.823911,-0.031128,0.350103,1.213886
230,121.278706,-26.001373,-45.593957,-0.094362,0.305547,1.411154
231,147.219043,-19.775692,-44.922560,-0.157351,0.254154,1.511986
232,173.464561,-12.878614,-41.870756,-0.222904,0.155764,1.441184
233,196.231022,-7.934691,-35.706111,-0.250126,0.073487,1.258930
234,207.827878,-6.958114,-27.588312,-0.243534,-0.002075,1.129168
235,214.785992,-8.667124,-19.165332,-0.202884,-0.036133,1.027115
236,217.471580,-12.268254,-12.939651,-0.128542,-0.037598,1.045304
237,217.471580,-11.718929,-9.887846,-0.046387,-0.019287,1.173968
238,220.340276,-5.615320,-11.047532,0.016480,-0.007446,1.321553
239,225.772488,3.601129,-15.442130,0.056886,-0.022950,1.378927
240,230.594339,13.061723,-20.935378,0.087037,-0.063355,1.326436
241,229.556725,21.057450,-27.954528,0.124880,-0.163577,1.210224
242,222.659648,30.029755,-34.363317,0.172854,-0.163699,1.203388
243,210.452430,35.095750,-42.236973,0.218021,-0.234867,1.277729
244,203.982605,33.325704,-49.500267,0.238529,-0.264897,1.492332
245,208.316167,31.982910,-56.275273,0.247929,-0.262821,1.592065
246,210.757610,31.677729,-62.561990,0.194217,-0.282475,1.636988
247,209.658961,31.982910,-65.247578,0.110109,-0.344488,1.624903
248,210.391394,31.860838,-66.224155,0.042725,-0.416754,1.606348
249,207.644770,34.912642,-65.125505,-0.020264,-0.460090,1.678370
250,203.616388,38.696880,-61.951629,-0.062623,-0.534554,1.699855
251,205.142290,41.748684,-57.557031,-0.111940,-0.566659,1.760525
252,205.752651,42.603189,-51.026169,-0.118410,-0.633799,1.640406
253,204.592966,47.669184,-46.204318,-0.022705,-0.671031,1.460349
254,190.249485,52.918288,-42.481117,0.008057,-0.664927,1.600244
255,181.826505,52.063783,-37.109941,0.048707,-0.707530,1.841337
256,195.437552,47.425040,-33.325704,0.077516,-0.739635,1.841825
257,208.255131,41.687648,-30.518044,0.138186,-0.771008,1.542260
258,205.264363,37.170977,-27.954528,0.164920,-0.810681,1.262226
259,195.742733,34.180209,-25.818265,0.153201,-0.839246,1.058244
260,183.962768,31.006332,-24.292363,0.144778,-0.839979,1.010147
261,168.947890,27.222095,-22.827497,0.108766,-0.862928,1.004044
262,157.656214,24.292363,-22.278172,0.068238,-0.908827,1.018692
263,146.486610,23.743038,-21.850919,0.020386,-1.000504,0.957656
264,133.852140,25.452049,-20.141909,-0.054200,-1.133562,0.797742
265,116.639963,27.893492,-16.296635,-0.063600,-1.251606,0.616953
266,92.347601,31.006332,-9.704738,-0.064698,-1.353170,0.453254
267,65.064469,30.334936,-1.281758,-0.030152,-1.399435,0.429694
268,40.039673,25.574121,8.850233,-0.011841,-1.400534,0.424445
269,21.545739,14.343481,19.897765,-0.014282,-1.328389,0.392340
270,-0.183108,-0.366217,32.410163,-0.049195,-1.186908,0.417487
271,-30.029755,-9.460594,39.490349,-0.107790,-1.793362,-1.831449
272,-159.548333,-21.118486,69.520104,-0.296147,-0.890394,-0.411017
273,-231.204700,-72.022583,72.083619,0.047242,-1.809842,-0.194339
274,-142.275120,-59.510185,53.162432,0.247807,-0.079713,1.455344
275,-142.519265,-60.242618,40.039673,0.281498,0.784192,1.999969
276,-192.935073,-65.980011,47.791257,0.421515,0.615610,1.260883
277,-232.791638,-73.121233,42.053864,0.406867,-0.098512,0.724010
278,-232.425422,-55.786984,36.987869,0.335698,-0.240360,1.581811
279,-225.528344,-39.246204,33.691920,0.438483,-0.101198,1.999969
280,-168.337530,-29.663539,19.714656,0.354864,-0.187625,1.999969
281,-85.694667,-12.207218,5.554284,0.004639,-0.161746,1.781765
282,-68.970779,-7.202258,9.277485,-0.453010,-0.036011,1.041642
283,-92.469673,-24.719615,32.715343,-0.667857,0.067750,1.075334
284,-107.118334,-66.895552,45.716030,-0.194339,-0.104860,1.038834
285,-79.407950,-81.300069,31.067369,0.837659,0.343633,1.999969
286,-70.984970,-40.161746,6.958114,0.917006,-0.079225,1.429099
287,-46.448463,-5.737392,-1.220722,-0.333013,0.227543,1.132830
288,-91.248951,-34.241245,14.282444,-0.329839,-0.026978,0.919081
289,-73.975738,-45.838102,9.521630,0.367437,0.124392,1.795315
290,-42.053864,-22.339208,1.342794,0.095338,-0.079591,1.080095
291,-31.006332,-19.531548,-0.244144,-0.116335,0.026856,1.090837
292,-31.616693,-21.911955,0.549325,0.133181,0.048585,1.029068
293,-39.795529,-15.808347,-0.366217,0.034913,-0.023560,1.113664
294,-30.457008,-13.061723,-0.183108,-0.010010,-0.023804,1.061662
295,-22.278172,-13.305867,0.061036,0.031983,-0.009522,1.066423
296,-25.574121,-11.169604,0.000000,0.046143,-0.031739,1.075090
297,-15.503166,-9.704738,0.000000,0.018921,0.000122,1.019913
298,-16.296635,-9.521630,0.671397,0.066896,0.023926,1.049088
299,-20.019837,-6.713970,0.000000,0.036378,-0.011231,1.070451
300,-13.305867,-6.775006,0.183108,0.033936,0.027710,1.011368
301,-13.977264,-6.897078,-0.122072,0.033570,-0.021851,1.034318
302,-11.047532,-5.615320,-0.549325,0.043824,-0.034668,1.043229
303,-8.300908,-4.455634,-1.831083,0.062745,-0.109010,0.949722
304,-8.728161,-2.563516,0.244144,0.050172,0.027222,1.068498
305,-6.591897,-2.075227,1.586938,0.044800,0.018067,1.013199
306,-7.629511,-1.220722,2.075227,0.038209,0.032959,0.995132
307,-11.718929,-0.793469,2.136263,0.027832,-0.012696,1.016617
308,-9.155413,-0.366217,1.525902,0.020020,-0.016480,0.981582
309,-9.521630,-0.854505,0.976577,0.024537,-0.016358,0.973526
310,-11.657893,-1.831083,0.366217,0.023926,-0.052979,0.972305
311,-9.460594,-2.990768,0.183108,0.020020,-0.036378,0.988540
312,-10.131991,-3.784237,-0.183108,0.026612,-0.037110,1.001846
313,-8.850233,-3.845274,0.183108,0.026612,-0.012573,1.037980
314,-6.347753,-3.662165,0.061036,0.036378,-0.043824,1.007218
315,-5.798428,-3.112840,-0.183108,0.051759,-0.055543,1.013565
316,-4.211490,-2.502480,0.183108,0.029786,-0.034180,0.997452
317,-5.065995,-2.563516,1.037613,0.031739,-0.016236,0.989029
318,-5.676356,-2.502480,1.098650,0.033448,-0.022339,0.993423
319,-6.347753,-3.051804,1.586938,0.033204,-0.011597,0.990249
320,-7.568475,-2.746624,1.220722,0.034424,-0.030640,1.000748
321,-6.775006,-2.441444,1.342794,0.043824,-0.049439,1.004166
322,-4.699779,-1.892119,1.525902,0.039429,-0.040162,1.007706
323,-4.638743,-1.831083,1.770047,0.035645,-0.032959,0.985611
324,-4.760815,-3.173877,1.647974,0.008179,-0.020630,1.001480
325,-8.117800,-3.662165,2.014191,0.031373,-0.028321,0.976577
326,-10.254063,-4.150454,1.831083,0.040162,-0.040650,1.004166
327,-9.155413,-4.150454,2.014191,0.039307,-0.043580,0.990860
328,-11.474784,-3.662165,1.647974,0.057130,-0.023194,1.016373
329,-12.146181,-2.685588,1.159686,0.027100,-0.039673,0.959487
330,-13.061723,-3.845274,0.854505,0.022461,-0.036255,1.020523
331,-23.743038,-4.516670,0.671397,0.029786,-0.073854,0.925917
332,-15.259022,-4.638743,0.671397,0.058106,-0.052003,0.988785
333,-19.043259,-3.845274,0.244144,0.044190,-0.026246,1.026505
334,-21.789883,-3.112840,0.305180,0.053468,-0.082765,1.010513
335,-14.709697,-1.342794,0.671397,0.043214,-0.067750,1.013077
336,-17.090105,-0.854505,1.403830,0.041138,-0.057862,0.992325
337,-20.813306,-0.183108,3.051804,0.056519,-0.065187,1.001724
338,-21.179522,1.098650,5.004959,0.057008,-0.084840,0.998062
339,-19.104295,2.624552,7.507439,0.112551,0.019776,1.003189
340,-28.809033,6.408789,8.606088,-0.024659,0.002319,0.957412
341,-41.504540,2.685588,7.019150,0.057618,-0.035157,1.003677
342,-36.804761,2.807660,3.601129,-0.006226,-0.025391,0.983047
343,-40.283818,0.732433,0.061036,0.053223,-0.038819,1.015885
344,-45.044633,1.464866,-2.868696,0.018677,-0.098878,1.040421
345,-35.034714,0.671397,-5.310140,-0.003906,-0.116701,1.011734
346,-27.283131,-0.427253,-8.484016,-0.038209,-0.098268,1.050431
347,-31.799802,-1.525902,-12.268254,-0.025391,-0.078737,1.088640
348,-47.241932,3.601129,-20.935378,-0.020508,-0.051881,1.073381
349,-53.040360,6.164645,-29.663539,0.056275,-0.082887,0.999771
350,-45.777066,12.146181,-31.250477,0.176394,-0.270512,0.965713
351,-28.015564,10.986496,-12.207218,0.172000,-0.279789,1.090349
352,-19.653620,13.366903,5.432212,0.115969,-0.081178,1.107073
353,-34.546426,16.968032,4.699779,0.125124,0.165652,0.914687
354,-69.214923,23.682002,3.784237,0.099855,0.198367,0.936782
355,-119.081407,33.875029,-5.859464,0.048585,0.202396,0.932876
356,-169.863432,36.377508,-7.934691,-0.072389,0.296513,0.730358
357,-163.027390,-12.146181,20.569162,-0.291020,0.273564,1.206073
358,-238.406958,-17.761501,19.348440,-0.179568,0.591196,1.076677
359,-414.862287,-8.117800,-10.986496,0.020752,0.047974,1.225605
360,-528.389410,-53.223468,40.344854,-0.443366,0.083253,1.573388
361,-607.736324,-115.541314,39.673457,-0.142580,-0.197513,1.125505
362,-666.330968,-120.180056,61.219196,0.149416,-0.206424,0.949477
363,-733.592737,-92.652781,75.684749,0.531991,-0.782361,1.164569
364,-876.478218,-54.688334,145.510033,-0.608896,-2.000031,1.999969
365,-468.451972,39.002060,38.391699,-1.039811,-0.703014,1.999969
366,122.987716,75.562676,-48.950942,-0.388922,0.427619,1.999969
367,137.697414,79.407950,-69.581140,-0.600473,0.912123,1.962066
368,-1.586938,41.138323,-3.112840,-0.792493,0.529061,1.738064
369,-49.195087,-39.368276,60.364691,-0.448371,0.260258,1.415915
370,68.726635,-37.842374,58.777752,-0.209110,0.224979,1.138689
371,136.476692,-39.002060,49.256123,-0.059449,0.455085,0.700450
372,89.906157,-39.673457,49.561303,0.109865,0.416754,0.838270
373,102.601663,-23.010605,36.072328,0.239017,0.329961,1.129290
374,143.434806,-1.403830,12.756542,0.319707,0.392218,1.110491
375,152.590219,8.850233,-6.408789,0.300908,0.363653,0.997574
376,165.407797,8.361944,-21.728847,0.215213,0.271733,0.914565
377,185.854887,1.647974,-34.607462,0.130373,0.234257,0.829603
378,190.432593,-6.897078,-41.260395,0.055421,0.186526,0.895766
379,197.268635,-9.033341,-45.777066,-0.017212,0.116701,1.106462
380,212.649729,-3.295949,-48.523690,-0.086671,0.064088,1.280293
381,228.885328,6.897078,-47.852293,-0.152224,-0.014038,1.333883
382,244.937819,13.733120,-43.701839,-0.196170,-0.076905,1.389181
383,260.685130,15.991455,-37.109941,-0.206546,-0.131716,1.432517
384,273.807889,15.686275,-29.419394,-0.187259,-0.201053,1.543969
385,289.494163,14.648661,-21.423667,-0.126589,-0.213870,1.609644
386,305.363546,15.564202,-18.066682,-0.008057,-0.250858,1.603540
387,313.725490,20.386053,-20.325017,0.134157,-0.296025,1.505638
388,315.617609,30.029755,-28.381781,0.260624,-0.436652,1.113298
389,301.152056,49.500267,-42.603189,0.358282,-0.553841,0.720592
390,264.347295,71.717403,-54.566262,0.328862,-0.582895,0.618784
391,222.537575,78.553445,-58.899825,0.227176,-0.538949,0.900649
392,196.414130,68.665599,-58.472572,0.155276,-0.454231,1.489158
393,188.784619,53.528649,-54.566262,0.073121,-0.407355,1.999969
394,204.409857,48.340581,-49.683375,0.010010,-0.503914,1.999969
395,234.317540,55.542840,-43.823911,-0.058106,-0.630869,1.999969
396,246.158541,63.233387,-37.598230,-0.067506,-0.791394,1.771511
397,230.533303,67.078660,-29.541466,-0.093019,-0.831922,1.706081
398,211.429007,59.449149,-20.508125,-0.064820,-0.861952,1.999969
399,222.659648,52.124819,-15.564202,0.004273,-0.870741,1.999969
400,252.201114,52.857252,-16.784924,0.132082,-0.859388,1.999969
401,258.121614,56.092164,-21.606775,0.260136,-0.840467,1.582300
402,242.862593,57.007706,-27.893492,0.335698,-0.859998,1.299458
403,228.336004,60.120546,-35.767147,0.328862,-0.864881,1.222919
404,212.893874,59.449149,-41.016251,0.290654,-0.873426,1.234516
405,199.710079,56.153201,-43.274586,0.218143,-0.939467,1.213519
406,190.005341,51.941711,-43.884947,0.146731,-1.067399,1.112322
407,174.929427,49.561303,-42.786297,0.110842,-1.252461,0.946670
408,156.984817,49.195087,-39.917601,0.173709,-1.462913,0.689586
409,132.265202,46.448463,-39.185168,0.269657,-1.703151,0.458381
410,101.441978,45.471885,-37.109941,0.336797,-1.897612,0.201907
411,68.848707,43.579767,-32.776379,0.282231,-1.931792,0.001343
412,32.593271,26.977951,-16.906996,0.126345,-1.765286,-0.083497
413,-5.432212,-8.422980,6.469825,-0.026246,-1.495872,0.194705
414,-27.771420,-40.650034,30.090791,-0.105592,-1.216205,0.648692
415,-37.476158,-54.688334,48.096437,-0.185183,-0.988663,0.990372
416,-48.462654,-53.894865,50.843061,0.070680,-1.577295,-2.000031
417,-198.977646,-48.645762,75.745785,-0.248051,-0.094850,-0.289799
418,-157.045853,-79.896239,53.711757,0.029541,-0.406867,0.610971
419,-122.621500,-56.458381,43.152514,0.069337,1.106706,1.753079
420,-206.485084,-66.773480,51.697566,0.174319,0.791394,1.013321
421,-275.577935,-80.689708,56.885634,0.468513,-0.120119,0.688731
422,-253.482872,-57.434958,43.823911,0.698497,-0.340215,1.416159
423,-222.476539,-25.757229,29.053178,0.788220,-0.025391,1.999969
424,-191.409171,4.333562,12.268254,0.753674,-0.051881,1.999969
425,-125.856413,27.588312,-8.422980,0.106691,-0.215946,1.933867
426,-109.620813,38.635843,-6.652934,-0.542977,-0.070558,1.630152
427,-127.138170,16.357671,24.170291,-1.125994,-0.010986,1.999969
428,-91.309987,-33.752956,37.659266,-0.333135,-0.462043,1.486473
429,-30.090791,-53.467613,24.231327,0.317754,0.149538,1.594995
430,-53.772793,-40.405890,19.958801,0.698497,0.188235,1.724392
431,-34.363317,-13.977264,8.239872,-0.070314,-0.062379,1.256733
432,-25.818265,-20.019837,10.864424,-0.332525,0.131472,1.101091
433,-35.217823,-27.832456,9.033341,0.363287,0.118532,1.308858
434,-29.175250,-1.586938,-0.244144,0.241459,0.077028,1.394919
435,-23.620966,10.681315,0.000000,-0.178836,0.003540,0.936172
436,-25.146868,8.300908,2.807660,-0.025879,0.027466,1.166888
437,-19.897765,14.038300,2.197299,0.084718,0.025757,1.145892
438,-14.160372,21.789883,2.685588,-0.107179,0.061524,1.013809
439,-19.104295,17.944610,6.103609,-0.072877,0.041627,1.001724
440,-15.686275,18.738079,5.004959,0.007568,0.079347,1.052140
441,-17.212177,20.874342,4.760815,-0.124392,0.039673,1.001480
442,-15.381094,16.845960,4.455634,-0.100099,0.026490,1.018204
443,-10.803388,14.770733,3.234913,-0.069947,0.054566,1.011856
444,-10.376135,14.160372,2.258335,-0.104738,0.061891,0.930678
445,-12.939651,10.681315,2.563516,-0.159915,0.050172,0.934218
446,-14.160372,5.737392,3.051804,-0.113283,0.035401,0.951797
447,-13.000687,3.967346,2.990768,-0.118044,0.050050,0.957656
448,-14.953841,0.244144,4.089418,-0.153445,0.021241,0.930312
449,-12.817578,-4.760815,4.394598,-0.118288,0.038209,0.959731
450,-14.831769,-7.446403,4.028382,-0.073243,0.026001,1.025406
451,-12.268254,-7.934691,3.112840,-0.096437,0.003418,1.010758
452,-9.704738,-9.521630,2.746624,-0.109865,0.012329,0.992447
453,-7.629511,-12.085145,2.380407,-0.121462,0.020508,0.983047
454,-7.812619,-14.770733,2.136263,-0.086915,0.005859,1.019425
455,-5.554284,-14.770733,1.892119,-0.066651,0.016968,0.999649
456,-5.065995,-14.587625,1.770047,-0.079347,0.032837,0.972305
457,-8.972305,-15.014878,2.563516,-0.060304,0.027832,0.988540
458,-10.376135,-14.709697,2.685588,-0.074220,0.029664,0.937636
459,-12.817578,-16.174563,3.051804,-0.100832,0.026490,0.948013
460,-15.442130,-18.921187,3.662165,-0.078981,0.013794,0.984146
461,-11.535821,-19.104295,1.342794,-0.053468,-0.024292,0.974746
462,-8.850233,-20.752270,1.892119,-0.100221,0.033204,1.018448
463,-12.634470,-22.888533,2.136263,-0.072511,0.012451,0.957900
464,-10.315099,-22.766461,0.488289,-0.056641,0.099855,1.139910
465,-10.009918,-22.461280,0.915541,-0.020386,0.047974,0.956191
466,-21.423667,-22.095064,1.892119,0.016114,-0.016846,0.980728
467,-13.733120,-18.005646,0.427253,-0.029297,-0.006226,1.052506
468,-13.366903,-15.320058,-1.647974,-0.038697,-0.118898,0.929946
469,-13.488975,-15.075914,0.366217,-0.024170,-0.006958,1.066056
470,-14.892805,-13.733120,1.647974,-0.009644,0.006348,1.035538
471,-11.230640,-13.733120,0.122072,-0.036988,-0.004395,0.975845
472,-12.085145,-14.465553,-0.244144,-0.048463,-0.029419,1.013443
473,-11.230640,-13.000687,-2.868696,-0.029297,-0.212406,0.891127
474,-11.169604,-13.916228,-1.464866,-0.006226,0.004517,1.001480
475,-18.493935,-14.465553,0.183108,-0.010376,-0.000488,1.021134
476,-19.043259,-13.366903,0.244144,0.003052,-0.021851,0.979019
477,-18.921187,-12.634470,0.000000,-0.020142,0.004761,0.992935
478,-22.522316,-13.183795,0.122072,-0.006836,-0.011719,0.974136
479,-26.428626,-12.146181,0.122072,-0.010132,-0.025147,0.996475
480,-28.320745,-12.878614,1.220722,-0.017334,-0.036866,0.998428
481,-26.062409,-12.695506,0.854505,-0.028199,-0.039918,0.997086
482,-28.686961,-13.244831,1.159686,0.005737,-0.048219,0.993545
483,-30.151827,-12.024109,2.075227,-0.006714,-0.031861,1.121477
484,-28.870069,-10.193027,2.441444,-0.003662,-0.042481,0.990249
485,-32.776379,-10.620279,2.197299,-0.004761,-0.042969,0.978286
486,-30.029755,-10.254063,2.014191,0.032227,-0.028077,0.959976
487,-32.471199,-8.972305,2.990768,-0.002075,0.002075,0.971450
488,-41.687648,-11.230640,2.441444,-0.007935,-0.046754,0.968887
489,-42.847333,-11.169604,2.563516,0.023682,-0.062135,1.113664
490,-45.166705,-5.188067,1.159686,0.015991,-0.099855,0.971817
491,-41.504540,-3.418021,1.525902,-0.002441,-0.057618,1.040299
492,-41.687648,-2.563516,1.220722,0.000244,-0.015381,1.020279
493,-45.838102,-2.258335,-2.319371,-0.042481,-0.058106,0.953017
494,-55.603876,-3.967346,-8.300908,-0.047486,-0.057008,0.981460
495,-64.942397,-4.272526,-15.991455,-0.020142,0.031128,0.921279
496,-86.793317,2.746624,-30.762188,0.061524,0.017456,0.876967
497,-90.028229,13.366903,-33.813993,0.114748,-0.415167,1.044572
498,-47.180896,1.281758,-11.963073,0.143801,-0.340703,1.009415
499,-23.620966,-3.723201,-10.925460,0.024903,0.048707,0.937636
500,-57.068742,-0.183108,-18.799115,0.004028,0.215579,0.946670
501,-127.565423,10.437171,-27.038987,0.057252,0.128542,1.049088
502,-155.275807,8.789197,-15.014878,0.016846,-0.227909,0.882704
503,-129.884794,-7.324331,0.732433,-0.196902,0.613046,1.099260
504,-211.795224,-28.381781,-40.894179,-0.225223,0.339971,1.086076
505,-442.389563,-14.770733,-33.447776,0.157595,0.288457,1.480003
506,-590.524147,-67.689021,36.194400,-0.545296,0.171756,1.808988
507,-661.142901,-110.231174,57.312886,0.092897,-0.111940,0.976699
508,-712.352178,-118.532082,47.241932,-0.002075,-0.243900,0.934829
509,-748.363470,-130.067903,31.555657,0.162234,-0.373663,0.958511
510,-909.254597,-137.636378,122.926680,-0.570809,-1.544335,1.999969
511,-475.104906,-83.253223,60.425727,-1.212055,-0.432624,1.999969
512,143.373770,-54.200046,-37.109941,-0.330327,0.719860,1.999969
513,249.515526,-15.869383,-33.691920,-0.415167,1.169329,1.999969
514,103.822385,-12.085145,-29.236286,-0.491707,0.694835,1.999969
515,47.302968,-33.203632,33.142596,-0.483406,0.429938,1.124041
516,111.207752,-17.273213,24.536507,-0.280400,0.167239,0.804211
517,177.553979,3.051804,18.554971,-0.289311,0.303716,0.341436
518,137.514305,0.183108,26.001373,-0.278569,0.264042,0.354009
519,125.429160,-2.807660,30.151827,-0.286381,0.095827,0.579355
520,157.412070,2.990768,28.931106,-0.158328,0.160281,0.631479
521,159.609369,6.591897,27.161059,-0.101808,0.207767,0.794690
522,162.355993,8.606088,25.268940,-0.082155,0.141115,1.015885
523,189.822232,13.733120,19.958801,-0.041260,0.143923,1.115984
524,205.996796,18.432898,15.991455,0.010254,0.162722,1.223041
525,219.546807,23.010605,12.268254,0.066163,0.099001,1.318013
526,242.679484,29.175250,7.141222,0.082399,0.008667,1.377340
527,260.685130,33.081559,2.502480,0.112306,-0.118288,1.378073
528,273.563745,37.109941,-3.295949,0.205203,-0.275395,1.385641
529,290.531777,46.265354,-13.488975,0.181888,-0.392340,1.315938
530,297.672999,52.735180,-20.630198,0.154788,-0.476814,1.190082
531,292.912184,52.857252,-23.376822,0.143069,-0.539315,1.162615
532,286.564431,47.241932,-25.024796,0.089479,-0.607187,1.221576
533,281.742580,36.438544,-25.391012,0.032593,-0.663706,1.254536
534,279.789426,31.250477,-26.489662,-0.029419,-0.690562,1.222919
535,266.971847,32.166018,-25.574121,-0.057252,-0.718273,1.134295
536,250.003815,36.194400,-24.902724,-0.079469,-0.704479,1.125261
537,229.007401,42.664225,-23.620966,-0.085328,-0.639658,1.303853
538,213.443198,49.683375,-22.888533,-0.077638,-0.602060,1.483665
539,208.926528,58.289464,-21.972992,-0.064454,-0.496834,1.764187
540,203.921569,62.256809,-18.982223,-0.043091,-0.444465,1.999969
541,214.908064,59.082933,-15.869383,-0.007935,-0.462165,1.999969
542,239.688716,54.383154,-15.808347,0.070069,-0.491951,1.999969
543,259.708553,52.063783,-19.287404,0.171633,-0.527840,1.999969
544,265.262837,53.650721,-26.306554,0.241337,-0.560067,1.741726
545,258.487831,57.190814,-35.461967,0.251102,-0.587167,1.538231
546,246.646830,58.594644,-44.861524,0.233036,-0.607431,1.460227
547,233.524071,58.777752,-53.589685,0.254643,-0.627695,1.486717
548,221.866178,62.989242,-63.416495,0.294682,-0.682506,1.502464
549,212.405585,70.069429,-73.853666,0.304692,-0.770275,1.469139
550,201.113909,76.112001,-83.131151,0.280522,-0.933486,1.345480
551,185.671778,79.041733,-87.953002,0.249271,-1.173724,1.305928
552,166.262303,82.032502,-86.976425,0.238651,-1.594873,1.272969
553,143.373770,93.141070,-80.994888,0.220829,-2.000031,1.187518
554,131.532769,110.170138,-64.698253,0.092897,-2.000031,0.550912
555,134.462501,108.278019,-41.809720,-0.078004,-2.000031,-0.534676
556,83.619440,55.603876,1.342794,-0.224491,-2.000031,-1.438499
557,-10.559243,-41.260395,54.627298,-0.200687,-1.704005,-0.954482
558,-77.027543,-105.287251,94.056611,-0.095216,-1.276509,0.277470
559,-84.351873,-117.006180,109.620813,-0.025147,-0.873060,1.214496
560,-111.268788,-124.513619,83.009079,0.588144,-0.933974,-0.172976
561,-206.912337,-84.779126,72.449836,0.400275,0.074220,0.964858
562,-151.674678,-68.421454,39.612421,-0.153445,-0.136355,0.478889
563,-108.033875,-98.146029,24.658579,-0.182010,0.883192,1.443015
564,-189.456016,-99.549859,49.805447,-0.063233,0.727794,0.972061
565,-288.029297,-103.089952,65.857939,0.221195,-0.129519,0.740002
566,-270.267796,-101.441978,61.524376,0.593759,-0.423957,1.902739
567,-210.757610,-70.496681,44.739452,0.885512,-0.152468,1.999969
568,-145.204852,-54.566262,19.958801,0.920790,-0.055177,1.999969
569,-83.924620,-22.888533,0.183108,0.120729,-0.201663,1.999969
570,-55.054551,-11.718929,6.347753,-0.541756,-0.004028,1.343893
571,-80.506600,-10.131991,30.029755,-0.655528,0.050538,0.781018
572,-95.887694,-33.264668,50.598917,-0.304448,0.197024,0.691295
573,-113.221942,-60.303655,53.162432,0.373053,0.277104,1.175433
574,-115.480278,-60.303655,29.541466,1.019059,0.178103,1.999969
575,-74.219883,-20.691234,13.977264,0.170169,-0.212039,1.236957
576,-37.232013,-21.484703,0.000000,-0.345342,0.180301,1.162371
577,-81.055924,-43.030442,12.268254,0.096071,0.110964,1.036515
578,-69.092851,-34.912642,3.234913,0.107790,0.090700,1.495995
579,-51.880674,-24.353399,-2.624552,0.115724,-0.119020,1.189837
580,-29.114214,-15.747311,-4.516670,0.016602,-0.024659,1.232441
581,-19.104295,-12.817578,-1.647974,0.065187,0.076661,1.001480
582,-31.738766,-8.667124,-0.732433,0.017578,-0.021607,1.074235
583,-19.714656,-6.469825,-0.793469,0.070436,-0.025635,1.111101
584,-12.939651,-2.441444,0.427253,0.062867,0.017578,1.025895
585,-17.395285,-1.770047,2.258335,-0.009277,-0.009766,1.028092
586,-12.146181,-2.441444,2.807660,0.026368,0.008667,1.033585
587,-15.381094,-3.418021,2.685588,-0.005615,-0.002319,0.995987
588,-12.512398,-5.859464,1.647974,-0.004150,0.005371,0.992569
589,-9.155413,-7.873655,-0.427253,-0.012696,0.011231,1.115007
590,-9.399557,-7.873655,0.061036,0.010132,0.018921,1.029801
591,-6.347753,-7.690547,-0.183108,0.020020,-0.000488,1.047501
592,-4.516670,-6.469825,0.549325,0.046509,-0.047608,1.066056
593,-2.685588,-4.577707,1.342794,0.024659,0.000610,1.037858
594,-2.563516,-3.418021,2.685588,0.032349,0.033570,1.070207
595,1.281758,-1.525902,2.563516,0.037354,-0.024048,0.976455
596,1.403830,-1.342794,2.807660,0.029908,-0.039307,0.996719
597,2.319371,-0.915541,2.868696,0.044312,-0.032471,1.029801
598,5.615320,0.549325,2.685588,0.017700,0.010376,0.993057
599,5.981537,-0.122072,2.258335,-0.014160,0.028931,0.932021
600,0.244144,-2.807660,1.892119,-0.010864,0.054688,0.949722
601,-2.563516,-4.638743,1.342794,-0.006348,0.042725,0.983780
602,-3.723201,-5.981537,0.915541,0.007202,0.035767,0.986099
603,-4.028382,-6.286717,1.037613,0.029175,-0.004395,1.008682
604,-3.540093,-5.920500,1.037613,0.019776,-0.013062,1.001724
605,-1.464866,-6.225681,0.976577,0.023194,0.020996,0.980972
606,-3.723201,-6.836042,1.098650,0.039063,0.013550,0.993057
607,-4.821851,-6.713970,0.915541,0.028809,0.005615,1.001602
608,-3.723201,-6.836042,0.732433,0.037110,0.008179,0.998062
609,-4.455634,-6.897078,0.305180,0.025757,0.004150,0.980606
610,-4.394598,-7.934691,0.000000,0.008789,0.013550,0.942153
611,-7.873655,-9.460594,-0.305180,0.025757,0.022950,0.957046
612,-11.596857,-10.009918,-0.244144,0.035279,0.019532,0.968032
613,-12.024109,-9.765774,0.000000,0.053956,-0.001587,0.950454
614,-16.052491,-9.704738,-0.305180,0.039551,0.019654,0.974624
615,-19.958801,-10.131991,0.000000,0.034668,-0.011719,0.995865
616,-19.043259,-9.887846,0.000000,0.046876,-0.009155,0.995865
617,-18.066682,-9.643702,0.000000,0.035645,-0.012573,0.989761
618,-18.188754,-10.193027,0.244144,0.036378,-0.014160,0.977554
619,-19.226368,-10.620279,0.793469,0.039673,-0.010010,0.960708
620,-22.034028,-12.329290,1.464866,0.020630,-0.040772,0.985245
621,-24.902724,-12.939651,2.258335,0.057740,-0.020020,0.961318
622,-23.071641,-13.244831,2.807660,0.036378,0.015991,0.984634
623,-33.142596,-8.117800,1.159686,0.112184,-0.028687,1.009781
624,-33.081559,-4.150454,1.525902,0.044434,-0.082887,1.141131
625,-33.508812,-0.183108,2.563516,0.094240,-0.066285,0.924331
626,-31.616693,1.342794,4.699779,0.090944,-0.035279,1.012711
627,-37.109941,3.845274,6.042573,0.017700,-0.098634,1.025162
628,-38.391699,3.845274,8.850233,0.073732,-0.070680,1.037369
629,-27.893492,5.432212,8.606088,0.145876,0.055055,0.995254
630,-52.185855,8.422980,4.455634,-0.070314,0.039429,0.935805
631,-65.186542,3.418021,2.868696,0.059327,-0.035035,0.988418
632,-57.007706,2.990768,-1.342794,-0.041138,-0.035889,1.005142
633,-62.073701,1.770047,-8.239872,0.059937,-0.048219,1.034195
634,-68.421454,10.864424,-23.498894,0.003906,-0.184451,0.883680
635,-61.707485,8.789197,-30.579080,-0.051270,-0.128054,1.183001
636,-59.815366,7.446403,-41.565576,0.113405,-0.323857,0.962051
637,-35.400931,3.295949,-26.001373,0.222049,-0.325200,1.054582
638,-16.845960,6.775006,3.234913,0.197391,-0.076051,1.050919
639,-41.443503,15.503166,9.033341,0.164797,0.234501,0.979873
640,-99.794003,26.428626,-2.075227,0.004273,0.356939,0.971939
641,-157.595178,37.354086,-10.131991,0.088991,0.150759,0.801282
642,-200.930800,27.649348,9.033341,-0.181643,0.490852,0.217166
643,-190.920882,-26.306554,41.565576,-0.267460,0.746593,1.142962
644,-331.853208,-44.434272,-16.906996,-0.084962,0.346929,1.264302
645,-508.491646,-107.728695,-13.611048,-0.584970,-0.244022,1.579004
646,-630.746929,-191.470207,39.063096,-0.008545,0.202884,1.076555
647,-745.983063,-243.839170,34.851606,-0.202884,-0.248051,1.331197
648,-832.776379,-189.944305,88.685435,0.728649,-0.749645,1.713893
649,-1018.020905,-143.923095,210.391394,-0.736461,-1.251728,1.999969
650,-354.436561,7.324331,28.503853,-0.768078,-1.286030,1.999969
651,257.755398,64.393072,-65.674830,-0.289067,0.843519,1.999969
652,248.783093,63.660639,-69.275959,-0.459602,1.371969,1.754055
653,61.890593,22.583352,-34.485389,-0.638804,0.427741,1.312520
654,-36.804761,-40.772107,43.640803,-0.409430,0.262333,0.846937
655,46.570535,-16.906996,36.987869,-0.057984,0.103151,0.726818
656,146.425574,13.305867,11.841001,-0.068360,0.361700,0.421637
657,94.911116,19.531548,15.564202,0.056764,0.428351,0.496223
658,72.022583,23.010605,12.756542,0.064698,0.269291,0.823987
659,119.447623,28.259709,1.403830,0.102052,0.326543,0.924575
660,139.589532,24.475471,-6.164645,0.121950,0.422614,0.963149
661,143.862058,19.470512,-12.390326,0.134401,0.370855,1.097185
662,170.901045,24.841688,-21.057450,0.100954,0.334966,1.224262
663,193.972686,33.997101,-27.283131,0.084474,0.302129,1.283345
664,209.658961,41.504540,-30.823224,0.061402,0.208377,1.334981
665,232.791638,47.974365,-32.776379,0.061402,0.107668,1.306538
666,253.421836,50.843061,-32.166018,0.074464,0.046021,1.308736
667,265.506981,47.364004,-29.663539,0.115846,-0.032471,1.408713
668,282.108797,43.518730,-27.954528,0.172732,-0.095949,1.441428
669,299.259937,42.175937,-29.907683,0.238285,-0.119142,1.459983
670,307.438773,44.007019,-34.424353,0.288457,-0.178714,1.366476
671,309.819181,51.636530,-41.626612,0.299565,-0.348272,1.007950
672,294.499123,66.346227,-50.171664,0.340459,-0.582162,0.405646
673,258.854047,82.948043,-57.495995,0.361822,-0.598032,0.204715
674,206.607156,81.177996,-60.303655,0.282109,-0.497078,0.428351
675,171.694514,65.796902,-64.332036,0.205936,-0.316655,1.321065
676,156.374456,58.533608,-65.735866,0.084840,-0.264530,1.999969
677,167.238880,70.374609,-65.064469,-0.009522,-0.441657,1.999969
678,229.739834,87.037461,-60.181582,-0.079835,-0.658701,1.999969
679,281.681544,98.512245,-58.533608,-0.055787,-0.864027,1.818387
680,258.548867,102.723735,-49.988556,0.013794,-0.842420,1.474022
681,214.419776,88.136110,-38.879988,0.105226,-0.922499,1.797879
682,230.533303,83.009079,-37.476158,0.282597,-0.872694,1.999969
683,250.553140,82.581827,-40.527962,0.434699,-0.798108,1.999969
684,259.586481,80.323491,-46.143282,0.558358,-0.799451,1.865507
685,265.384909,75.501640,-53.650721,0.589853,-0.806653,1.454734
686,255.008774,63.782712,-61.219196,0.530770,-0.811658,1.261738
687,235.843442,54.139010,-66.468299,0.368048,-0.868788,1.253681
688,224.368658,50.659953,-68.909743,0.181277,-0.936049,1.262104
689,212.832837,52.552071,-67.505913,0.013916,-1.026993,1.181048
690,196.108949,58.350500,-62.561990,-0.119387,-1.171160,1.014786
691,173.952850,63.538567,-52.796216,-0.225101,-1.375021,0.772473
692,147.219043,64.454108,-38.269627,-0.280522,-1.655177,0.642954
693,116.090639,65.918975,-16.296635,-0.269047,-1.970977,0.458747
694,84.657053,65.674830,10.254063,-0.166140,-2.000031,0.245487
695,52.979324,54.627298,39.429313,-0.006958,-2.000031,0.071901
696,19.226368,25.085832,69.581140,0.118776,-1.968536,0.045167
697,-9.643702,-16.418708,95.887694,0.240482,-1.639307,0.313970
698,-56.031128,-61.219196,104.615854,0.493660,-2.000031,-1.985504
699,-193.667506,-143.984131,120.057984,1.071183,-1.223774,-0.495491
700,-205.081254,-109.803922,80.994888,1.024186,-0.632944,0.544808
701,-114.686809,-59.937438,29.846647,0.406500,0.923476,1.999969
702,-165.102617,-70.618753,47.730220,0.372320,0.964858,1.493187
703,-252.750439,-95.765621,48.218509,0.399664,0.142336,0.557382
704,-271.427482,-72.388800,47.669184,0.196414,-0.378424,1.093889
705,-267.277028,-48.645762,49.134051,0.360357,-0.308965,1.999969
706,-200.442512,-17.883574,39.185168,0.612192,-0.222416,1.999969
707,-130.373083,10.803388,17.212177,0.409308,-0.016724,1.894194
708,-134.279393,12.939651,17.090105,0.015503,0.014771,1.693874
709,-132.814527,-18.799115,26.611734,-0.295293,-0.372564,1.999969
710,-59.205005,-35.461967,24.841688,-0.357916,-0.198123,1.409812
711,-46.265354,-53.711757,27.344167,0.278447,0.251469,1.700710
712,-47.547112,-43.091478,20.080873,0.488655,0.045289,1.471214
713,-24.475471,-23.498894,10.864424,-0.147097,0.122194,1.309224
714,-35.400931,-30.762188,13.733120,-0.071534,0.042603,1.136980
715,-20.996414,-27.954528,7.385367,0.202274,0.117311,1.211688
716,-24.597543,-16.723888,5.493248,0.071534,0.077760,1.155901
717,-19.165332,-12.329290,5.004959,-0.057008,0.041260,1.090105
718,-13.977264,-12.024109,4.028382,0.037110,0.061402,1.106706
719,-10.742351,-7.934691,3.356985,0.019287,0.055909,1.067643
720,-8.972305,-5.493248,3.723201,-0.003784,0.062135,1.063249
721,-7.080186,-3.845274,4.089418,0.034791,0.063722,1.067643
722,-4.150454,-0.976577,3.906310,-0.001831,0.068849,1.019181
723,-4.455634,-1.037613,4.089418,-0.019165,0.063600,0.991226
724,-3.601129,-1.953155,3.723201,0.008911,0.083131,0.993912
725,-5.554284,-2.319371,3.540093,0.019287,0.088502,0.978164
726,-7.202258,-3.112840,3.356985,-0.024903,0.089601,0.942397
727,-11.779965,-5.127031,2.990768,-0.039429,0.107179,0.894423
728,-18.554971,-7.873655,2.990768,-0.052125,0.097047,0.905776
729,-23.865110,-11.230640,3.234913,-0.054688,0.062989,0.944472
730,-24.231327,-14.221408,3.906310,-0.024170,0.075685,0.987930
731,-24.048219,-14.892805,2.563516,-0.030762,0.015137,0.986099
732,-23.926146,-16.723888,2.319371,-0.038819,0.065187,1.066300
733,-19.775692,-17.090105,2.807660,0.010498,0.064698,0.918837
734,-22.705425,-16.906996,3.356985,-0.005615,0.059937,1.028702
735,-26.794842,-18.188754,4.211490,-0.031617,0.012329,0.995377
736,-21.972992,-19.348440,3.784237,-0.026612,0.031128,0.977798
737,-22.705425,-19.348440,2.807660,0.002441,0.040528,1.006973
738,-25.940337,-19.287404,2.075227,-0.093874,0.098268,1.171527
739,-21.606775,-19.592584,3.356985,0.051148,0.091798,0.976455
740,-26.672770,-17.639429,1.770047,0.026368,0.022095,0.997940
741,-23.743038,-16.601816,1.220722,0.014649,0.001465,1.038346
742,-21.545739,-16.052491,0.671397,0.012696,0.007568,1.021012
743,-20.630198,-14.953841,0.427253,0.031983,-0.002075,1.082780
744,-13.672084,-12.634470,0.061036,0.022461,-0.028077,0.984390
745,-13.244831,-12.878614,-0.122072,0.019776,0.002808,0.949477
746,-17.212177,-13.427939,-0.610361,0.017212,0.005249,0.928725
747,-20.874342,-14.526589,-0.915541,0.032105,-0.002808,0.997452
748,-22.705425,-13.672084,-0.610361,0.069581,-0.034058,1.039078
749,-18.493935,-11.108568,-0.427253,0.054810,-0.006836,1.061540
750,-16.601816,-8.728161,0.305180,0.060548,-0.022339,1.025895
751,-14.709697,-6.469825,0.427253,0.053712,-0.011841,1.011978
752,-15.564202,-4.821851,1.342794,0.062989,-0.028199,1.013443
753,-14.221408,-3.845274,1.464866,0.037476,-0.010376,0.975357
754,-16.540780,-4.211490,1.342794,0.021241,0.001831,0.932753
755,-22.156100,-5.798428,1.098650,0.029908,-0.007324,0.939345
756,-25.818265,-8.667124,0.000000,0.040284,-0.026246,0.964248
757,-25.452049,-7.934691,0.549325,0.028565,-0.020752,1.003433
758,-29.419394,-9.216449,1.403830,0.052613,-0.025635,1.002090
759,-30.334936,-6.225681,0.671397,0.089723,-0.023926,1.033219
760,-37.903410,-0.915541,0.671397,0.004639,-0.112062,0.964004
761,-42.053864,-1.403830,-0.305180,0.097780,-0.078981,1.056413
762,-38.025483,-1.647974,2.807660,0.053834,-0.067750,1.048234
763,-35.889220,1.281758,4.150454,0.068482,-0.105104,1.019913
764,-36.133364,3.051804,6.897078,0.071412,-0.085328,1.022843
765,-25.879301,7.324331,10.864424,0.082887,-0.008545,1.012589
766,-48.950942,6.836042,9.826810,0.038697,-0.057008,0.964248
767,-44.678416,7.751583,8.056764,0.013916,-0.061036,0.964492
768,-44.556344,5.432212,4.699779,0.010254,-0.037476,0.971328
769,-49.744411,4.516670,0.671397,0.011719,-0.027955,1.006729
770,-55.909056,4.211490,-3.723201,-0.029664,-0.109987,1.086198
771,-46.936751,6.775006,-15.564202,-0.057252,-0.135866,0.950210
772,-43.030442,2.197299,-26.245518,-0.083131,-0.019043,1.232074
773,-59.937438,8.545052,-45.532921,0.056764,-0.098024,1.037980
774,-61.524376,4.943923,-43.457694,0.183108,-0.313481,0.979263
775,-43.640803,5.737392,-14.892805,0.242313,-0.245365,1.119158
776,-35.584039,10.131991,-0.671397,0.154177,0.068727,0.988785
777,-75.196460,26.550698,-13.061723,0.046876,0.192752,0.984024
778,-125.673304,29.541466,-23.559930,-0.006226,0.167849,0.997208
779,-171.755550,29.297322,-10.803388,-0.080690,0.177127,0.527230
780,-145.510033,-22.644388,22.217136,-0.480232,0.476081,0.945205
781,-249.637598,-27.832456,-6.836042,0.214847,1.029068,0.795544
782,-449.042496,-49.073014,-34.424353,-0.317510,0.219486,0.836927
783,-549.874113,-146.913863,24.109255,-0.361334,0.132082,1.750881
784,-679.697871,-247.379263,30.457008,-0.268559,0.018799,1.150896
785,-769.481956,-217.288472,80.567636,0.470466,0.112795,0.721935
786,-891.737240,-182.009613,114.076448,0.979385,-2.000031,1.999969
787,-787.365530,-30.090791,186.770428,-1.040665,0.315679,1.999969
788,-15.747311,0.000000,-47.119860,-0.410040,-0.562753,1.999969
789,219.790951,34.912642,-49.988556,-0.810559,0.809827,1.999969
790,61.402304,32.654307,-33.447776,-0.516121,0.763684,1.960723
791,-49.683375,-49.073014,62.867170,-0.726329,0.536141,1.665919
792,-2.075227,-72.266728,81.788357,-0.122560,0.096315,1.518700
793,153.505760,-50.232700,50.598917,-0.052735,0.333867,1.120378
794,148.012512,-45.899138,41.992828,0.161257,0.554818,0.792859
795,111.085679,-32.288090,33.936065,0.249271,0.407721,0.846693
796,148.867018,-6.103609,9.033341,0.268925,0.341314,0.731945
797,163.576715,10.498207,-12.451362,0.244755,0.389044,0.552987
798,146.913863,15.503166,-23.559930,0.129152,0.286015,0.623423
799,159.121080,18.249790,-32.593271,0.025025,0.221073,0.837903
800,173.830777,22.095064,-36.316472,-0.086549,0.210208,1.075456
801,185.183490,23.376822,-33.203632,-0.173342,0.135500,1.319844
802,212.039368,24.170291,-27.649348,-0.219974,0.064332,1.483665
803,240.970474,22.583352,-19.897765,-0.227176,0.008179,1.539086
804,265.751125,24.414435,-12.939651,-0.189212,-0.070558,1.498680
805,285.160601,32.959487,-8.239872,-0.105592,-0.110231,1.526146
806,298.039216,44.434272,-5.676356,-0.001099,-0.178103,1.523339
807,312.260624,51.270314,-5.615320,0.133547,-0.215335,1.499657
808,323.918517,50.110628,-9.765774,0.291020,-0.271611,1.315450
809,326.970321,43.518730,-19.836728,0.422248,-0.390997,0.938491
810,310.185397,42.359045,-34.607462,0.497932,-0.543099,0.448737
811,272.098878,56.702525,-53.345541,0.541634,-0.549691,0.429450
812,224.368658,76.356146,-66.163119,0.432624,-0.417487,0.997208
813,195.681697,82.887007,-74.952316,0.364263,-0.389410,1.573510
814,202.029450,86.366064,-80.994888,0.208865,-0.379767,1.999969
815,213.138018,90.028229,-77.393759,0.096925,-0.464851,1.999969
816,228.641184,83.741512,-68.360418,0.031373,-0.591073,1.999969
817,240.177005,74.036774,-59.327077,0.086793,-0.608042,1.999969
818,238.345922,67.383841,-50.537881,0.140261,-0.646494,1.999969
819,255.497063,64.698253,-45.654994,0.276616,-0.765881,1.999969
820,283.085374,68.848707,-50.110628,0.341802,-0.813611,1.999969
821,285.954070,68.726635,-53.467613,0.367559,-0.839124,1.829740
822,277.225910,66.285191,-56.336309,0.327764,-0.876112,1.624170
823,268.925002,62.623026,-59.510185,0.328374,-0.867811,1.552636
824,254.398413,65.308614,-62.317845,0.275639,-0.907118,1.484886
825,240.787366,72.388800,-62.073701,0.184695,-0.996963,1.386984
826,223.514153,77.088579,-57.740139,0.107424,-1.147601,1.250629
827,201.907378,80.994888,-50.904097,0.078737,-1.415427,1.080461
828,176.150149,90.394446,-42.969406,0.129641,-1.780056,0.821180
829,140.932326,105.348287,-38.330663,0.246342,-2.000031,0.623301
830,101.503014,124.879835,-33.875029,0.239261,-2.000031,0.491463
831,73.182269,138.673991,-17.578393,0.101808,-2.000031,0.136843
832,50.049592,118.715190,13.855192,-0.063722,-2.000031,-0.276005
833,0.854505,50.354772,57.312886,-0.110353,-1.963897,-0.230716
834,-39.246204,-29.907683,97.596704,-0.000977,-1.569970,0.278325
835,-48.157473,-74.464027,119.874876,0.059815,-1.131975,0.297002
836,-158.388647,-122.072175,90.333410,1.062882,-1.379782,-0.399176
837,-211.123827,-99.366751,67.383841,0.457038,-0.724865,0.660044
838,-119.142443,-61.402304,48.096437,-0.146487,0.536995,1.146746
839,-125.612268,-89.967193,45.288777,-0.336553,0.965225,1.295186
840,-238.895247,-100.709545,79.346914,0.005249,0.349493,0.293706
841,-318.181125,-98.878462,91.432059,0.371588,-0.344244,1.044327
842,-286.198215,-77.210651,86.732280,1.039078,-0.298100,1.999969
843,-203.555352,-50.659953,54.016938,1.690578,-0.031739,1.999969
844,-126.161593,-18.921187,8.484016,1.326314,-0.002441,1.999969
845,-89.845121,1.525902,-19.531548,0.016724,-0.013794,1.567651
846,-103.456168,5.859464,-6.164645,-0.999649,-0.127687,1.188861
847,-105.592432,-4.272526,28.809033,-1.316426,-0.121462,0.852430
848,-122.926680,-67.322805,57.373922,-0.347539,-0.186648,1.002090
849,-96.131838,-96.925307,49.134051,0.860853,0.227054,1.999969
850,-90.577554,-64.393072,22.400244,1.136248,0.017700,1.999969
851,-49.317159,-18.005646,8.056764,-0.230350,0.074098,1.165057
852,-64.393072,-40.527962,5.371176,-0.319951,-0.087404,1.277363
853,-59.082933,-51.880674,7.934691,0.391852,-0.025391,1.242206
854,-38.879988,-23.071641,-0.915541,0.323613,0.047120,1.408469
855,-39.368276,-14.038300,1.342794,-0.142824,-0.048951,1.086564
856,-15.930419,-20.874342,-0.915541,-0.012085,0.042603,0.953994
857,-32.532235,-17.273213,1.342794,0.141970,0.046509,1.116594
858,-31.616693,-8.728161,1.525902,0.039918,-0.047730,1.114519
859,-16.174563,-3.540093,1.342794,0.076051,0.035401,1.026871
860,-24.597543,0.671397,2.807660,0.072267,0.020020,1.008560
861,-26.550698,2.929732,3.540093,-0.007202,-0.012085,1.032120
862,-20.630198,1.037613,3.356985,0.015137,-0.012207,1.034318
863,-19.836728,-0.488289,3.234913,0.028077,-0.009155,0.960586
864,-20.752270,-3.112840,2.563516,-0.010498,0.002686,1.058610
865,-16.235599,-4.333562,1.525902,-0.005982,-0.001953,0.981704
866,-16.235599,-5.065995,0.244144,-0.000610,0.006226,1.003067
867,-18.249790,-5.554284,0.671397,0.026123,-0.041749,1.047501
868,-10.925460,-3.906310,1.342794,0.039307,-0.026978,1.025162
869,-10.315099,-3.356985,2.258335,0.011841,-0.008179,0.988052
870,-13.122759,-4.211490,2.685588,0.000977,0.002197,1.028580
871,-10.254063,-3.845274,2.319371,0.027955,-0.033204,1.050919
872,-10.009918,-3.784237,2.929732,0.041382,0.026246,1.050553
873,-7.507439,-3.845274,2.685588,0.017456,-0.041260,1.038346
874,-6.469825,-4.150454,1.525902,0.018189,-0.029419,0.986587
875,-5.798428,-5.004959,0.915541,0.013428,-0.025879,0.968032
876,-6.225681,-6.286717,0.549325,0.007813,0.023926,0.963516
877,-9.582666,-7.812619,0.122072,-0.013062,0.004639,0.944106
878,-14.404517,-9.460594,0.122072,0.015381,-0.018189,0.977920
879,-16.662852,-9.826810,0.183108,0.030030,-0.024292,0.985489
880,-16.723888,-9.765774,-0.244144,0.033814,-0.023804,0.990127
881,-17.029068,-9.216449,-0.183108,0.049928,-0.049561,0.997574
882,-16.723888,-8.545052,-0.244144,0.043946,-0.047852,1.013443
883,-14.648661,-7.507439,0.000000,0.062623,-0.070558,1.018570
884,-13.550011,-5.859464,0.000000,0.057862,-0.079225,1.025284
885,-10.009918,-4.577707,0.122072,0.045411,-0.064332,1.013321
886,-7.812619,-4.577707,0.732433,0.047852,-0.058961,0.943496
887,-9.948882,-4.638743,0.427253,0.031373,-0.028565,0.954849
888,-13.733120,-6.103609,0.244144,0.022583,-0.011963,0.954238
889,-18.188754,-7.873655,0.000000,0.015137,-0.029175,0.935439
890,-21.911955,-6.958114,-1.342794,0.064454,-0.049805,0.981827
891,-25.757229,-5.065995,-1.770047,0.063600,-0.057496,1.030900
892,-30.151827,-0.244144,-1.464866,0.035279,-0.118776,0.924453
893,-26.245518,-1.709010,-1.037613,0.065919,-0.096803,1.047868
894,-19.043259,-0.671397,0.305180,0.072389,-0.037842,1.064591
895,-26.245518,1.953155,1.342794,0.063844,-0.084718,0.998672
896,-25.268940,2.380407,1.831083,0.033082,-0.088746,0.982803
897,-23.315785,0.854505,1.586938,0.015991,-0.076661,0.979995
898,-27.283131,-0.915541,1.220722,0.028687,-0.065431,0.969619
899,-28.259709,-1.892119,0.488289,0.036622,-0.029664,0.937026
900,-35.278859,-2.746624,0.061036,0.052857,-0.067262,0.988052
901,-39.673457,1.159686,3.540093,0.028809,-0.105715,0.984634
902,-40.283818,0.183108,5.371176,0.076417,-0.152102,1.044938
903,-30.884260,2.868696,6.286717,0.045777,-0.139895,1.044205
904,-25.452049,2.258335,4.699779,0.018677,-0.103395,0.997574
905,-25.391012,1.281758,1.709010,0.028931,-0.091554,0.999649
906,-25.513085,1.098650,-1.464866,-0.003784,-0.070802,0.989517
907,-24.414435,-0.671397,-7.324331,-0.001709,-0.056153,0.941054
908,-24.414435,-2.563516,-15.503166,-0.077028,-0.102419,1.028336
909,-33.081559,1.037613,-24.597543,0.002686,-0.063966,1.058244
910,-43.030442,0.915541,-37.964446,0.038453,-0.154177,0.945815
911,-36.926833,-4.882887,-35.584039,0.137942,-0.238895,1.047868
912,-18.005646,-8.667124,-26.123445,0.164920,-0.153933,1.055314
913,-18.249790,-0.671397,-11.535821,0.216312,-0.222538,1.133562
914,-35.400931,11.352712,-1.037613,0.078248,0.007202,1.037125
915,-66.224155,19.348440,-13.672084,0.121218,0.088258,1.008804
916,-95.399405,29.785611,-17.700465,0.111086,0.122927,0.920546
917,-136.415656,34.302281,-12.939651,-0.073854,0.419562,0.893568
918,-192.629892,13.916228,-26.489662,-0.118288,0.183230,0.140871
919,-169.924468,-26.367590,10.376135,-0.177981,0.645640,0.891737
920,-265.506981,-52.979324,-35.828183,-0.149050,0.500618,1.306294
921,-435.797665,-101.014725,-50.843061,-0.303349,0.257939,1.018448
922,-600.778210,-189.456016,15.442130,-0.311040,-0.135622,1.651392
923,-721.141375,-246.463722,57.007706,-0.048585,-0.101808,1.563989
924,-805.065995,-217.227436,83.619440,0.296025,0.135622,1.096452
925,-950.270848,-188.113222,126.344701,1.314229,-2.000031,1.999969
926,-806.652934,-57.923247,232.242313,-0.357183,-0.202762,1.999969
927,136.232548,5.920500,-59.510185,0.015015,-0.431769,1.999969
928,431.708248,65.796902,-58.167391,-0.274052,0.670665,1.999969
929,237.430381,55.420768,-70.862898,-0.354009,0.672618,1.149310
930,70.923934,2.502480,34.546426,-0.682261,0.526131,0.159792
931,-27.527276,-37.598230,65.735866,-0.359991,0.241337,0.358526
932,55.664912,-4.577707,54.077974,-0.180789,0.066407,0.429206
933,141.115435,17.883574,36.377508,-0.055177,0.330205,0.260380
934,93.324178,20.996414,34.424353,0.090455,0.420783,0.381109
935,61.036088,15.564202,31.311513,0.071778,0.317876,0.722179
936,109.193561,12.085145,19.043259,0.106081,0.348516,0.944472
937,140.321965,6.713970,8.056764,0.131106,0.468879,1.078874
938,142.030976,1.342794,0.671397,0.145022,0.432502,1.335103
939,174.258030,5.920500,-10.131991,0.135744,0.328374,1.473411
940,210.696574,14.892805,-22.278172,0.064332,0.255741,1.504051
941,235.599298,22.339208,-28.076600,0.036133,0.153811,1.406760
942,256.046387,27.405203,-31.067369,-0.018311,0.036011,1.351217
943,274.113069,31.555657,-31.433585,-0.020752,-0.051148,1.372702
944,288.029297,35.461967,-29.785611,-0.025269,-0.166018,1.352438
945,302.738994,35.400931,-27.466239,0.052125,-0.231449,1.186419
946,307.682918,31.494621,-27.588312,0.136721,-0.232303,1.051286
947,298.222324,28.870069,-33.081559,0.248417,-0.366339,0.885634
948,279.972534,41.870756,-43.823911,0.363287,-0.535042,0.621225
949,253.604944,65.918975,-54.444190,0.382086,-0.543099,0.705821
950,216.189822,74.280919,-59.998474,0.311284,-0.473762,1.059953
951,200.503548,64.820325,-64.820325,0.296391,-0.397833,1.560449
952,205.752651,59.205005,-67.872129,0.224125,-0.334722,1.999969
953,210.513466,58.838788,-68.421454,0.227543,-0.395758,1.999969
954,238.651102,68.787671,-68.116274,0.173220,-0.615610,1.999969
955,271.183337,80.811780,-65.918975,0.088991,-0.709850,1.999969
956,261.905852,77.027543,-53.528649,-0.019043,-0.731945,1.999969
957,267.887388,62.928206,-40.100710,0.020630,-0.861952,1.987823
958,285.526818,64.332036,-32.898451,0.127687,-0.792126,1.841581
959,264.286259,66.529335,-25.268940,0.169192,-0.758068,1.888823
960,263.736934,63.660639,-21.667811,0.247318,-0.798840,1.846098
961,273.197528,59.021897,-22.644388,0.352178,-0.738903,1.690211
962,255.741207,52.857252,-25.452049,0.394293,-0.759899,1.603174
963,250.614176,51.331350,-32.532235,0.388312,-0.815076,1.512596
964,241.580835,54.993515,-41.443503,0.338262,-0.864149,1.318502
965,218.936446,60.914015,-48.218509,0.265507,-0.989883,1.128313
966,196.536202,68.726635,-52.796216,0.224979,-1.160174,0.946548
967,166.506447,78.675517,-55.054551,0.239506,-1.391867,0.782605
968,128.725109,91.920348,-54.749371,0.291020,-1.708400,0.794934
969,93.324178,110.048066,-49.744411,0.224979,-2.000031,0.828138
970,74.219883,123.048753,-33.081559,0.102541,-2.000031,0.622568
971,69.031815,105.714504,-6.408789,0.052125,-2.000031,0.047852
972,42.114900,43.762875,30.884260,0.036011,-1.910185,-0.343999
973,-7.019150,-29.663539,64.148928,0.139528,-1.523583,0.035035
974,-67.444877,-81.483177,71.839475,0.283696,-1.718654,-0.827161
975,-182.070649,-88.258183,82.948043,0.375738,-1.223285,0.157961
976,-229.007401,-67.933165,70.862898,0.209476,-1.720729,0.225711
977,-182.253758,-77.454795,57.557031,0.197147,-0.278202,1.367453
978,-106.202792,-85.023270,35.339895,0.514046,0.758190,1.999969
979,-129.396506,-58.899825,24.048219,0.542977,0.870375,0.958633
980,-233.218891,-64.698253,23.132677,0.282231,0.162234,0.447150
981,-270.267796,-66.163119,26.855879,0.043214,-0.317388,1.576440
982,-224.795911,-32.471199,29.785611,-0.026734,-0.220584,1.999969
983,-168.276493,-7.751583,24.963760,0.086305,-0.223514,1.999969
984,-127.809567,12.695506,20.386053,0.103639,-0.202640,1.811307
985,-106.385901,25.207904,18.554971,0.191775,0.038697,1.489036
986,-113.771267,10.803388,21.423667,-0.153933,0.268925,1.759182
987,-111.573968,-9.155413,19.226368,-0.324834,-0.222782,1.465843
988,-64.637217,-41.565576,21.728847,-0.078004,0.079347,1.999969
989,-68.848707,-43.457694,22.766461,0.624765,-0.043336,1.917388
990,-26.184482,-11.474784,10.193027,0.161746,0.052125,1.275654
991,-38.635843,-13.733120,12.634470,-0.316289,0.013794,1.153826
992,-27.466239,-27.527276,11.047532,0.058595,0.008057,1.240375
993,-11.413748,-20.752270,3.051804,0.167849,0.135134,1.179461
994,-20.202945,-12.451362,2.319371,-0.089113,0.041871,1.039689
995,-15.564202,-13.488975,1.770047,-0.059937,0.052003,1.047623
996,-15.564202,-11.596857,1.709010,0.054078,0.078737,1.065080
997,-15.197986,-4.577707,2.014191,0.022827,0.045777,1.068498
998,-13.550011,0.366217,2.685588,0.007202,0.026490,1.091447
999,-9.582666,4.394598,2.929732,0.014527,0.044556,1.069230
1000,-9.765774,7.629511,3.051804,0.002564,0.039673,1.085466
1001,-7.202258,9.521630,2.929732,-0.030518,0.032349,1.056535
1002,-3.051804,9.887846,2.563516,-0.015991,0.070314,0.989151
1003,-5.737392,10.315099,2.807660,-0.036866,0.057862,0.993179
1004,-5.493248,10.131991,2.197299,-0.078248,0.047974,0.952163
1005,-7.690547,7.873655,2.685588,-0.068238,0.074464,0.957412
1006,-10.559243,6.103609,2.685588,-0.075807,0.046998,0.946670
1007,-11.841001,4.028382,3.112840,-0.072633,0.048096,0.977554
1008,-12.634470,2.624552,3.418021,-0.047242,0.025147,0.999649
1009,-10.437171,1.953155,3.356985,-0.049683,0.035157,1.012833
1010,-9.338521,1.709010,3.234913,-0.037110,0.033082,1.019059
1011,-8.239872,2.319371,3.234913,-0.054810,0.036255,0.990494
1012,-8.422980,1.342794,3.051804,-0.064088,0.047730,0.970962
1013,-9.094377,-0.061036,2.807660,-0.064698,0.039673,0.970718
1014,-10.315099,-2.014191,3.112840,-0.078859,0.034791,0.948257
1015,-10.376135,-5.065995,3.112840,-0.095827,0.057252,0.916884
1016,-14.953841,-9.277485,3.112840,-0.068360,0.050538,0.927993
1017,-19.287404,-11.291676,3.356985,-0.050538,0.036500,0.983413
1018,-18.249790,-12.329290,2.563516,-0.056519,0.017945,0.953506
1019,-20.080873,-14.770733,2.380407,-0.062989,0.030518,0.965347
1020,-20.752270,-16.296635,0.732433,-0.044800,-0.029786,0.874525
1021,-21.789883,-20.141909,1.647974,-0.088014,0.044312,1.012467
1022,-26.550698,-22.949569,2.319371,-0.048585,0.017334,0.992325
1023,-20.447089,-22.156100,-1.159686,-0.041993,-0.044434,0.889662
1024,-22.156100,-24.475471,0.366217,-0.026612,0.016846,1.067155
1025,-24.841688,-23.071641,0.793469,0.003296,0.001953,1.033341
1026,-25.574121,-18.799115,-2.319371,0.097047,-0.074586,0.876722
1027,-23.865110,-17.944610,-0.610361,0.013550,-0.019043,1.167376
1028,-29.358358,-14.831769,1.586938,0.049805,-0.014649,1.016007
1029,-29.297322,-10.498207,2.319371,0.033082,-0.041138,1.054093
1030,-26.855879,-6.775006,3.356985,0.030762,-0.038819,1.074235
1031,-24.353399,-4.150454,3.784237,0.003784,-0.051148,1.026505
1032,-22.156100,-3.418021,4.760815,0.005982,-0.027955,0.996841
1033,-22.156100,-4.699779,3.906310,-0.066651,-0.023560,0.954482
1034,-25.757229,-8.484016,3.601129,-0.013550,-0.023438,0.991470
1035,-25.513085,-8.239872,2.868696,0.003174,-0.023804,1.008682
1036,-24.780652,-8.422980,1.586938,-0.010864,-0.026856,0.971206
1037,-28.992142,-8.728161,1.709010,0.002564,-0.019043,0.976333
1038,-31.616693,-9.033341,1.525902,-0.007202,-0.045167,0.995132
1039,-33.081559,-9.765774,1.342794,-0.002686,-0.051026,0.968154
1040,-33.142596,-9.948882,0.976577,0.045289,-0.065309,0.990249
1041,-40.711070,-9.277485,2.136263,-0.019287,-0.104005,1.033585
1042,-36.133364,-9.521630,4.577707,-0.019165,-0.099855,1.004654
1043,-34.180209,-10.009918,6.836042,0.031250,-0.048951,1.022965
1044,-44.312200,-7.690547,6.347753,0.038819,-0.086915,1.095598
1045,-41.016251,-4.699779,4.028382,0.006958,-0.094118,1.029801
1046,-38.757916,-4.150454,2.075227,-0.000855,-0.069581,1.000748
1047,-43.884947,-4.394598,1.403830,0.029908,-0.080079,1.021256
1048,-44.861524,-2.502480,0.244144,-0.017090,-0.109010,1.025650
1049,-41.992828,-2.258335,-2.441444,-0.024414,-0.107057,1.019669
1050,-40.161746,-2.014191,-7.812619,-0.039429,-0.103273,1.001480
1051,-42.542153,-3.906310,-14.709697,-0.032837,-0.109865,1.020645
1052,-48.706798,-5.249104,-20.752270,-0.049561,-0.133791,1.057633
1053,-59.143969,5.981537,-32.898451,0.038209,-0.229129,1.019791
1054,-43.396658,7.995727,-31.799802,0.136477,-0.376226,1.028214
1055,-28.015564,-1.770047,-10.803388,-0.008057,-0.055665,1.001358
1056,-42.481117,-5.920500,-15.625238,-0.027100,0.103029,0.880262
1057,-91.676204,-0.854505,-25.207904,0.051148,0.184329,1.014542
1058,-148.683909,6.042573,-24.353399,0.147585,-0.097047,0.712657
1059,-129.884794,3.356985,0.427253,0.110597,0.229618,0.842786
1060,-132.448310,-19.043259,-23.682002,0.002686,0.637095,1.103044
1061,-334.416724,-5.004959,-49.378195,0.215579,1.062028,1.261006
1062,-552.803845,-10.315099,-26.977951,-0.440436,0.180179,1.021622
1063,-631.845579,-76.112001,16.418708,-0.279667,0.036255,1.429465
1064,-731.883726,-119.447623,33.875029,-0.022461,-0.019654,1.224750
1065,-807.934691,-145.937285,48.828870,0.076295,-0.958022,1.915679
1066,-1038.712139,-118.898299,195.437552,-1.558373,-0.337041,1.999969
1067,-340.947585,-59.937438,57.679103,-1.213153,-0.983047,1.999969
1068,317.509728,-0.488289,-26.489662,-0.733532,0.794568,1.999969
1069,320.561532,-8.239872,-9.826810,-0.946914,1.261372,1.431418
1070,92.591745,-7.324331,18.005646,-0.591928,0.409674,0.703624
1071,-49.927520,-44.983597,94.544900,-0.315068,0.296025,-0.123537
1072,-29.785611,-24.841688,79.652094,0.016602,-0.063233,0.399420
1073,100.892653,13.061723,46.204318,0.007691,0.321172,0.318120
1074,66.590372,17.456321,36.621653,0.224002,0.463630,0.415045
1075,25.391012,15.991455,33.447776,0.175540,0.387701,0.761608
1076,78.187228,12.085145,17.090105,0.165164,0.402106,0.944961
1077,114.747845,2.563516,4.333562,0.136965,0.493050,0.907240
1078,117.555505,-9.643702,-1.953155,0.079225,0.448615,1.056291
1079,141.786831,-11.963073,-9.216449,0.054322,0.374884,1.267597
1080,174.624247,-8.667124,-16.723888,-0.007324,0.338994,1.379904
1081,197.634852,-4.394598,-20.386053,-0.062013,0.245243,1.407736
1082,222.354467,2.258335,-22.156100,-0.117556,0.112306,1.363912
1083,246.463722,9.948882,-21.545739,-0.165774,0.007568,1.262959
1084,261.356527,14.953841,-18.127718,-0.201175,-0.073976,1.197528
1085,269.718471,18.127718,-12.329290,-0.206912,-0.143191,1.222919
1086,278.995956,17.517357,-6.469825,-0.163455,-0.178714,1.310689
1087,288.090333,13.061723,-2.441444,-0.077516,-0.206546,1.366476
1088,297.184710,6.897078,-3.234913,0.031739,-0.264042,1.301656
1089,301.518273,9.826810,-11.169604,0.150271,-0.401984,1.057267
1090,286.442359,31.006332,-22.827497,0.266361,-0.522957,0.782971
1091,259.037156,55.176623,-35.584039,0.281865,-0.497078,0.763928
1092,224.612802,56.641489,-44.922560,0.190066,-0.439948,0.951064
1093,211.062791,36.987869,-53.040360,0.188602,-0.354131,1.468650
1094,206.485084,27.771420,-61.158160,0.138674,-0.336065,1.999969
1095,207.583734,38.635843,-67.566949,0.048585,-0.411139,1.999969
1096,230.777447,63.294423,-72.632944,-0.071046,-0.613046,1.999969
1097,250.675212,83.985657,-70.130465,-0.232425,-0.725109,1.999969
1098,248.844129,82.520790,-58.838788,-0.317510,-0.918349,1.797024
1099,248.905165,83.924620,-50.354772,-0.196780,-1.116106,1.120745
1100,216.189822,103.150988,-45.227741,-0.098024,-1.012222,1.084855
1101,160.036622,115.785458,-40.405890,-0.043336,-1.042374,1.441550
1102,154.116121,130.189975,-39.856565,0.076661,-1.028580,1.715969
1103,156.130312,125.490196,-40.344854,0.204959,-0.952773,1.896391
1104,164.736400,106.019684,-41.382467,0.385138,-0.931655,1.973541
1105,183.413443,88.746471,-46.143282,0.512093,-0.891737,1.999969
1106,203.921569,78.919661,-50.232700,0.512703,-0.972671,1.919463
1107,222.842756,70.435645,-50.415808,0.363897,-1.111589,1.385641
1108,220.401312,53.467613,-43.213550,0.152712,-1.241962,0.815564
1109,196.536202,31.006332,-30.029755,-0.063355,-1.369528,0.547982
1110,169.314107,12.939651,-13.916228,-0.206180,-1.470603,0.535164
1111,144.045167,3.234913,0.000000,-0.226200,-1.581567,0.597421
1112,119.569696,5.676356,12.268254,-0.206302,-1.707057,0.603037
1113,96.070802,16.418708,24.536507,-0.161013,-1.851469,0.415045
1114,66.956588,27.161059,37.354086,-0.319951,-2.000031,-1.497459
1115,-51.270314,-45.288777,74.097810,-0.186160,-2.000031,-1.613550
1116,-167.299916,-126.161593,107.667659,0.191165,-2.000031,-1.085222
1117,-242.923629,-143.007553,114.198520,0.650523,-2.000031,-0.342901
1118,-166.201267,-112.489509,85.511559,0.610849,-0.126223,1.406882
1119,-136.476692,-100.648508,55.603876,0.561044,1.260395,1.999969
1120,-244.144350,-102.296483,72.816052,0.815564,0.836316,1.730983
1121,-281.437400,-93.568322,54.871443,0.793835,-0.587778,0.947890
1122,-215.152209,-79.530022,38.452735,0.816541,-0.314092,1.921294
1123,-209.170672,-44.007019,28.503853,0.857557,0.058350,1.999969
1124,-145.021744,-2.380407,11.291676,0.313237,-0.261967,1.999969
1125,-73.914702,11.474784,3.784237,-0.409552,0.038575,0.910292
1126,-149.843595,-25.574121,30.701152,-1.093278,-0.275273,0.979995
1127,-131.227588,-86.182956,49.195087,-0.173465,-0.165164,1.871977
1128,-87.342641,-98.573281,31.067369,1.257343,0.002808,1.999969
1129,-41.260395,-44.434272,7.690547,0.406378,0.018067,1.584253
1130,-53.833829,-33.203632,2.197299,-0.478157,-0.029297,1.238911
1131,-60.181582,-55.970092,13.000687,0.062867,-0.053101,1.246235
1132,-23.743038,-37.903410,2.136263,0.481575,0.066285,1.572412
1133,-27.649348,-14.831769,2.136263,0.005249,-0.033570,1.050187
1134,-17.700465,-14.099336,2.136263,-0.044068,0.008789,1.120378
1135,-10.437171,-15.259022,0.793469,0.067140,0.045655,0.942885
1136,-20.080873,-12.268254,1.709010,0.066773,0.020752,1.077653
1137,-19.531548,-8.911269,2.685588,0.043946,-0.044923,1.118181
1138,-3.723201,-4.760815,4.211490,0.129152,0.019165,1.049454
1139,-10.131991,-0.244144,4.577707,0.018555,0.013672,1.013809
1140,-12.634470,-2.197299,5.127031,-0.034058,-0.024537,1.046403
1141,-3.112840,-3.967346,4.028382,0.033814,0.013306,1.013565
1142,-5.676356,-3.234913,2.990768,0.032593,0.001709,1.026017
1143,-3.418021,-2.563516,2.563516,0.041016,0.000977,1.028092
1144,-1.770047,-2.197299,2.197299,0.010254,0.032105,0.951675
1145,-5.859464,-3.906310,1.464866,-0.048585,0.045289,0.920668
1146,-13.122759,-7.934691,1.342794,0.005982,-0.001709,1.011856
1147,-7.995727,-6.897078,0.854505,0.035767,-0.017578,1.029801
1148,-3.906310,-4.821851,1.159686,0.008789,0.027710,0.982193
1149,-10.559243,-5.004959,1.709010,0.024048,0.010376,0.983169
1150,-9.765774,-4.638743,1.586938,0.012207,0.003784,0.989883
1151,-9.704738,-4.699779,0.732433,0.035279,0.006836,0.965957
1152,-14.221408,-5.127031,0.793469,0.031739,-0.005371,0.999649
1153,-12.268254,-5.615320,0.793469,0.027222,-0.015137,1.022599
1154,-10.070954,-5.554284,0.671397,0.005493,-0.003540,0.996109
1155,-10.009918,-7.202258,0.183108,0.008667,-0.008423,0.986954
1156,-10.742351,-8.728161,-0.244144,0.008545,0.007568,0.991958
1157,-11.841001,-9.643702,-0.976577,0.031006,-0.004395,0.977554
1158,-13.550011,-10.376135,-1.464866,0.033814,-0.005982,0.999283
1159,-14.343481,-9.582666,-4.516670,0.107179,-0.075319,1.088151
1160,-11.657893,-10.681315,-2.319371,0.128664,0.011597,0.984512
1161,-11.230640,-7.873655,-2.502480,-0.017823,-0.013062,0.926162
1162,-13.672084,-9.094377,-2.258335,0.086305,-0.030762,1.014176
1163,-14.160372,-6.286717,-1.464866,0.028077,-0.024292,0.995987
1164,-15.869383,-6.225681,-0.122072,0.085328,-0.033814,1.009293
1165,-16.052491,-3.723201,0.793469,0.056153,-0.039307,0.975235
1166,-18.616007,-3.418021,2.014191,0.048463,-0.034180,1.006607
1167,-19.714656,-3.723201,1.647974,0.060792,-0.041993,0.948989
1168,-20.447089,-3.967346,2.136263,0.041260,-0.031983,0.992813
1169,-19.653620,-4.394598,2.075227,0.044434,-0.042115,1.005020
1170,-19.409476,-3.479057,1.892119,0.021363,-0.127199,1.232441
1171,-22.400244,-1.525902,1.586938,0.030884,-0.073610,0.994400
1172,-18.371862,-1.098650,1.220722,0.038941,-0.051148,0.946426
1173,-21.179522,-1.464866,0.915541,0.053712,-0.026734,1.012467
1174,-25.818265,-0.549325,0.488289,0.051026,-0.050050,0.996597
1175,-25.818265,-0.427253,0.122072,0.055665,-0.042481,0.938979
1176,-29.846647,0.427253,-0.610361,0.055543,-0.054932,1.002823
1177,-34.668498,0.122072,-1.892119,0.004517,-0.062135,1.028458
1178,-41.199359,-0.366217,-5.127031,0.041016,-0.111330,0.993301
1179,-36.926833,-0.427253,-2.502480,0.054810,-0.096925,1.008682
1180,-36.621653,0.610361,-1.037613,0.136110,-0.086183,0.987320
1181,-45.410849,3.967346,1.709010,-0.002197,-0.087770,0.978408
1182,-43.579767,1.953155,2.075227,0.038941,-0.112673,1.032975
1183,-36.987869,1.953155,-1.525902,0.032837,-0.098146,1.038468
1184,-37.781338,2.624552,-4.577707,0.030396,-0.111940,0.998306
1185,-32.959487,2.319371,-9.338521,0.021363,-0.110475,0.951553
1186,-25.696193,3.173877,-14.099336,-0.046632,-0.048585,1.023575
1187,-29.968719,0.671397,-24.536507,-0.017090,-0.118654,1.006485
1188,-42.603189,2.319371,-37.415122,0.042359,-0.067262,0.977798
1189,-46.936751,4.394598,-42.298009,0.116213,-0.290288,1.032731
1190,-26.611734,5.371176,-22.583352,0.220218,-0.267582,1.048478
1191,-15.503166,6.164645,5.920500,0.185183,-0.257939,1.162371
1192,-30.029755,18.616007,17.639429,0.081666,-0.010376,0.964370
1193,-45.899138,21.789883,7.507439,-0.079713,0.289555,0.838392
1194,-102.601663,25.940337,-0.244144,0.151003,0.246708,0.909438
1195,-156.862745,32.532235,0.671397,-0.159304,0.429450,0.833997
1196,-211.429007,0.183108,-3.906310,-0.385382,0.110109,0.294682
1197,-217.227436,-35.645075,18.554971,-0.066041,0.987076,0.933120
1198,-351.262684,-78.980697,-29.114214,-0.324468,0.485115,1.926909
1199,-531.380179,-167.727169,4.028382,-0.510628,-0.035401,1.201801
1200,-686.350805,-244.876783,66.346227,0.013794,0.026978,0.941421
1201,-793.713283,-257.511254,99.122606,0.111452,0.185916,1.126848
1202,-899.122606,-221.438926,122.194247,0.741711,-1.399191,1.999969
1203,-1134.538796,-177.920195,268.253605,-0.508553,-1.081682,1.999969
1204,-159.426261,5.065995,20.813306,-0.359258,-1.599145,1.999969
1205,395.330739,82.948043,-49.927520,-0.306889,0.751476,1.999969
1206,330.083162,51.880674,-44.495308,-0.463020,1.176532,0.919448
1207,122.377356,16.540780,5.432212,-0.732799,0.533089,0.689708
1208,-21.911955,-45.716030,77.210651,-0.432624,0.319585,0.127077
1209,4.821851,-29.602502,88.624399,-0.074708,0.290410,0.360479
1210,127.138170,9.704738,48.462654,-0.072633,0.215335,0.418952
1211,138.002594,26.245518,37.537194,0.131716,0.451667,0.265629
1212,81.971466,26.428626,33.569848,0.191897,0.386114,0.409308
1213,93.080034,23.926146,21.789883,0.234134,0.339361,0.740734
1214,136.171511,18.005646,6.836042,0.181277,0.408942,0.934463
1215,148.683909,3.418021,-2.075227,0.243046,0.461555,1.126360
1216,165.651942,-0.915541,-12.939651,0.235843,0.394903,1.425315
1217,199.710079,5.798428,-25.635157,0.200320,0.322881,1.566918
1218,233.035782,19.897765,-36.804761,0.176272,0.225589,1.530663
1219,254.520485,32.410163,-43.335622,0.107057,0.074098,1.429343
1220,274.601358,37.476158,-45.044633,0.051392,-0.074342,1.305684
1221,293.278401,37.781338,-43.335622,0.070192,-0.145022,1.203632
1222,301.457237,35.706111,-41.870756,0.128542,-0.170901,1.210224
1223,301.213092,36.682689,-42.542153,0.189334,-0.189456,1.414206
1224,303.532464,43.213550,-46.143282,0.287846,-0.287114,1.373556
1225,308.842603,46.448463,-55.542840,0.299565,-0.370855,1.217060
1226,296.269169,55.054551,-66.590372,0.369390,-0.543709,0.998550
1227,270.939193,66.712444,-73.731594,0.396246,-0.568856,1.047745
1228,246.036469,64.637217,-80.811780,0.365606,-0.567269,1.207172
1229,234.988937,56.702525,-88.929580,0.320684,-0.578500,1.320821
1230,225.345235,52.735180,-93.812467,0.194339,-0.536751,1.576562
1231,204.837110,57.068742,-93.385214,0.056886,-0.552499,1.996368
1232,201.358053,67.505913,-88.990616,-0.050660,-0.643442,1.999969
1233,221.011673,79.957275,-80.323491,-0.154421,-0.715709,1.999969
1234,245.731289,84.779126,-66.224155,-0.152590,-0.765270,1.999969
1235,265.873198,81.177996,-50.782025,-0.055665,-0.803235,1.999969
1236,284.122988,81.971466,-39.673457,0.159915,-0.823011,1.986969
1237,277.347982,87.525750,-32.715343,0.344244,-0.775525,1.734035
1238,263.248646,82.703899,-30.640116,0.451423,-0.794934,1.622583
1239,258.182651,73.914702,-33.325704,0.538582,-0.803601,1.577173
1240,242.130159,69.703212,-37.598230,0.489631,-0.912001,1.587671
1241,227.847715,65.430686,-38.147555,0.241337,-1.203143,1.445212
1242,220.035096,61.341268,-32.043946,0.020874,-1.508812,1.174456
1243,191.165026,58.167391,-16.662852,-0.003540,-1.924956,0.988663
1244,149.538415,57.251850,1.342794,0.310796,-2.000031,0.878920
1245,118.593118,68.970779,5.249104,0.736706,-2.000031,0.482918
1246,108.278019,92.896925,-22.827497,0.826429,-2.000031,0.002686
1247,82.520790,101.564050,-22.217136,0.498421,-2.000031,-0.496956
1248,5.249104,53.894865,7.934691,0.150515,-2.000031,-0.418097
1249,-41.931792,-25.085832,44.800488,-0.029297,-1.658350,0.293950
1250,-42.114900,-82.520790,70.862898,0.000366,-1.072526,0.850355
1251,-149.294270,-124.452583,20.263981,1.217548,-1.364034,-0.508431
1252,-199.526970,-74.952316,26.977951,0.303471,-0.420661,0.575204
1253,-116.823072,-51.392386,6.164645,-0.190921,0.570199,1.445823
1254,-114.564736,-57.495995,1.159686,-0.528695,1.082780,1.517479
1255,-225.772488,-52.429999,27.893492,-0.544442,0.207279,0.036744
1256,-276.310369,-65.796902,45.777066,-0.343633,-0.417121,0.158206
1257,-274.235142,-51.758602,60.120546,0.555673,-0.117433,1.915923
1258,-283.573663,-23.559930,48.767834,1.225605,-0.171511,1.999969
1259,-159.609369,5.004959,5.249104,1.066789,-0.456062,1.999969
1260,-68.299382,20.813306,-15.808347,-0.377691,0.006470,1.999969
1261,-106.080720,-9.521630,12.390326,-1.360006,-0.543709,1.647974
1262,-43.335622,-51.270314,32.410163,-0.631601,-0.177615,0.771740
1263,-62.317845,-76.722362,43.152514,0.646616,0.458625,1.575341
1264,-68.482490,-52.613108,25.452049,0.943252,0.048219,1.796536
1265,-32.349126,-20.569162,11.596857,-0.354376,-0.081544,1.276509
1266,-35.034714,-43.579767,13.611048,-0.475715,0.036500,0.922499
1267,-38.574807,-62.378882,12.634470,0.251591,0.164797,1.033951
1268,-48.828870,-45.593957,7.141222,0.352911,0.123659,1.362081
1269,-49.317159,-27.649348,5.798428,-0.006592,0.009033,1.093156
1270,-39.002060,-28.564889,0.854505,-0.119875,0.044800,1.006485
1271,-43.762875,-31.860838,2.563516,0.075319,0.127443,1.092302
1272,-50.110628,-21.484703,2.990768,0.095583,-0.004395,1.289570
1273,-30.701152,-14.038300,0.122072,0.001709,-0.020020,1.110002
1274,-27.161059,-9.826810,-1.037613,0.074952,0.007568,1.082902
1275,-29.541466,-4.333562,2.380407,0.038331,0.005371,1.068742
1276,-23.865110,-0.915541,2.014191,0.009400,0.005859,1.039078
1277,-22.522316,0.610361,2.929732,0.013062,0.009522,1.027359
1278,-22.034028,2.014191,2.746624,0.020752,0.028443,1.026749
1279,-20.996414,2.868696,1.403830,-0.007935,0.043458,0.966201
1280,-27.222095,2.197299,1.037613,0.000488,0.025269,0.994888
1281,-29.480430,1.953155,0.549325,-0.006348,-0.028443,1.051774
1282,-22.156100,2.624552,-1.037613,0.033448,-0.190555,0.898085
1283,-17.090105,2.624552,-0.427253,0.007446,-0.016846,1.060563
1284,-16.723888,2.746624,1.098650,-0.000366,-0.022827,1.056657
1285,-11.841001,3.356985,1.098650,-0.003052,-0.025025,1.023697
1286,-10.498207,3.051804,1.220722,-0.022217,-0.019165,0.999771
1287,-10.498207,2.197299,0.976577,-0.015137,-0.020508,1.012345
1288,-8.911269,1.403830,0.793469,-0.013062,-0.022705,1.020523
1289,-7.263294,1.281758,0.976577,0.003052,-0.034546,1.021866
1290,-6.164645,1.525902,1.464866,-0.011231,-0.022705,1.020523
1291,-5.737392,1.281758,1.831083,-0.010742,-0.027100,1.003189
1292,-5.615320,1.098650,2.075227,-0.017456,-0.022705,0.993790
1293,-6.164645,0.732433,2.197299,-0.013672,-0.006592,0.984024
1294,-9.277485,0.122072,2.075227,-0.018189,-0.013062,0.980728
1295,-8.789197,-0.488289,1.892119,-0.013916,-0.017823,0.983169
1296,-11.230640,-1.586938,2.014191,-0.003052,-0.031006,0.993301
1297,-9.826810,-1.831083,1.831083,-0.009400,-0.037720,1.000504
1298,-9.582666,-2.746624,2.014191,-0.016846,-0.046998,1.010758
1299,-7.080186,-3.173877,1.770047,-0.009766,-0.042725,1.019181
1300,-6.042573,-3.234913,1.831083,-0.015625,-0.025635,0.976699
1301,-8.911269,-4.272526,2.136263,-0.009522,-0.019532,0.978775
1302,-10.986496,-4.638743,2.075227,0.006348,-0.035035,1.008316
1303,-10.193027,-3.906310,1.892119,0.001709,-0.041993,1.001602
1304,-10.559243,-2.685588,2.258335,0.018555,-0.049317,1.008560
1305,-11.169604,-0.610361,2.929732,0.020630,-0.047364,1.014542
1306,-11.047532,0.793469,3.418021,0.005371,-0.004761,1.004532
1307,-13.611048,1.281758,3.723201,0.000488,-0.039429,1.000992
1308,-14.282444,1.464866,3.784237,0.006226,-0.051759,0.997452
1309,-13.794156,2.014191,3.906310,0.005982,-0.031006,0.991226
1310,-16.174563,2.319371,4.028382,-0.010986,-0.015991,0.949844
1311,-22.522316,1.403830,4.272526,-0.010620,-0.015015,0.967300
1312,-30.334936,1.037613,4.943923,-0.014893,-0.043336,1.006119
1313,-29.175250,0.610361,5.249104,0.006836,-0.061036,1.000870
1314,-27.466239,0.488289,4.211490,-0.029419,-0.059815,0.988907
1315,-28.320745,-1.403830,4.333562,-0.014527,-0.049317,0.986709
1316,-27.527276,-1.098650,4.699779,0.002441,-0.067750,0.998062
1317,-32.776379,-1.709010,5.249104,-0.010742,-0.101564,1.001236
1318,-27.344167,-1.281758,5.004959,-0.006958,-0.085328,1.013565
1319,-26.245518,-1.709010,4.028382,-0.057374,-0.075563,1.002090
1320,-27.222095,-4.577707,3.906310,0.014405,-0.066529,0.985367
1321,-32.349126,-4.516670,2.136263,-0.035645,-0.075685,1.010269
1322,-32.043946,-6.164645,0.122072,0.017823,-0.087282,1.091814
1323,-31.189441,-3.295949,-1.770047,-0.019654,-0.099001,0.962173
1324,-32.532235,-4.028382,-2.197299,-0.025757,-0.091188,0.989639
1325,-35.461967,-4.272526,-2.197299,-0.015869,-0.102419,1.003799
1326,-39.429313,-5.615320,-2.624552,-0.020386,-0.088258,1.009781
1327,-39.673457,-5.065995,-5.554284,-0.029053,-0.109621,1.001846
1328,-36.438544,-2.746624,-9.521630,-0.001221,-0.161746,0.958755
1329,-41.870756,-6.713970,-19.043259,-0.056641,-0.159548,1.048112
1330,-50.904097,-5.004959,-28.015564,-0.041871,-0.204715,1.047623
1331,-67.139696,3.601129,-39.917601,0.015991,-0.285771,1.107317
1332,-39.429313,2.197299,-27.038987,0.088624,-0.379889,1.047623
1333,-21.057450,-5.615320,-6.530861,-0.023926,-0.050050,0.965591
1334,-44.983597,-5.004959,-13.061723,0.051392,0.023926,0.953384
1335,-72.144656,-4.699779,-10.986496,-0.013062,0.108522,0.927382
1336,-112.916762,-5.676356,-17.090105,0.057618,-0.110964,0.882704
1337,-101.136797,-8.300908,1.342794,0.031739,-0.060182,1.124651
1338,-107.789731,-5.737392,-12.573434,-0.014893,0.226688,0.752819
1339,-145.876249,-28.564889,-31.250477,-0.011597,0.531991,0.978042
1340,-318.608377,-19.592584,-20.325017,0.155520,0.748302,1.406638
1341,-505.561914,-32.776379,-1.770047,-0.447028,-0.035645,1.189105
1342,-573.983368,-99.671931,24.353399,-0.288701,-0.151492,1.084245
1343,-643.625544,-143.068589,46.387427,-0.014405,-0.216556,1.306172
1344,-691.050584,-166.872663,52.185855,-0.006714,-0.318486,0.663706
1345,-784.924086,-175.112535,98.695354,0.713512,-2.000031,1.999969
1346,-715.770199,-93.690394,200.198367,-0.678965,-0.521004,1.999969
1347,-67.444877,-84.473945,-4.211490,-0.094362,-0.887098,1.999969
1348,244.205386,-17.578393,-9.826810,-0.330571,0.680430,1.999969
1349,131.593805,23.559930,-20.202945,-0.064332,0.759777,1.778103
1350,4.699779,-1.159686,45.288777,-0.453376,0.622202,1.157366
1351,-2.929732,-11.841001,55.237659,-0.143191,0.316777,0.980606
1352,114.259556,7.690547,37.842374,-0.152224,0.277714,0.746838
1353,120.424201,1.709010,35.706111,0.014527,0.430426,0.491707
1354,80.018311,-6.713970,34.302281,0.067262,0.305547,0.678355
1355,109.193561,-2.014191,23.132677,0.120241,0.271611,0.802502
1356,136.049439,2.319371,9.826810,0.129152,0.347173,0.770642
1357,133.669032,-1.098650,2.014191,0.088746,0.308354,0.872328
1358,152.529183,-3.601129,-6.286717,0.046143,0.255985,0.976211
1359,173.037308,-4.821851,-13.061723,-0.031128,0.234989,1.072770
1360,184.084840,-7.263294,-15.442130,-0.067018,0.179202,1.214374
1361,205.081254,-6.713970,-16.968032,-0.129274,0.129641,1.426535
1362,230.045014,-3.112840,-16.601816,-0.176638,0.063600,1.550317
1363,256.351568,3.356985,-14.465553,-0.214115,-0.033814,1.589258
1364,276.859693,10.742351,-10.193027,-0.223514,-0.152224,1.519432
1365,294.926375,13.855192,-4.638743,-0.174807,-0.244755,1.371969
1366,305.058366,12.390326,-0.854505,-0.081422,-0.281498,1.255390
1367,306.157015,9.277485,-1.098650,0.032227,-0.286381,1.287251
1368,305.729763,11.963073,-7.080186,0.144900,-0.300420,1.362936
1369,306.218051,20.691234,-18.066682,0.173342,-0.361334,1.289204
1370,300.480659,35.217823,-31.372549,0.172122,-0.510384,0.913588
1371,276.371405,53.284504,-42.175937,0.150149,-0.621714,0.565927
1372,239.932860,64.148928,-48.645762,0.119020,-0.598642,0.460578
1373,193.911650,63.050278,-51.636530,0.073610,-0.454475,0.936416
1374,161.806668,55.970092,-53.223468,0.077272,-0.320928,1.991241
1375,163.088426,54.261082,-55.848020,0.128420,-0.345464,1.999969
1376,209.475853,59.876402,-62.195773,0.187503,-0.500984,1.999969
1377,265.629053,70.496681,-75.867857,0.222416,-0.645640,1.999298
1378,258.854047,85.755703,-84.290837,0.237430,-0.654063,1.539574
1379,214.175631,82.887007,-83.741512,0.179080,-0.691051,1.927520
1380,229.434653,78.553445,-85.328450,0.219852,-0.769299,1.999969
1381,260.440986,82.032502,-87.525750,0.319219,-0.720836,1.807767
1382,242.984665,82.276646,-84.046693,0.324468,-0.761852,1.615869
1383,235.049973,75.745785,-78.004120,0.261479,-0.857435,1.551049
1384,238.162814,64.515145,-70.191501,0.170657,-0.886244,1.514061
1385,223.758297,54.810407,-56.824598,0.012207,-1.008560,1.510765
1386,216.678111,50.110628,-39.246204,-0.193973,-1.223041,1.385031
1387,208.194095,46.753643,-17.822538,-0.317876,-1.455955,1.117815
1388,186.465248,42.786297,5.249104,-0.215946,-1.721218,0.825086
1389,151.796750,42.420081,18.554971,0.133669,-2.000031,0.637217
1390,109.376669,58.533608,16.540780,0.465339,-2.000031,0.451301
1391,77.210651,84.901198,1.220722,0.579110,-2.000031,0.126467
1392,46.448463,99.000534,-1.709010,0.349615,-2.000031,-0.088014
1393,-7.324331,71.961547,19.592584,0.060060,-2.000031,-0.099977
1394,-41.260395,12.817578,51.636530,-0.041505,-1.696681,0.200809
1395,-55.725948,-51.514458,78.980697,-0.079103,-1.328634,0.277104
1396,-155.092699,-131.715877,65.491722,1.010391,-1.270893,-0.403082
1397,-158.205539,-96.375982,46.021210,0.342290,-0.224002,1.313252
1398,-100.709545,-49.134051,29.541466,-0.332158,0.867201,1.543725
1399,-107.850767,-67.078660,35.034714,-0.487800,0.774548,0.852430
1400,-222.537575,-94.300755,62.439918,-0.204715,-0.031495,-0.153811
1401,-255.130846,-92.225528,77.027543,0.159182,-0.312749,0.187381
1402,-270.389868,-72.999161,75.257496,1.070573,0.075685,1.999969
1403,-253.055619,-33.936065,56.946670,1.671778,-0.062135,1.999969
1404,-129.030289,0.366217,2.319371,1.538476,-0.161868,1.999969
1405,-79.652094,35.400931,-32.043946,0.302373,0.086549,1.841215
1406,-107.972839,33.691920,-13.733120,-1.359518,-0.211917,1.999969
1407,-70.618753,-8.789197,23.254749,-1.582666,-0.434699,0.719127
1408,-55.115587,-69.459068,41.626612,-0.203861,0.199710,1.031632
1409,-78.126192,-83.558404,35.156786,1.124163,0.195315,1.798489
1410,-46.570535,-37.232013,11.291676,0.329961,0.046143,1.562524
1411,-52.918288,-31.982910,13.733120,-0.493050,-0.081300,1.041032
1412,-38.513771,-58.106355,11.718929,-0.026490,0.132692,1.115984
1413,-42.236973,-51.941711,0.671397,0.453620,0.107668,1.369162
1414,-43.152514,-28.625925,2.563516,-0.000244,-0.041871,1.167498
1415,-23.620966,-28.503853,0.488289,-0.052857,0.025635,1.112078
1416,-21.850919,-26.428626,-1.831083,0.107179,0.115114,1.031876
1417,-30.029755,-17.761501,-2.319371,0.091554,0.081788,1.021622
1418,-32.959487,-11.108568,0.915541,0.012696,0.045655,1.110124
1419,-27.038987,-7.385367,3.234913,0.058839,0.034546,1.058488
1420,-25.146868,-0.854505,2.807660,0.058350,0.043702,1.058244
1421,-26.001373,2.441444,4.150454,-0.034546,-0.073487,1.010147
1422,-19.287404,3.845274,4.760815,0.060548,0.029541,1.025528
1423,-18.371862,7.446403,3.723201,0.022705,0.052369,1.001602
1424,-23.437858,7.995727,4.272526,0.011719,0.013184,1.034684
1425,-16.662852,7.751583,2.990768,-0.018189,0.037598,0.982925
1426,-20.630198,6.286717,2.319371,0.010498,0.032715,1.000504
1427,-21.362631,6.286717,2.380407,0.006226,-0.018189,1.055436
1428,-14.282444,7.751583,2.502480,0.018799,-0.006470,1.057145
1429,-12.634470,9.338521,3.356985,0.005737,-0.009888,1.032853
1430,-10.437171,10.437171,3.723201,-0.008667,0.000610,1.013077
1431,-9.399557,9.765774,3.234913,-0.030762,0.029053,0.997574
1432,-11.108568,8.667124,2.929732,-0.010498,0.007080,1.007584
1433,-10.009918,7.995727,2.014191,-0.010376,-0.008057,1.030533
1434,-6.897078,7.751583,1.037613,-0.011841,-0.013916,1.019425
1435,-6.164645,7.507439,0.671397,-0.017700,0.004395,1.001846
1436,-5.859464,7.080186,0.549325,-0.017212,-0.000244,1.003555
1437,-5.004959,6.652934,0.549325,-0.016846,-0.007568,1.010513
1438,-4.211490,6.775006,0.854505,-0.017823,-0.016480,1.020768
1439,-1.770047,6.652934,1.037613,-0.027832,-0.011963,0.972549
1440,-1.281758,5.432212,0.976577,-0.044068,0.028809,0.947280
1441,-6.225681,2.624552,0.671397,-0.056397,0.020752,0.937270
1442,-9.521630,-0.732433,0.183108,-0.039429,0.004273,0.968154
1443,-10.620279,-2.258335,-0.427253,-0.049317,0.036988,1.105730
1444,-9.338521,-2.990768,-0.610361,-0.028199,-0.035035,1.012589
1445,-10.864424,-4.211490,-0.427253,-0.010864,-0.026856,0.987076
1446,-9.887846,-4.089418,-0.244144,-0.029419,-0.022950,1.009903
1447,-7.934691,-4.028382,-0.122072,-0.023438,-0.013428,0.998795
1448,-10.131991,-4.333562,0.305180,-0.014160,-0.012451,1.005264
1449,-10.681315,-3.234913,0.671397,-0.001587,-0.007202,0.992569
1450,-11.230640,-1.831083,0.122072,-0.018555,-0.011597,0.994034
1451,-14.038300,-2.380407,1.037613,-0.033082,0.005249,0.974868
1452,-16.418708,-3.173877,1.220722,-0.016846,-0.011597,0.955215
1453,-19.043259,-4.028382,1.403830,-0.034913,-0.009155,0.964370
1454,-22.278172,-5.432212,2.197299,-0.026978,-0.021241,0.977798
1455,-22.583352,-5.310140,2.502480,-0.031861,-0.019287,0.960708
1456,-24.414435,-6.042573,3.234913,-0.020020,-0.011597,0.969131
1457,-29.419394,-5.920500,4.211490,-0.010498,-0.025391,0.988663
1458,-31.860838,-5.249104,4.943923,-0.003906,-0.053346,1.026383
1459,-28.931106,-4.333562,4.455634,-0.009644,-0.046876,1.026139
1460,-27.893492,-3.784237,3.356985,0.002197,-0.021363,1.000992
1461,-30.273899,-2.502480,3.356985,-0.017334,-0.031739,0.997696
1462,-33.691920,-4.272526,1.831083,-0.035279,-0.028199,0.976822
1463,-34.485389,-5.981537,-0.488289,-0.064332,-0.017578,0.939467
1464,-37.842374,-9.155413,-1.281758,-0.073732,-0.037598,0.886244
1465,-47.669184,-11.474784,-0.976577,0.043824,-0.034180,1.000504
1466,-53.467613,-11.291676,0.122072,-0.041260,-0.081422,1.008682
1467,-51.697566,-6.408789,-1.953155,0.055909,-0.101564,0.992081
1468,-50.415808,-1.647974,-0.854505,-0.008911,-0.088746,1.023209
1469,-53.406577,-2.197299,-4.455634,-0.048341,-0.084230,1.016251
1470,-46.936751,0.427253,-9.216449,-0.035889,-0.129641,0.921401
1471,-50.476844,-2.868696,-20.508125,-0.031617,-0.159060,0.912367
1472,-61.890593,-1.281758,-30.151827,-0.118166,-0.136477,1.061051
1473,-88.807507,9.094377,-49.317159,0.053346,-0.250370,1.093278
1474,-55.725948,3.173877,-27.100023,0.167605,-0.413092,1.042618
1475,-29.602502,-4.943923,-11.474784,-0.040162,-0.081788,1.036027
1476,-48.340581,-4.577707,-22.888533,0.017334,0.033570,1.000381
1477,-76.539254,-1.892119,-20.996414,0.031617,0.099733,0.900771
1478,-108.583200,-1.464866,-12.207218,0.103395,0.059083,0.898329
1479,-127.931640,-2.380407,-5.676356,0.083864,0.322026,0.890028
1480,-161.867704,7.202258,-41.199359,0.200565,0.833997,1.058732
1481,-333.562219,16.601816,-61.341268,0.206546,0.532601,0.955825
1482,-549.568933,24.109255,4.028382,-0.088869,0.637705,1.999969
1483,-634.348058,8.545052,32.043946,-0.111208,-0.166018,1.390402
1484,-676.279850,-5.127031,39.124132,-0.022095,-0.395392,0.984756
1485,-720.103761,-21.911955,52.552071,-0.129030,-0.348882,0.790173
1486,-870.191501,-55.115587,106.569009,-0.738537,-1.908843,1.999969
1487,-617.441062,-77.393759,69.092851,-1.617090,-0.370123,1.999969
1488,11.352712,-105.592432,-27.649348,-0.680064,0.157107,1.999969
1489,151.003281,-89.173724,-18.249790,-0.619760,0.851087,1.999969
1490,25.329976,-77.332723,-2.807660,-0.318608,0.804578,1.999969
1491,-23.437858,-61.097124,43.701839,-0.431159,0.620737,1.999969
1492,92.042420,-14.343481,33.569848,-0.241215,0.482918,1.469505
1493,150.087739,3.234913,15.747311,-0.204227,0.527840,0.767224
1494,106.691081,-2.868696,20.141909,-0.161990,0.381231,0.696544
1495,117.860685,-5.920500,18.921187,-0.130617,0.213748,0.815076
1496,157.656214,-5.127031,11.963073,-0.065553,0.278935,0.732311
1497,156.069276,-8.178836,9.033341,-0.014282,0.301518,0.800427
1498,165.285725,-7.080186,4.211490,0.028321,0.256107,0.935317
1499,191.470207,-3.356985,-5.127031,0.054810,0.265141,0.964004
1500,203.738460,-2.441444,-12.573434,0.075929,0.260014,1.009659
1501,215.945678,-0.427253,-19.409476,0.034424,0.203738,1.130877
1502,234.317540,0.000000,-25.085832,-0.007080,0.138308,1.214862
1503,252.994583,2.258335,-29.724575,-0.049805,0.071412,1.256001
1504,267.277028,6.042573,-31.494621,-0.099733,-0.013428,1.312886
1505,281.986725,11.291676,-31.433585,-0.134646,-0.093629,1.315572
1506,295.536736,16.235599,-30.029755,-0.126345,-0.151003,1.295430
1507,301.640345,20.691234,-28.747997,-0.090211,-0.206546,1.222065
1508,304.997330,24.475471,-29.785611,-0.028565,-0.272221,1.090715
1509,296.025025,35.217823,-35.339895,0.033082,-0.472786,0.768688
1510,272.526131,55.420768,-39.307240,0.051270,-0.520882,0.590341
1511,233.340963,70.313573,-42.603189,0.120729,-0.481575,0.845960
1512,200.442512,63.050278,-43.762875,0.077516,-0.379400,1.371359
1513,200.625620,42.236973,-48.279545,0.145876,-0.298222,1.999969
1514,211.184863,41.016251,-55.054551,0.178470,-0.356695,1.999969
1515,236.575875,56.519417,-63.233387,0.198123,-0.520150,1.999969
1516,260.440986,76.661326,-74.036774,0.165042,-0.649912,1.976959
1517,244.083314,82.825971,-75.257496,0.021363,-0.678721,1.996612
1518,234.805829,70.374609,-70.679789,-0.031983,-0.818372,1.999969
1519,260.440986,66.529335,-67.505913,0.039551,-0.826307,1.999969
1520,269.047074,72.083619,-65.247578,0.090211,-0.788586,1.999969
1521,264.164187,76.722362,-61.707485,0.098268,-0.839124,1.807767
1522,268.070497,76.661326,-58.289464,0.064942,-0.835584,1.625513
1523,256.839857,65.735866,-51.880674,0.023560,-0.841810,1.624903
1524,250.492103,56.397345,-46.143282,0.003784,-0.921035,1.603662
1525,250.308995,57.373922,-42.969406,0.011353,-0.995865,1.471214
1526,234.378576,67.811093,-39.551385,-0.010010,-1.127214,1.235126
1527,212.832837,79.346914,-34.851606,-0.045533,-1.317403,1.013931
1528,187.380789,88.197147,-27.710384,-0.068482,-1.546044,0.790417
1529,152.956436,96.864271,-19.348440,0.029664,-1.820340,0.640269
1530,115.724422,107.789731,-12.695506,0.146731,-2.000031,0.544076
1531,81.483177,115.846494,-6.103609,0.202518,-2.000031,0.462898
1532,56.397345,107.789731,4.150454,0.219120,-2.000031,0.215579
1533,33.997101,73.243305,19.409476,0.175051,-2.000031,-0.078248
1534,-3.662165,17.395285,40.588998,0.053346,-1.660548,-0.197879
1535,-99.244678,-89.112688,54.932479,0.100099,-2.000031,-1.557519
1536,-237.003128,-208.560311,94.361791,0.758068,-1.631250,-0.489998
1537,-184.206912,-213.321126,73.304341,0.806165,-0.195193,1.502098
1538,-96.498054,-146.486610,35.034714,0.055665,1.152728,1.999969
1539,-126.527810,-101.930266,52.002747,-0.499886,0.888808,1.176654
1540,-223.636225,-125.978485,82.215610,-0.023438,0.086183,-0.538949
1541,-273.990997,-124.513619,83.436332,0.672129,-0.311162,0.364141
1542,-308.781567,-97.962921,80.018311,1.152239,-0.081056,1.999969
1543,-236.575875,-69.214923,56.824598,1.676539,-0.206546,1.999969
1544,-111.207752,-26.062409,4.577707,1.022843,-0.089479,1.815457
1545,-130.434119,-6.775006,-5.249104,-0.147707,0.046754,1.399435
1546,-162.050813,2.868696,17.212177,-1.044083,-0.286625,1.634791
1547,-125.795377,-30.273899,46.753643,-1.224872,-0.042481,1.545556
1548,-109.620813,-85.694667,59.632258,-0.276493,-0.095827,0.924819
1549,-107.484550,-112.306401,38.818952,1.598779,0.408698,1.999969
1550,-88.136110,-47.241932,12.512398,0.922744,-0.108522,1.284321
1551,-64.820325,-15.197986,-6.713970,-0.571786,0.118776,1.421897
1552,-92.896925,-57.434958,18.310826,-0.199466,0.144411,1.247700
1553,-54.871443,-46.204318,0.305180,0.496712,-0.079103,1.401633
1554,-39.978637,-27.893492,-2.868696,-0.044190,-0.044068,1.314351
1555,-36.438544,-30.029755,2.197299,0.071412,-0.058839,1.127825
1556,-12.817578,-21.118486,-3.723201,0.142336,0.024414,1.017105
1557,-31.677729,-15.747311,0.061036,0.040040,0.000977,1.084977
1558,-22.705425,-13.183795,1.403830,0.039673,-0.038453,1.113420
1559,-15.320058,-8.056764,2.868696,0.157595,0.035401,1.048966
1560,-19.836728,0.122072,3.234913,0.047852,0.025879,1.034195
1561,-16.174563,-0.488289,4.333562,-0.007935,0.014282,1.025162
1562,-16.540780,0.122072,3.906310,0.075563,0.020630,1.009171
1563,-21.972992,0.244144,2.746624,-0.008789,0.027955,1.038102
1564,-15.320058,-2.868696,2.807660,0.020386,0.011719,1.001846
1565,-16.296635,-2.075227,0.183108,0.007813,0.028809,0.954726
1566,-25.452049,-3.418021,-0.854505,0.022827,-0.032715,1.025284
1567,-20.080873,-2.624552,-0.488289,0.055177,-0.061646,1.040177
1568,-13.427939,-0.488289,0.488289,0.074220,-0.042725,1.055314
1569,-12.329290,2.075227,1.831083,0.064942,-0.046265,1.050797
1570,-8.972305,3.662165,2.319371,0.040528,-0.047486,1.025895
1571,-5.676356,4.394598,2.319371,0.063111,-0.120607,0.942641
1572,-7.690547,4.516670,2.380407,0.031617,-0.037232,1.003799
1573,-9.460594,4.028382,1.586938,0.035523,-0.066163,0.955459
1574,-9.948882,3.418021,1.342794,0.029664,-0.027344,0.996475
1575,-11.596857,2.441444,0.549325,0.025269,-0.076661,0.952895
1576,-11.535821,1.464866,0.183108,0.040772,-0.085573,0.958267
1577,-10.620279,0.732433,0.183108,0.037964,-0.086183,0.976944
1578,-10.620279,0.610361,0.305180,0.026612,-0.062013,1.013565
1579,-8.178836,0.244144,1.159686,0.031373,-0.053834,1.009171
1580,-7.202258,0.000000,1.342794,0.005737,-0.037964,1.010513
1581,-5.676356,-1.159686,0.976577,0.013062,-0.050416,0.986099
1582,-6.469825,-2.380407,0.122072,0.015381,-0.039063,0.999161
1583,-6.530861,-3.662165,-0.244144,0.018799,-0.031739,0.988174
1584,-4.821851,-4.943923,-0.854505,0.013550,-0.024781,0.961563
1585,-8.484016,-6.042573,-1.464866,0.022339,-0.022827,0.967788
1586,-12.268254,-6.775006,-1.464866,0.026856,-0.044434,0.988296
1587,-11.718929,-6.958114,-1.159686,0.037598,-0.059449,1.002090
1588,-8.972305,-6.652934,-0.244144,0.050294,-0.032837,1.007584
1589,-12.207218,-5.676356,-0.244144,0.059815,-0.046632,0.993545
1590,-14.343481,-3.784237,-0.427253,0.060426,-0.062623,1.029191
1591,-12.573434,-1.953155,-0.122072,0.050294,-0.067262,1.019913
1592,-12.573434,-0.854505,0.183108,0.049195,-0.070924,1.004410
1593,-13.061723,0.244144,-0.183108,0.050904,-0.002197,1.097185
1594,-14.770733,-0.793469,0.244144,0.007568,-0.084352,1.047501
1595,-7.263294,-1.709010,-0.122072,0.020630,-0.071412,0.960220
1596,-10.925460,-2.502480,-0.976577,0.032349,-0.033570,0.974136
1597,-15.136950,-3.112840,-1.525902,0.040650,-0.044800,0.971450
1598,-16.479744,-2.746624,-1.403830,0.042481,-0.053346,1.008316
1599,-21.484703,-1.525902,0.427253,0.071901,-0.081300,1.025284
1600,-19.348440,0.854505,2.685588,0.054932,-0.106325,1.015030
1601,-16.357671,2.380407,4.577707,0.042847,-0.086305,1.004898
1602,-19.409476,2.624552,5.432212,0.008789,-0.086671,1.006851
1603,-17.517357,1.586938,4.455634,0.002075,-0.057618,0.974014
1604,-22.522316,-0.366217,1.220722,0.031617,0.012940,0.954360
1605,-28.503853,0.854505,-1.709010,0.022583,0.016602,0.954482
1606,-49.439231,-0.732433,-6.530861,0.015015,-0.048585,0.979873
1607,-47.058824,-0.183108,-8.361944,0.029664,-0.101930,0.993545
1608,-43.579767,0.366217,-9.460594,0.040040,-0.119753,1.063981
1609,-44.739452,5.188067,-11.352712,0.029175,-0.132326,1.084367
1610,-37.048905,5.004959,-13.061723,-0.049561,-0.081788,1.002579
1611,-32.715343,0.732433,-20.691234,-0.008057,-0.197757,0.988052
1612,-40.955215,4.272526,-28.625925,0.049073,-0.057618,1.028458
1613,-47.852293,8.545052,-31.006332,0.139040,-0.287968,1.060075
1614,-27.405203,9.887846,-13.305867,0.223758,-0.318730,1.034806
1615,-17.029068,14.160372,13.427939,0.159060,-0.138552,1.095720
1616,-28.137636,22.034028,19.226368,0.020630,0.023926,0.989639
1617,-62.439918,28.503853,8.056764,-0.028199,0.241947,0.895766
1618,-113.282979,30.334936,-0.915541,-0.000977,0.269780,0.897719
1619,-153.810941,24.841688,-6.164645,-0.172488,0.241703,0.507698
1620,-150.576028,-15.686275,6.591897,-0.221439,0.175418,0.833875
1621,-231.998169,-14.953841,-17.395285,0.120729,0.790539,0.932998
1622,-374.334325,-23.559930,-47.791257,-0.186770,-0.085939,1.685451
1623,-487.800412,-112.672618,-4.638743,-0.827771,-0.259403,1.148333
1624,-598.336767,-190.920882,28.992142,-0.144533,-0.198734,1.031266
1625,-684.153506,-211.795224,66.956588,0.234501,-0.065797,0.969497
1626,-754.528115,-197.512779,72.816052,0.478035,-0.326909,1.250263
1627,-929.457542,-200.442512,157.839323,0.087282,-1.165789,1.999969
1628,-450.385290,-63.721675,96.742199,-0.629282,-0.330449,1.999969
1629,239.566644,14.526589,-70.069429,-0.005737,0.762219,1.999969
1630,356.206607,43.640803,-80.689708,-0.451301,1.156268,1.999969
1631,179.751278,35.339895,-80.384527,-0.495613,0.527352,0.961318
1632,28.870069,-21.667811,3.723201,-0.538460,0.430915,0.143191
1633,-0.671397,-28.809033,25.452049,-0.275517,0.108766,0.284184
1634,100.038148,1.831083,2.014191,-0.316777,0.008789,0.413214
1635,136.537728,15.686275,-0.366217,-0.137209,0.338994,0.265629
1636,86.305028,15.869383,3.234913,-0.060304,0.383917,0.501717
1637,87.525750,18.066682,-1.037613,-0.038575,0.301884,0.855482
1638,135.561151,24.048219,-11.596857,-0.026123,0.335943,0.981460
1639,152.590219,23.926146,-16.479744,-0.010498,0.374762,1.039811
1640,159.914549,23.193713,-18.493935,-0.060670,0.345953,1.215595
1641,185.671778,28.442817,-22.278172,-0.097292,0.206790,1.245869
1642,209.536889,34.607462,-23.620966,-0.123659,0.132937,1.267842
1643,224.429694,38.818952,-20.691234,-0.142458,0.033448,1.261128
1644,240.970474,44.007019,-16.113527,-0.104128,-0.001953,1.387472
1645,256.900893,49.500267,-11.474784,-0.002564,-0.019409,1.496361
1646,272.404059,55.420768,-12.695506,0.279057,-0.051392,1.605615
1647,283.024338,69.581140,-23.682002,0.447395,-0.164187,1.706813
1648,299.076829,87.891966,-38.513771,0.484382,-0.302007,1.658106
1649,311.039902,94.911116,-50.904097,0.480964,-0.448493,1.469993
1650,311.345083,93.629358,-59.937438,0.483528,-0.592538,1.163104
1651,295.414664,87.464714,-66.590372,0.469001,-0.778088,0.844739
1652,271.061265,80.811780,-67.811093,0.315923,-0.825940,0.699596
1653,239.505608,69.214923,-67.322805,0.273808,-0.853773,0.581308
1654,214.908064,52.674144,-65.247578,0.124636,-0.678965,0.624887
1655,175.844968,37.903410,-59.205005,0.038453,-0.477058,1.204364
1656,144.350347,33.997101,-51.026169,-0.059327,-0.404547,1.999969
1657,157.412070,42.725261,-45.044633,-0.122805,-0.452399,1.999969
1658,205.874723,61.280232,-41.199359,-0.159426,-0.547738,1.999969
1659,235.111009,81.361105,-33.691920,-0.212650,-0.629526,1.999969
1660,241.947051,96.803235,-21.728847,-0.236942,-0.747936,1.892119
1661,242.496376,104.371710,-7.507439,-0.196902,-0.801648,1.576440
1662,230.838483,108.888380,6.591897,-0.057130,-0.774426,1.455955
1663,215.518425,113.893339,17.090105,0.102785,-0.724010,1.505150
1664,202.151522,112.123293,24.170291,0.176638,-0.741711,1.641993
1665,199.893187,104.921035,28.992142,0.230228,-0.844495,1.631739
1666,203.189136,94.300755,31.311513,0.272221,-0.960464,1.419944
1667,194.155795,81.239033,31.433585,0.276738,-1.153826,1.144549
1668,176.211185,70.130465,29.358358,0.373541,-1.362936,1.004166
1669,148.867018,63.721675,17.761501,0.641855,-1.597314,1.130877
1670,124.208438,76.478218,-7.385367,0.845350,-1.938018,1.175433
1671,124.025330,111.879149,-39.307240,0.781872,-2.000031,0.629526
1672,123.048753,133.058671,-56.092164,0.471199,-2.000031,-0.308232
1673,63.538567,98.207065,-44.007019,-0.164920,-2.000031,-1.251484
1674,-63.782712,-37.109941,1.770047,-0.349737,-1.964141,-2.000031
1675,-195.559625,-192.263676,53.223468,0.294316,-1.839994,-0.836927
1676,-219.119554,-234.256504,49.683375,0.857679,-1.335103,0.501839
1677,-123.476005,-149.111162,20.935378,0.099733,0.264408,1.999969
1678,-116.884108,-92.164492,19.897765,-0.698985,0.800061,1.999969
1679,-162.233921,-81.116960,55.298695,-0.638193,0.527108,0.549203
1680,-228.641184,-101.258869,67.444877,-0.178836,-0.123537,-0.056519
1681,-257.816434,-86.976425,77.698940,0.343145,-0.151247,1.030777
1682,-282.108797,-77.882048,78.919661,1.366110,-0.118898,1.999969
1683,-216.678111,-37.415122,40.039673,1.653956,-0.078737,1.999969
1684,-130.922408,12.573434,-3.906310,0.911635,0.020020,1.695216
1685,-143.739986,31.311513,-11.535821,-0.720592,-0.058228,1.853788
1686,-180.788891,-23.743038,23.254749,-1.670314,-0.798230,1.946075
1687,-45.593957,-91.615167,38.452735,-0.243900,-0.109377,1.734890
1688,-42.053864,-99.549859,27.344167,1.564355,0.362066,1.999969
1689,-45.899138,-15.381094,7.629511,0.638804,0.064088,1.201923
1690,-56.092164,0.793469,-0.366217,-0.776867,-0.103151,1.018814
1691,-65.735866,-42.175937,17.090105,-0.125368,-0.063844,1.066667
1692,-27.588312,-36.621653,3.784237,0.318975,0.095827,1.241596
1693,-51.148241,-23.437858,0.549325,-0.018067,-0.056397,1.155291
1694,-36.682689,-25.757229,-0.305180,-0.073610,-0.122927,1.187030
1695,-1.342794,-24.414435,-3.173877,0.119265,0.049805,0.930190
1696,-33.813993,-19.287404,-1.220722,0.056275,0.023194,1.037736
1697,-34.119173,-16.357671,-0.183108,0.000855,-0.093996,1.133684
1698,-11.169604,-13.122759,-0.610361,0.074952,-0.010742,1.034195
1699,-20.325017,-9.887846,0.976577,0.035279,0.018677,1.002579
1700,-25.879301,-9.155413,1.770047,-0.007568,-0.024414,1.058122
1701,-16.174563,-8.361944,1.403830,0.050782,-0.025147,1.047623
1702,-17.212177,-5.371176,1.342794,0.027832,-0.026734,1.031998
1703,-16.357671,-5.127031,1.159686,-0.000610,-0.059449,1.039689
1704,-10.986496,-4.089418,0.000000,0.007813,-0.019409,1.007706
1705,-17.212177,-5.371176,0.427253,0.011597,-0.028809,1.014542
1706,-15.197986,-5.004959,-0.549325,0.004395,-0.052491,1.047379
1707,-11.718929,-4.272526,-0.305180,0.038819,-0.052247,1.040299
1708,-7.202258,-2.807660,0.366217,0.035889,-0.053956,1.031266
1709,-4.516670,-0.854505,0.976577,0.034913,-0.042237,1.043351
1710,-2.319371,0.244144,1.220722,0.020020,-0.026612,1.001968
1711,-2.868696,0.122072,1.342794,0.020264,-0.011597,0.967178
1712,-6.164645,-0.366217,1.220722,0.013672,0.002075,0.954971
1713,-9.887846,-1.159686,0.793469,0.018921,-0.011475,0.973892
1714,-14.465553,-1.220722,0.793469,0.023438,-0.040894,0.991470
1715,-11.474784,-0.854505,0.854505,0.018067,-0.023926,0.984512
1716,-15.625238,-0.549325,0.671397,0.022217,-0.012573,0.979141
1717,-19.287404,-0.061036,0.366217,0.029541,-0.044190,1.022110
1718,-17.639429,0.671397,0.732433,0.026734,-0.060060,1.023819
1719,-14.831769,1.159686,0.549325,0.008057,-0.045533,1.014664
1720,-15.014878,0.427253,0.000000,0.003784,-0.045167,1.004044
1721,-14.526589,-0.488289,-0.732433,0.013550,-0.054078,0.975235
1722,-15.259022,-1.037613,-0.976577,0.003906,-0.038819,0.978531
1723,-18.188754,-1.159686,-2.014191,0.009522,-0.031983,0.990616
1724,-22.156100,-0.610361,-2.685588,0.033936,-0.077516,1.036027
1725,-18.921187,1.831083,-2.563516,0.052369,-0.095705,1.056413
1726,-14.831769,4.760815,-1.403830,0.046265,-0.092775,1.048844
1727,-13.183795,6.530861,0.000000,0.038331,-0.103639,1.041886
1728,-8.850233,7.873655,1.037613,0.027222,-0.092775,1.037736
1729,-6.591897,8.239872,1.586938,0.024659,-0.097292,1.033463
1730,-5.004959,8.300908,1.892119,0.007813,-0.104616,1.031388
1731,1.220722,7.812619,1.709010,-0.020142,-0.076173,0.985245
1732,-0.061036,5.004959,1.098650,-0.025025,-0.061280,0.963516
1733,-2.258335,2.502480,0.305180,-0.015381,-0.066407,0.968765
1734,-3.234913,0.976577,0.244144,-0.000366,-0.054078,0.967910
1735,-6.591897,0.427253,-0.122072,0.013428,-0.041382,0.984512
1736,-11.963073,1.037613,-0.427253,0.015503,-0.056641,1.000015
1737,-13.183795,2.014191,0.305180,0.025147,-0.085939,1.007950
1738,-12.939651,3.295949,1.709010,0.021729,-0.084108,1.018082
1739,-13.000687,3.845274,2.563516,0.009888,-0.094972,1.024674
1740,-10.803388,3.723201,2.441444,-0.007202,-0.099611,1.023087
1741,-8.728161,3.173877,2.319371,-0.005127,-0.095705,0.997452
1742,-8.239872,1.953155,2.136263,-0.019287,-0.095827,0.998428
1743,-6.408789,-0.488289,1.464866,-0.030518,-0.095216,0.979629
1744,-6.652934,-3.234913,0.427253,-0.008179,-0.082643,0.983902
1745,-6.958114,-4.760815,-0.854505,-0.015259,-0.090333,0.973281
1746,-7.446403,-6.408789,-2.014191,-0.002808,-0.084108,0.988540
1747,-9.155413,-6.958114,-2.502480,0.006226,-0.101442,1.003799
1748,-7.263294,-6.897078,-2.807660,0.016236,-0.100710,1.020890
1749,-7.141222,-5.981537,-2.441444,0.025269,-0.104982,1.024918
1750,-5.920500,-4.455634,-1.831083,0.029541,-0.117189,1.048356
1751,-1.770047,-3.112840,-1.159686,0.021241,-0.101930,1.022232
1752,-2.807660,-2.136263,-0.732433,0.018677,-0.091066,1.009537
1753,-3.479057,-1.464866,-0.244144,0.024903,-0.092653,0.999527
1754,-2.990768,-1.342794,-0.122072,0.000000,-0.062989,0.965347
1755,-7.324331,-1.464866,0.793469,0.032715,-0.041871,0.979507
1756,-15.869383,0.610361,1.403830,0.012696,-0.076173,0.973770
1757,-17.578393,1.831083,2.075227,0.041138,-0.079469,0.996231
1758,-19.958801,4.150454,3.051804,0.023316,-0.073610,0.990738
1759,-25.635157,5.188067,4.333562,0.030640,-0.089479,0.988296
1760,-26.550698,6.530861,5.920500,0.010498,-0.084352,1.000748
1761,-28.992142,7.446403,6.347753,0.011963,-0.099611,1.010269
1762,-29.419394,8.239872,6.469825,0.001099,-0.084596,0.986831
1763,-26.855879,9.094377,3.906310,-0.002075,-0.087892,0.979385
1764,-31.067369,8.850233,0.000000,-0.031373,-0.068605,0.966323
1765,-37.476158,6.775006,-6.652934,-0.075441,-0.111940,0.994156
1766,-38.208591,3.356985,-14.343481,-0.106203,-0.099001,1.043107
1767,-37.598230,0.976577,-26.855879,-0.078126,-0.107424,1.057511
1768,-40.161746,-0.305180,-37.232013,0.029297,-0.263676,1.116838
1769,-42.420081,0.244144,-27.893492,-0.038453,-0.197513,0.993545
1770,-42.664225,-8.056764,-20.386053,0.016358,-0.003052,0.915419
1771,-70.557717,-9.338521,-17.822538,0.098024,-0.086793,0.989029
1772,-83.558404,0.244144,-8.545052,0.054566,0.038575,0.904921
1773,-102.052338,-1.525902,-11.352712,-0.004273,-0.131350,0.984756
1774,-119.447623,-1.770047,-8.728161,-0.006226,-0.229862,1.063249
1775,-99.305715,-11.841001,-10.925460,0.027955,0.144533,0.970596
1776,-179.201953,-5.432212,-11.779965,0.073121,-0.002686,0.903578
1777,-238.284886,-16.357671,2.319371,-0.141970,-0.112062,1.083635
1778,-274.418250,-21.484703,0.732433,-0.029541,-0.328252,1.176776
1779,-277.286946,-39.551385,0.854505,-0.314580,-0.279179,1.086564
1780,-312.626841,-87.281605,9.277485,-0.286992,-0.186282,0.836561
1781,-363.164721,-130.006867,28.442817,-0.136477,-0.361212,1.044205
1782,-350.591287,-158.937972,40.100710,0.052735,0.023316,1.872953
1783,-303.898680,-134.950790,56.702525,-0.149905,-0.344732,1.999969
1784,-260.563058,-93.629358,82.032502,-0.657603,0.104005,1.999969
1785,88.319219,-21.728847,11.169604,-0.162844,0.118288,1.999969
1786,244.205386,40.344854,-24.292363,-0.276738,0.677623,1.012833
1787,124.940871,44.129091,10.070954,-0.369512,0.400031,0.317510
1788,31.067369,21.850919,33.630884,-0.296513,-0.025147,0.287236
1789,107.667659,27.466239,31.921874,-0.234867,-0.037232,0.465095
1790,130.739300,16.540780,31.372549,-0.091066,0.192020,0.509651
1791,100.099184,2.014191,37.170977,0.001587,0.163821,0.818738
1792,133.607996,1.586938,28.137636,0.094850,0.170047,1.094133
1793,163.210498,11.413748,13.977264,0.148440,0.216800,1.115251
1794,173.403525,23.376822,2.075227,0.150271,0.150393,1.030411
1795,192.446784,34.790570,-10.498207,0.108766,0.058473,0.830457
1796,199.710079,38.574807,-18.616007,0.074464,-0.004028,0.673106
1797,195.315480,34.607462,-21.972992,0.007080,-0.098634,0.709239
1798,194.705119,28.564889,-21.972992,-0.105104,-0.213993,0.838758
1799,195.681697,23.682002,-16.662852,-0.243046,-0.300786,1.036149
1800,196.719310,21.850919,-7.507439,-0.264897,-0.382696,1.223163
1801,201.968414,25.818265,2.014191,-0.234867,-0.467048,1.391989
1802,210.147250,33.569848,10.742351,-0.200076,-0.553475,1.438254
1803,218.814374,41.565576,18.738079,-0.182864,-0.638071,1.339376
1804,216.311894,49.622339,25.268940,-0.108522,-0.734874,1.218891
1805,208.560311,56.641489,33.142596,-0.014771,-0.831189,1.031510
1806,192.385748,59.571221,39.063096,0.139651,-0.911025,0.898207
1807,169.680324,59.266041,43.762875,0.255863,-0.924086,0.936782
1808,151.247425,51.148241,44.068055,0.369268,-0.902358,0.944961
1809,138.551919,42.664225,36.255436,0.473152,-0.830335,0.920424
1810,124.879835,34.851606,26.611734,0.507820,-0.674327,0.792859
1811,102.540627,23.132677,14.831769,0.466560,-0.577035,0.839246
1812,82.154574,15.075914,3.601129,0.338018,-0.570443,1.005753
1813,72.755016,10.742351,-5.798428,0.159548,-0.590829,1.144671
1814,62.623026,7.263294,-10.620279,-0.026490,-0.704967,1.117937
1815,58.472572,11.718929,-12.939651,-0.132448,-0.803113,0.890272
1816,40.588998,26.184482,-11.596857,-0.218143,-0.878920,0.607309
1817,-28.686961,-0.732433,-2.380407,-0.650767,-1.711940,-1.274800
1818,-140.077821,-132.265202,44.373236,-0.008301,-1.377096,0.390143
1819,-261.844816,-133.180743,48.523690,1.910796,-1.339132,1.999969
1820,-144.228275,-16.418708,-7.751583,1.204730,-1.973175,1.999969
1821,239.017319,46.204318,-20.202945,-0.505013,-0.055543,1.725368
1822,187.075608,39.063096,-48.828870,-0.405524,0.647593,0.140993
1823,17.517357,11.841001,13.305867,-0.017456,0.920424,0.170169
1824,-152.895399,-22.644388,20.080873,-0.052857,0.389532,0.916884
1825,-83.314260,-1.037613,15.991455,-0.147463,-0.061280,1.468772
1826,-7.507439,3.173877,-1.220722,-0.059205,-0.024292,1.274922
1827,-13.305867,-0.793469,-0.671397,-0.083497,0.008301,0.935683
1828,-11.108568,-5.371176,-0.183108,-0.069093,0.055787,0.972915
1829,-15.442130,-6.836042,0.305180,0.019532,0.046632,1.016007
1830,-17.822538,-5.493248,0.671397,-0.031617,0.002686,1.048844
1831,-8.728161,-5.249104,-0.122072,-0.043946,0.033326,1.000015
1832,-12.085145,-6.713970,-0.366217,-0.021118,0.016846,1.005020
1833,-10.742351,-6.408789,-0.366217,-0.018067,0.001099,1.052750
1834,-6.591897,-4.821851,-0.427253,-0.008057,0.004395,1.036149
1835,-5.371176,-3.418021,0.000000,-0.012329,0.013428,1.028336
1836,-3.540093,-2.441444,0.061036,-0.014160,0.025635,1.014176
1837,-3.479057,-1.892119,0.061036,-0.025757,0.033448,0.992325
1838,-5.432212,-2.014191,0.183108,-0.028809,0.027710,0.994034
1839,-5.554284,-2.197299,0.183108,-0.019409,0.018067,1.004166
1840,-4.699779,-2.136263,0.366217,-0.018067,0.016968,0.999893
1841,-5.249104,-1.953155,0.427253,-0.014527,0.020630,0.997208
1842,-4.882887,-2.136263,-0.366217,-0.027100,0.009644,0.993912
1843,-5.493248,-2.990768,-0.183108,-0.018555,0.018189,0.999283
1844,-5.127031,-2.502480,0.000000,-0.012573,0.010132,1.024796
1845,-2.319371,-1.770047,0.000000,-0.011475,0.021729,0.998062
1846,-4.089418,-1.281758,0.000000,-0.007202,0.028199,0.988418
1847,-5.859464,-0.610361,0.366217,-0.017578,0.014405,1.012467
1848,-3.540093,0.427253,0.305180,-0.045045,0.057862,1.045182
1849,-3.845274,-1.098650,1.586938,-0.014771,0.090089,0.979629
1850,-8.117800,-0.854505,0.549325,-0.032471,-0.016724,0.975235
1851,-4.699779,-1.647974,-0.183108,-0.022827,0.008789,1.017594
1852,-5.798428,-2.197299,-0.183108,-0.024537,0.000732,1.000992
1853,-4.333562,-2.197299,-0.183108,-0.020386,0.003784,1.019913
1854,-2.624552,-1.892119,-0.427253,-0.008423,0.009033,1.012833
1855,-2.807660,-1.342794,-0.183108,-0.009033,-0.010132,1.021744
1856,-0.366217,-0.366217,0.000000,-0.015381,-0.007080,1.015885
1857,0.427253,-0.183108,0.000000,-0.022827,0.019776,0.981582
1858,-1.586938,-0.549325,0.122072,-0.015381,0.020020,0.978775
1859,-3.234913,-1.098650,0.244144,-0.018677,0.012085,0.999161
1860,-3.112840,-1.037613,0.244144,-0.007202,0.010986,1.003433
1861,-3.662165,-0.488289,0.488289,-0.017090,0.003418,1.004410
1862,-3.784237,-0.610361,0.427253,-0.025757,0.003906,1.001480
1863,-3.784237,-0.854505,0.244144,-0.019287,-0.000122,1.015640
1864,-2.807660,-0.732433,0.122072,-0.020020,-0.002441,1.015763
1865,-1.464866,-0.671397,0.061036,-0.016846,0.002808,1.010880
1866,-0.610361,-0.549325,0.000000,-0.018311,-0.002930,1.013321
1867,0.610361,-0.305180,0.000000,-0.021241,0.011475,0.989273
1868,-0.122072,-0.915541,0.000000,-0.016968,0.016358,0.977676
1869,-1.770047,-1.709010,-0.183108,-0.027588,0.024414,0.959365
1870,-4.943923,-2.746624,-0.305180,-0.024781,0.028565,0.961074
1871,-7.873655,-3.662165,-0.427253,-0.021973,0.012573,0.977676
1872,-8.972305,-3.906310,-0.793469,-0.013062,-0.008911,1.014786
1873,-7.385367,-4.089418,-0.732433,-0.015503,-0.011353,1.015274
1874,-5.310140,-3.723201,-0.732433,-0.012329,-0.008789,1.016373
1875,-4.516670,-3.356985,-0.549325,-0.011353,-0.002564,1.013931
1876,-3.418021,-3.173877,-0.610361,-0.016480,-0.002319,1.001846
1877,-4.028382,-3.418021,-0.854505,-0.010864,-0.001587,0.995865
1878,-3.967346,-3.295949,-0.976577,-0.001953,-0.011963,1.022721
1879,-2.502480,-2.563516,-1.159686,0.000977,-0.011719,1.031754
1880,-0.976577,-1.464866,-0.732433,0.008179,-0.015747,1.020401
1881,0.488289,-0.183108,-0.122072,0.003418,-0.008667,1.012100
1882,0.976577,0.671397,0.122072,-0.005737,-0.012696,1.003799
1883,1.403830,1.098650,0.183108,-0.004273,-0.008545,1.007462
1884,1.770047,1.220722,0.061036,-0.002319,-0.005249,1.013199
1885,2.014191,1.342794,-0.122072,-0.009400,-0.010986,1.015152
1886,3.356985,1.342794,-0.305180,-0.009277,-0.006836,1.013565
1887,3.479057,1.159686,-0.488289,-0.009522,-0.003784,1.007828
1888,3.906310,1.342794,-0.549325,-0.005249,-0.012573,1.019059
1889,5.249104,2.014191,-0.488289,-0.004883,-0.013672,1.018692
1890,6.164645,2.746624,-0.305180,-0.003296,-0.017578,1.033829
1891,9.277485,3.906310,0.000000,-0.008057,-0.011963,1.038834
1892,10.864424,4.333562,0.122072,-0.014160,0.000000,1.004898
