Packet number,Gyroscope X (deg/s),Gyroscope Y (deg/s),Gyroscope Z (deg/s),Accelerometer X (g),Accelerometer Y (g),Accelerometer Z (g)
0,0.30518,0.244144,0.061036,-0.010864,0.016236,0.991592
2,0.122072,0.122072,0.061036,-0.013184,0.004517,0.9959870000000001
4,-0.854505,0.061036,0.0,-0.015137000000000001,0.006714,0.9994049999999999
6,-0.793469,0.0,0.0,-0.011231,0.012573,0.994766
8,-0.48828900000000003,-0.183108,0.0,-0.003906,0.015747,1.009781
10,0.366217,0.122072,0.0,-0.008179,0.010498,0.9946440000000001
12,0.366217,0.122072,0.0,-0.006836,0.010498,1.0057530000000001
14,0.183108,-0.183108,0.0,-0.003052,0.022461000000000002,0.9911040000000001
16,0.183108,0.0,0.0,-0.004028,0.004761,0.9987950000000001
18,-0.427253,-0.671397,0.0,-0.000977,0.012206999999999999,1.006485
20,-0.427253,-0.6103609999999999,0.0,-0.0051270000000000005,0.015503,1.022843
22,-0.793469,-0.244144,0.0,-0.005371,0.0021969999999999997,1.010513
24,-0.244144,0.061036,0.0,-0.024903,0.004761,0.9980620000000001
26,0.183108,0.183108,0.0,-0.013672,0.0074459999999999995,0.994034
28,-0.061036,-0.30518,-0.122072,0.000122,0.007568000000000001,0.996475
30,0.6103609999999999,-0.244144,-0.183108,0.00415,0.025391,1.0000149999999999
32,1.159686,0.0,-0.122072,-0.008179,0.023438,0.98793
34,1.037613,0.061036,-0.183108,-0.005615,0.007324,0.9976959999999999
36,0.0,0.122072,0.0,-0.000366,0.008179,1.005875
38,-1.281758,-0.427253,0.122072,0.008789,0.004761,1.0215
40,-0.732433,-0.061036,0.0,-0.006226,0.010742,1.003067
42,-0.244144,-0.061036,-0.122072,-0.004028,0.012695999999999999,0.9896389999999999
44,-0.244144,-0.30518,-0.122072,-0.010742,0.010131999999999999,0.9956209999999999
46,-0.427253,-0.366217,-0.183108,-0.0070799999999999995,0.013672,1.0036770000000002
48,-0.061036,-0.183108,0.0,-0.006958,0.009522,0.9948879999999999
50,-0.30518,-0.366217,0.061036,-0.009522,0.008789,0.999527
52,-0.48828900000000003,-0.427253,0.0,-0.00415,0.000366,1.016861
54,0.854505,0.122072,0.061036,-0.01355,0.010864,0.9868309999999999
56,1.037613,-0.793469,0.061036,-0.012695999999999999,0.015015,1.006851
58,1.70901,-0.48828900000000003,-0.122072,-0.028199000000000002,0.004028,0.949233
60,1.953155,-1.647974,-0.122072,-0.011719,0.005005,1.00795
62,3.295949,-2.014191,-0.366217,-0.005005,0.010498,1.01442
64,5.859464,-1.281758,-0.366217,0.002441,0.006714,1.016983
66,9.52163,-1.281758,-0.122072,0.018677000000000003,0.024781,1.00502
68,6.530861,-1.525902,-0.122072,-0.005371,0.018067,1.001846
70,5.981537,-1.8921189999999999,-0.30518,-0.008911,0.030639999999999997,0.9834129999999999
72,5.737392,-1.70901,-0.244144,0.0023190000000000003,0.025147,1.002579
74,5.61532,-1.09865,0.183108,-0.003906,0.037110000000000004,0.989273
76,4.333562000000001,-1.40383,0.244144,-0.0058590000000000005,0.034546,0.993423
78,5.065995,-1.586938,0.0,-0.00293,0.040527999999999995,0.975967
80,3.173877,-2.136263,-0.122072,0.0063479999999999995,0.036133,0.9911040000000001
82,2.624552,-1.281758,0.061036,-0.000244,0.036133,0.992325
84,2.80766,-1.647974,0.30518,0.004028,0.030396,0.985611
86,1.8310830000000002,-1.7700470000000001,0.427253,-0.011963,0.039796,0.980728
88,1.464866,-2.50248,0.976577,-0.002441,0.035035000000000004,1.010758
90,1.953155,-3.295949,0.48828900000000003,0.011231,0.05139199999999999,0.962051
92,-2.624552,-2.319371,0.366217,0.016724,0.039550999999999996,0.989517
94,-0.30518,-0.732433,0.671397,-0.000488,0.037964,1.0057530000000001
96,2.075227,-0.732433,0.793469,0.014649,0.022461000000000002,1.003311
98,2.197299,-1.8921189999999999,0.122072,-0.000244,0.066651,0.976822
100,1.159686,-2.563516,-0.793469,0.014893,0.05127,0.981216
102,-2.4414439999999997,-1.586938,-0.366217,0.031006,0.04004,1.026017
104,-0.30518,1.953155,0.366217,0.009766,0.045411,0.9980620000000001
106,-1.037613,1.40383,0.427253,0.0037840000000000005,0.032715,1.009415
108,1.586938,0.732433,0.0,0.011353,0.030274000000000002,1.0112459999999999
110,1.342794,0.427253,-0.48828900000000003,0.001465,0.07128999999999999,0.980728
112,-1.586938,0.48828900000000003,-0.183108,0.013184,0.054322,0.976822
114,-4.455634,1.953155,0.0,0.029664,0.034791,1.016129
116,-5.188067,4.089418,0.732433,0.0035399999999999997,0.041138,1.0000149999999999
118,-5.3101400000000005,3.295949,0.549325,-0.010742,0.033814,0.997452
120,-4.333562000000001,1.342794,0.122072,-0.007691,0.02356,1.00441
122,-2.929732,0.732433,-0.366217,-0.008911,0.03418,0.996841
124,-1.70901,0.671397,-0.183108,-0.004517,0.031127999999999996,0.993057
126,-1.09865,-0.244144,0.0,-0.00061,0.019898,1.0080719999999999
128,0.30518,-0.244144,0.122072,-0.001953,0.029907999999999997,0.9969629999999999
130,-0.427253,-1.40383,0.48828900000000003,-0.016358,0.043824,0.9587549999999999
132,-4.760815,-3.295949,0.48828900000000003,-0.001099,0.041627,0.9708399999999999
134,-7.507439,-4.699779,0.122072,0.001099,0.019898,0.9986719999999999
136,-4.943923000000001,-4.21149,0.061036,-0.00061,0.017578,1.0196690000000002
138,-2.868696,-4.089418,0.244144,0.021241,-0.002075,1.01442
140,-0.9155409999999999,-3.784237,0.427253,0.004639,0.043091000000000004,0.959731
142,-5.981537,-5.493248,0.732433,0.008789,0.035035000000000004,0.9788969999999999
144,-9.643702000000001,-4.577707,1.159686,0.022461000000000002,0.015747,0.9948879999999999
146,-8.972305,-4.089418,1.525902,0.007691,0.022827,0.980117
148,-8.1178,-4.760815,1.09865,0.006226,0.003906,1.010025
150,-8.667124000000001,-5.065995,1.647974,0.021485,0.0063479999999999995,0.9987950000000001
152,-12.756542,-6.775005999999999,2.2583349999999998,-0.003052,0.033448,0.9229879999999999
154,-24.170291,-10.437171000000001,3.234913,0.020386,0.012695999999999999,0.98024
156,-24.96376,-8.484016,2.80766,0.037598,0.025025,1.011124
158,-25.757229000000002,-3.784237,2.929732,0.045288999999999996,0.022095,1.043839
160,-25.085832,-2.136263,2.685588,0.023194,-0.002075,0.996841
162,-24.902724,-2.685588,1.647974,0.03003,-0.00647,1.000748
164,-47.180896000000004,2.868696,1.09865,-0.035889,0.038452999999999994,0.905409
166,-49.256122999999995,2.50248,3.723201,0.00061,-0.05359,1.008316
168,-51.33135,7.446403,1.8310830000000002,0.017578,-0.064088,0.999283
170,-36.072328000000006,10.193027,-3.723201,-0.06713999999999999,-0.024048,1.091691
172,-55.786984,13.000687,-31.555657,0.012695999999999999,-0.043702,0.890394
174,-50.415808,9.216449,-18.738079,0.083497,-0.135378,1.051164
176,-74.891279,2.50248,-11.657893,0.061036,-0.163577,1.020645
178,-66.529335,3.356985,-3.295949,0.086549,0.055665,0.8864879999999999
180,-135.866331,3.295949,-0.244144,0.070924,-0.06286699999999999,1.0215
182,-193.423362,12.32929,-43.396658,-0.138918,0.166995,1.151263
184,-369.756619,42.786297,-15.259022,0.255741,0.322515,1.9627990000000002
186,-460.883497,88.075074,-10.376135000000001,-0.032105,-0.049683,1.439841
188,-578.133822,99.183642,111.879149,-2.0000310000000003,0.564218,1.9999689999999999
190,202.700847,13.855192,23.926146,-0.648325,0.45960200000000007,1.9999689999999999
192,-67.505913,-20.935378,69.336996,0.343023,0.797986,0.607065
194,18.554971,6.71397,-20.569162,0.8531620000000001,0.696056,0.593515
196,-23.620966,7.9957270000000005,-74.402991,0.523323,0.6461279999999999,1.1117110000000001
198,53.223468000000004,-17.578393,-100.58747199999999,0.066896,0.625376,1.135515
200,101.625086,-43.335622,-92.896925,-0.169558,0.46814700000000004,1.223407
202,136.232548,-28.870069,-80.079347,-0.27393,0.363775,1.268818
204,173.830777,0.732433,-60.059509999999996,-0.394049,0.252811,1.168109
206,197.81796,2.685588,-30.701152,-0.328862,0.171878,0.98146
208,211.062791,-8.667124000000001,-11.657893,-0.08569500000000001,0.18677,1.227924
210,233.64614300000002,1.342794,-17.456321,0.109499,0.175296,1.4301979999999999
212,245.120928,30.823224,-35.034714,0.13257,-0.08069,1.198016
214,223.514153,56.031128,-41.382467,0.069093,-0.225834,0.981582
216,196.16998600000002,54.322118,-37.048905,0.047363999999999996,-0.103273,1.601587
218,207.156481,51.514458000000005,-30.701152,0.061402,-0.25684,1.9999689999999999
220,229.98397799999998,44.251164,-31.494621000000002,0.075807,-0.437751,1.773709
222,228.64118399999998,29.48043,-33.447776,-0.037354000000000005,-0.573739,1.9999689999999999
224,241.092546,30.457008000000002,-34.119172999999996,-0.039796,-0.659068,1.731106
226,221.68307000000001,44.3122,-32.837415,0.040772,-0.728283,1.451926
228,196.963455,50.354772,-26.123445,0.090455,-0.855726,1.326192
230,169.619287,54.016938,-24.231327,0.215946,-1.2238959999999999,1.296651
232,135.866331,73.12123299999999,-44.434272,0.42066099999999995,-1.8439,0.8372930000000001
234,85.755703,118.654154,-58.838788,0.07910299999999999,-2.0000310000000003,-0.189578
236,-27.466239,33.752956,2.014191,-0.572641,-2.0000310000000003,-2.0000310000000003
238,-175.234607,-186.343175,90.516518,0.380011,-1.5285879999999998,0.13904
240,-212.52765699999998,-69.520104,80.140383,-0.031983,-0.493904,1.038224
242,-190.310521,-80.262455,68.665599,1.047868,0.711803,1.7451439999999998
244,-234.256504,-40.833143,28.870069,1.011002,-0.107424,1.547631
246,-182.742046,1.525902,-2.014191,-0.153811,-0.38464899999999996,1.9999689999999999
248,-107.972839,-57.312886,38.330663,-1.147723,-0.21899699999999997,1.551415
250,-34.973678,-79.041733,17.456321,1.9333790000000002,0.397467,1.9999689999999999
252,-43.152514000000004,2.929732,-3.845274,-0.8766,-0.10998699999999999,1.104509
254,-10.620279,-26.611734000000002,-2.380407,0.39661199999999996,0.142214,1.214984
256,-17.883574,-8.606088,0.976577,-0.010864,-0.014771000000000001,1.162982
258,-26.367590000000003,-7.324331,0.0,0.00415,0.096559,0.965957
260,-11.352712,-5.371176,0.0,0.065675,0.024659,1.073014
262,-15.075914000000001,-2.319371,1.2207219999999999,0.031006,0.039429,1.069108
264,-6.164645,0.976577,1.8310830000000002,0.021729,0.06006,0.991592
266,-9.277485,0.854505,2.014191,-0.052735000000000004,0.161379,1.171527
268,-9.82681,-3.418021,1.70901,-0.005737,0.019532,0.986099
270,-5.676356,-3.234913,1.342794,0.013184,0.027222000000000003,1.030533
272,-4.21149,-2.990768,1.342794,0.008301000000000001,0.046754000000000004,1.000137
274,-2.929732,-2.50248,1.647974,0.018677000000000003,0.115969,1.0031889999999999
276,-3.90631,-1.037613,1.40383,-0.002686,0.041871,1.021622
278,-1.037613,-1.525902,0.9155409999999999,0.019653999999999998,-0.031861,0.9796290000000001
280,0.976577,-1.647974,0.671397,-0.014527000000000002,0.06067,0.996841
282,-2.380407,-3.418021,0.732433,0.000732,0.053956,0.9817040000000001
284,-3.540093,-4.638743,1.09865,0.005371,0.036744,0.9705959999999999
286,-3.540093,-5.981537,0.48828900000000003,0.013916,0.028808999999999998,0.969131
288,-8.178836,-7.812619000000001,0.9155409999999999,0.004517,0.052003,0.962051
290,-11.596857,-8.42298,1.037613,0.0063479999999999995,0.060792,0.92665
292,-24.231327,-10.681315,1.8310830000000002,0.04358,0.023316,1.0047760000000001
294,-24.597542999999998,-8.42298,1.70901,0.043336,0.021729,0.9903719999999999
296,-26.794842,-6.164645,1.586938,0.038575,0.008911,1.013199
298,-28.137635999999997,-7.080186,1.525902,0.002686,-0.0037840000000000005,0.9803620000000001
300,-27.527276,-7.568475,2.4414439999999997,0.046021,-0.0063479999999999995,0.987808
302,-24.780652,-5.065995,4.333562000000001,0.03772,0.0031739999999999997,0.985733
304,-33.69192,-3.295949,3.1128400000000003,-0.038331,0.0008550000000000001,0.9487450000000001
306,-61.097124,-0.48828900000000003,0.732433,-0.067018,0.033448,0.995743
308,-46.021209999999996,-0.9155409999999999,-7.812619000000001,-0.029664,0.0365,1.0599530000000001
310,-69.58114,0.9155409999999999,-33.38674,-0.031983,0.063355,1.070329
312,-69.58114,0.671397,-37.415122,0.270756,-0.26807,1.078141
314,-65.918975,16.357671,6.71397,0.112673,0.152224,1.047379
316,-141.847868,36.072328000000006,-6.591897,0.026246,0.349371,0.813611
318,-206.607156,-27.283131,0.122072,-0.11084200000000001,0.741711,0.7540399999999999
320,-579.415579,-73.975738,-30.884259999999998,-0.772839,-0.16430899999999998,1.2916459999999998
322,-802.990768,-149.66048700000002,40.772107,0.317632,0.037964,1.235492
324,-868.1773099999999,-3.784237,149.050126,-0.731579,0.386725,1.9999689999999999
326,415.411612,89.356832,-103.334096,-0.907118,0.886122,1.9999689999999999
328,-0.061036,-39.368276,28.625925,-0.8559700000000001,0.308354,-0.248417
330,100.64850799999999,-88.258183,39.30724,-0.30249499999999996,0.20288399999999998,0.564218
332,45.654994,-15.259022,32.349126,-0.088624,0.41113900000000003,0.721935
334,92.530709,58.10635500000001,6.836042,-0.17761500000000002,0.46741400000000005,0.626474
336,113.64919499999999,53.101395999999994,13.733120000000001,-0.246952,0.35938000000000003,1.063615
338,154.116121,44.739452,26.001373,-0.219608,0.299199,1.420554
340,215.823606,37.415122,39.612421000000005,-0.16125699999999998,0.17322,1.4142059999999999
342,256.16846,13.550010999999998,47.241932,0.019287000000000002,0.07776,1.396994
344,280.704967,16.540779999999998,37.29305,0.176516,0.007324,1.381857
346,286.869612,35.278859000000004,16.906996,0.215457,-0.11389300000000001,1.263203
348,273.624781,48.401617,-1.647974,0.126101,-0.214115,1.1311209999999998
350,238.956283,70.862898,-14.099336,0.045288999999999996,-0.268315,1.334859
352,219.241627,86.488136,-19.226368,0.021485,-0.24853899999999998,1.9999689999999999
354,239.017319,86.73228,-19.226368,-0.021118,-0.38172,1.9999689999999999
356,280.399786,58.167391,-17.212177,0.121218,-0.6143890000000001,1.9999689999999999
358,289.188983,38.635843,-28.137635999999997,0.252811,-0.8682989999999999,1.819852
360,261.295491,41.565576,-38.69688,0.169192,-1.032609,1.410056
362,219.18059100000002,32.959487,-36.682689,0.048951,-1.400412,1.227924
364,172.182803,21.667811,-35.217822999999996,0.330449,-2.0000310000000003,0.8451059999999999
366,121.15663400000001,42.359045,-78.248264,0.656748,-2.0000310000000003,0.34668499999999997
368,44.61738,33.630884,-70.55771700000001,-0.0008550000000000001,-2.0000310000000003,0.027955
370,-11.047532,-47.913329,-5.249104,-0.614023,-1.8446330000000002,-0.324102
372,-169.74136000000001,-216.983291,59.449149,0.083986,-1.939239,-0.092287
374,-162.294957,-27.100022999999997,55.420768,-0.23035,-0.327764,0.486946
376,-303.532464,-74.64713499999999,75.074388,1.048966,0.512825,1.9999689999999999
378,-249.942779,-29.114214,12.268253999999999,1.4565649999999999,-0.431159,1.9999689999999999
380,-168.581674,-60.18158199999999,23.254749,-1.380148,-1.208759,1.9999689999999999
382,-71.29015,-119.447623,39.368276,0.8686659999999999,0.5570149999999999,1.571069
384,-61.219196,-13.244831,6.103609,-0.558968,-0.14648699999999998,1.5741209999999999
386,-32.715343,-55.664912,8.178836,0.538094,0.235843,1.4369120000000002
388,-19.897765,-26.306554,2.197299,-0.055542999999999995,-0.038209,1.264057
390,-21.667811,-23.071641,0.9155409999999999,-0.04004,0.007568000000000001,1.030289
392,-11.902037,-20.263981,0.793469,0.092775,0.032593000000000004,1.043595
394,-9.82681,-11.535821,2.685588,0.076051,-0.009644,1.047379
396,-9.948882000000001,-3.967346,3.6621650000000003,0.054688,0.022095,1.0278479999999999
398,-8.178836,-2.075227,4.089418,0.026612,0.012695999999999999,1.002457
400,-7.629511,-3.90631,2.380407,0.01294,0.015503,1.035782
402,-2.685588,-4.8218510000000006,0.9155409999999999,0.034058,-0.045411,1.0112459999999999
404,1.037613,-2.197299,0.976577,0.033569999999999996,0.002564,0.997208
406,-2.563516,-1.342794,0.9155409999999999,0.046021,-0.011840999999999999,0.9945219999999999
408,-2.624552,0.6103609999999999,0.976577,0.018799,0.017823,0.996841
410,-8.361944,-0.854505,0.671397,0.015869,0.027710000000000002,1.0042879999999998
412,-8.484016,-2.136263,0.549325,0.029419,0.002075,0.963882
414,-9.765774,-3.418021,0.671397,0.031617,0.005982,0.984512
416,-13.000687,-4.882887,0.854505,0.036011,-0.019532,0.986099
418,-14.404517000000002,-5.737392,2.075227,0.035157,0.006226,0.98024
420,-18.616007,-6.836042,1.8310830000000002,0.031495,0.022827,0.944594
422,-24.658579,-8.667124000000001,2.2583349999999998,0.049439,-0.023926,0.945449
424,-27.710384,-8.545052,2.4414439999999997,0.066896,-0.008301000000000001,0.995132
426,-28.992141999999998,-1.464866,1.586938,0.041260000000000005,-0.021241,1.011978
428,-36.438544,-0.793469,1.09865,0.041627,-0.021973,0.960464
430,-42.481117,0.366217,2.746624,0.078614,-0.08069,1.045426
432,-40.894179,7.751583,8.911269,0.009155,0.005005,0.9483790000000001
434,-47.974365,4.638743,2.380407,-0.003662,-0.08777,0.997818
436,-42.786297,3.723201,-11.169604,-0.038452999999999994,-0.021118,0.957046
438,-41.992828,4.150454,-32.776379,-0.047974,-0.066285,1.095964
440,-29.114214,-1.037613,-24.841688,0.21924200000000002,-0.239261,1.137713
442,-26.611734000000002,9.765774,3.90631,0.041993,0.095949,1.0089270000000001
444,-106.99626200000002,30.273899,-17.578393,0.102296,0.375128,0.86305
446,-221.560998,1.281758,-2.80766,-0.46607200000000004,0.169436,0.374762
448,-562.569619,-42.725260999999996,-23.376822,-0.160281,-0.23267,1.199115
450,-792.431525,-131.471733,82.093538,0.0813,0.074586,1.459617
452,-900.8316169999999,-93.75143100000001,204.654002,-0.001343,-1.838285,1.9999689999999999
454,395.269703,50.049592,-117.860685,-0.602182,1.577905,1.9999689999999999
456,-59.082933,-29.17525,16.235599,-0.848035,0.411627,0.255375
458,53.345541000000004,-38.269627,8.300908,-0.448615,0.023194,0.76527
460,47.608148,-18.24979,25.391012,-0.294926,0.445808,0.7092390000000001
462,115.724422,-5.432212,19.531548,-0.10498199999999999,0.513313,0.949477
464,134.218357,-2.563516,6.591897,0.07715,0.527474,1.3205770000000001
466,198.42832099999998,19.34844,-16.601816,0.050660000000000004,0.393072,1.410788
468,250.67521200000002,22.949569,-26.062409,-0.003296,0.157839,1.3049520000000001
470,285.343709,18.982223,-28.564889,0.028687,-0.010620000000000001,1.085588
472,296.57435,19.043259,-33.38674,0.11535799999999999,-0.024537,1.1308770000000001
474,296.57435,18.921187,-43.640803000000005,0.112062,-0.203738,0.9305559999999999
476,246.829938,38.635843,-49.744411,0.163577,-0.41113900000000003,0.675181
478,199.832151,63.172351,-64.576181,0.303716,-0.182132,1.6831310000000002
480,209.964141,73.18226899999999,-64.51514499999999,-0.069459,-0.421393,1.9999689999999999
482,261.661707,53.284504000000005,-38.818952,-0.171145,-0.755138,1.725734
484,237.064164,42.359045,-14.953841,-0.078248,-0.78822,1.9999689999999999
486,265.629053,58.594643999999995,-6.408789,0.118898,-0.73817,1.9999689999999999
488,281.132219,69.03181500000001,-10.803388,0.662119,-0.673716,1.9999689999999999
490,304.264897,47.42504,-28.015564,0.629892,-1.17995,1.7204849999999998
492,241.824979,34.302281,-34.79057,0.714611,-2.0000310000000003,1.0755780000000001
494,126.894026,124.75776299999998,-110.59739099999999,1.056657,-2.0000310000000003,-0.174929
496,60.791943,136.598764,-82.581827,-0.281987,-2.0000310000000003,-1.7247580000000002
498,-82.764935,-124.696727,66.529335,-0.382452,-1.4977040000000001,-0.357671
500,-226.81010099999997,-101.441978,36.682689,-0.151003,-1.449729,0.9226219999999999
502,-126.40573700000002,-83.25322299999999,24.353399,0.07946900000000001,1.142596,1.460472
504,-381.963836,-68.726635,62.928206,0.692638,-0.846082,1.9104299999999999
506,-154.177157,-5.61532,11.413748,0.8139770000000001,0.124758,1.9999689999999999
508,-144.472419,7.9957270000000005,9.948882000000001,-0.70692,-0.275883,1.6617689999999998
510,-75.684749,-89.84512099999999,43.396658,-0.275883,-0.246586,0.999649
512,-76.295109,-62.317845,20.508125,0.921035,-0.091188,1.649805
514,-43.152514000000004,-54.016938,13.550010999999998,-0.126467,0.069337,1.135637
516,-49.92752,-23.193713,1.586938,0.22693200000000002,-0.035157,1.2557559999999999
518,-14.099336,-29.968719,0.0,0.086671,0.076905,1.0078280000000002
520,-34.668498,-16.540779999999998,-3.540093,0.035644999999999996,-0.040894,1.116594
522,-20.813306,-8.850233,-1.8310830000000002,0.037842,0.013062,0.9746239999999999
524,-19.958801,-7.507439,2.2583349999999998,0.049194999999999996,-0.053101,1.039933
526,-19.714656,-5.981537,3.6621650000000003,0.026612,-0.012695999999999999,1.037125
528,-14.709697,-6.408789,2.2583349999999998,0.026123,-0.067872,1.067399
530,-10.986496,-5.9205,1.70901,0.0636,-0.0063479999999999995,1.063127
532,-10.803388,-2.868696,0.9155409999999999,0.064698,-0.007201999999999999,0.963882
534,-6.71397,-0.6103609999999999,1.464866,0.070436,-0.08581699999999999,0.965591
536,-6.836042,-0.976577,0.976577,0.050416,-0.051881,0.976089
538,-6.225681,-2.2583349999999998,1.342794,0.034546,-0.018433,1.014054
540,-6.347753,-3.540093,1.09865,0.04419,-0.021606999999999998,0.982559
542,-8.972305,-4.5166699999999995,0.671397,0.049928,-0.0035399999999999997,0.996109
544,-10.254063,-3.723201,0.549325,0.05505499999999999,0.0074459999999999995,1.010636
546,-10.193027,-4.089418,0.061036,0.032349,-0.010742,0.9715719999999999
548,-14.648660999999999,-5.554284,0.366217,0.052247,-0.014649,0.966201
550,-16.968032,-7.01915,1.342794,0.067994,-0.030396,1.003922
552,-24.536507,-3.1128400000000003,0.48828900000000003,0.05139199999999999,-0.067262,0.9637600000000001
554,-27.222095,0.854505,0.549325,0.116335,-0.036744,0.898817
556,-19.104295,-1.342794,0.0,0.054565999999999996,-0.023316,0.9865870000000001
558,-34.607462,-0.366217,-0.30518,0.015259,-0.054444000000000006,0.9276260000000001
560,-51.514458000000005,-0.366217,0.122072,0.062013,-0.072877,0.9944
562,-59.693293999999995,3.845274,7.507439,0.04712,-0.124392,1.057633
564,-32.471199,3.295949,6.469825,0.019653999999999998,-0.049073,1.001846
566,-42.847333,1.7700470000000001,-10.864424,-0.018555000000000002,-0.139773,1.0424959999999999
568,-36.560615999999996,3.356985,-23.804074,0.039550999999999996,-0.130129,1.011978
570,-5.188067,1.342794,-32.104982,0.17773699999999998,-0.33118200000000003,1.028092
572,-22.217136,8.1178,-2.197299,0.112795,0.248173,0.999527
574,-133.97421200000002,36.1944,-28.198672,0.036011,0.302617,0.827893
576,-194.827192,-28.137635999999997,4.394598,-0.255131,0.46167700000000006,0.733776
578,-497.749294,-172.61005600000001,-59.449149,-0.565682,0.380621,1.4559549999999999
580,-834.119173,-305.48561800000004,79.468986,0.07946900000000001,0.036744,1.212177
582,-1129.472801,-196.475166,272.95338399999997,-0.6892199999999999,-1.121233,1.9999689999999999
584,346.80705,57.740139,-65.186542,-0.32813000000000003,0.9118790000000001,1.9999689999999999
586,73.79263,22.278172,10.498207,-0.91664,0.73817,1.225483
588,27.771420000000003,-48.401617,87.220569,-0.290288,0.415045,0.9084610000000001
590,157.96139499999998,8.239872,51.392386,0.061890999999999995,0.463996,0.699596
592,141.481651,36.49958,39.490349,0.16552999999999998,0.276127,1.021134
594,193.301289,29.663539,17.700464999999998,0.21325999999999998,0.34583,0.91371
596,223.331044,26.67277,-1.70901,0.190555,0.235843,1.046036
598,241.580835,36.1944,-14.770732999999998,0.075929,0.086549,1.123308
600,268.253605,35.523003,-17.700464999999998,0.049194999999999996,-0.005493,1.288838
602,290.836957,37.170977,-20.752270000000003,0.158694,-0.08423,1.363424
604,297.734035,54.13901,-30.518044,0.213748,-0.251713,1.292866
606,281.49843599999997,61.158159999999995,-41.687647999999996,0.30054200000000003,-0.42102700000000004,1.127337
608,250.06485099999998,58.533607999999994,-55.054551000000004,0.300664,-0.45264399999999994,1.073503
610,202.090486,58.777752,-65.796902,0.260746,-0.29077600000000003,1.9999689999999999
612,229.73983399999997,64.759289,-72.69398000000001,0.15246800000000002,-0.43665200000000004,1.9999689999999999
614,284.36713199999997,86.30502800000001,-71.839475,0.12695499999999998,-0.655894,1.9999689999999999
616,263.55382599999996,93.44625,-59.75433,0.122438,-0.741955,1.759182
618,243.83917000000002,84.962234,-44.251164,0.144045,-0.828382,1.98233
620,243.04570099999998,80.994888,-37.170977,0.201541,-1.127581,1.569238
622,195.803769,85.57259499999999,-29.968719,0.38513800000000004,-1.781643,1.156756
624,106.56900900000001,124.086366,-32.593271,0.825574,-2.0000310000000003,1.066056
626,138.429847,155.153735,-36.011292,0.398688,-2.0000310000000003,-1.183734
628,-68.17730999999999,-101.014725,46.814679,0.25403200000000004,-1.8924849999999998,-1.605005
630,-246.585794,-262.577249,52.429999,0.958145,-1.563256,1.227436
632,-100.526436,-60.608835,22.400244,-0.250492,0.396857,1.976837
634,-218.08194100000003,-70.862898,32.349126,0.28320700000000004,0.380377,-0.13806400000000002
636,-310.12436099999996,-64.576181,49.805446999999994,0.684092,-0.384527,1.9999689999999999
638,-153.68886899999998,5.981537,15.014878,-0.12195,-0.207889,1.788357
640,-78.919661,-86.182956,29.724575,-0.036378,-0.183841,1.9999689999999999
642,-62.439918000000006,-21.240558,11.596857,0.482063,0.058473000000000004,1.462181
644,-43.701839,-38.818952,6.897078,0.23755199999999999,0.043702,1.2293889999999998
646,-39.185168,-7.629511,1.464866,-0.16101300000000002,-0.034791,1.219501
648,-19.65362,-9.948882000000001,-1.8921189999999999,0.090455,0.049194999999999996,1.081682
650,-6.775005999999999,-5.127031,-0.793469,0.055787,0.026733999999999997,0.979141
652,-9.704738,0.6103609999999999,2.319371,0.000977,0.036866,1.00441
654,-12.32929,2.990768,4.150454,-0.0021969999999999997,0.033936,0.9870760000000001
656,-15.808347,-1.037613,4.455634,0.014159999999999999,0.032349,0.999893
658,-15.808347,-1.40383,0.366217,0.024413999999999998,-0.147829,0.757336
660,-24.536507,-2.197299,3.6621650000000003,0.003906,0.006958,1.000381
662,-21.667811,-0.30518,2.868696,0.025147,-0.003052,1.036881
664,-16.113526999999998,2.014191,4.028382,0.033692,0.026001,0.949111
666,-19.531548,0.854505,2.319371,0.008545,-0.012818000000000001,1.031144
668,-14.404517000000002,0.793469,1.647974,0.002075,-0.002564,1.009049
670,-12.817578,0.976577,1.647974,-0.0023190000000000003,-0.012818000000000001,1.008316
672,-11.596857,0.9155409999999999,1.586938,0.006714,-0.016358,1.013199
674,-10.131991000000001,1.647974,1.342794,0.012451,-0.044677999999999995,1.048722
676,-1.8310830000000002,2.4414439999999997,0.793469,-0.015137000000000001,0.012451,0.932265
678,-10.559242999999999,-1.7700470000000001,-0.427253,-0.056641,-0.103029,0.989395
680,-19.714656,-3.967346,1.09865,-0.0094,-0.006714,1.013931
682,-18.066682,-3.173877,1.159686,0.003906,-0.024903,0.9875639999999999
684,-20.508125,-2.50248,1.7700470000000001,0.026246,-0.015625,0.972671
686,-22.400244,-1.342794,0.732433,0.014771000000000001,-0.026489999999999996,0.9555809999999999
688,-36.011292,-1.525902,2.2583349999999998,-0.034913,-0.004028,0.914565
690,-44.739452,-6.225681,2.563516,-0.026368,-0.027344,0.9476459999999999
692,-47.119859999999996,-4.577707,6.71397,-0.0023190000000000003,-0.125124,1.045792
694,-36.011292,1.953155,5.249104,0.021241,-0.125002,1.061662
696,-25.391012,-0.793469,2.685588,-0.141238,0.030518,1.088151
698,-64.271,-1.953155,-44.068055,-0.021729,-0.043336,0.941665
700,-51.880674,-4.577707,-19.65362,0.056764,-0.215702,1.0529950000000001
702,-68.787671,-14.831769,-21.301595000000002,0.023804,-0.03418,0.997208
704,-103.334096,-10.620279,-23.254749,0.107912,0.185916,0.966934
706,-202.151522,-6.408789,-25.452049,0.195682,0.850965,1.009781
708,-562.569619,-33.69192,-10.376135000000001,-0.346563,0.5789880000000001,1.710109
710,-808.728161,-154.177157,69.092851,-0.009644,-0.054688,1.149065
712,-1061.051347,-206.607156,195.193408,-0.9903719999999999,-0.692882,1.9999689999999999
714,238.406958,-66.468299,-22.644388,-0.41040699999999997,0.8712290000000001,1.9999689999999999
716,62.256809,27.283131,0.671397,-0.579477,0.635996,1.547021
718,31.555657,-0.854505,59.63225799999999,-0.255375,0.332769,0.69984
720,102.113375,-6.71397,43.945983,-0.034791,0.440925,0.230594
722,102.235447,-8.850233,30.273899,0.072389,0.338506,0.731456
724,128.786145,-11.902037,8.911269,0.095216,0.395514,1.071305
726,183.840696,-7.263294,-14.526589000000001,0.038819,0.3252,1.228779
728,218.936446,7.6905470000000005,-25.26894,-0.11120799999999999,0.093385,1.219013
730,248.477913,19.34844,-18.371862,-0.23975,-0.098878,1.2242620000000002
732,271.793698,21.545739,-1.8921189999999999,-0.23474499999999998,-0.224491,1.438132
734,297.917144,31.128404999999997,11.718929,-0.143557,-0.289799,1.522484
736,309.391928,42.603189,17.334249,-0.016114,-0.392706,1.397482
738,302.983139,47.73022,13.061722999999999,0.204593,-0.388678,1.396384
740,286.442359,48.157472999999996,-7.141222,0.321416,-0.422858,1.371359
742,253.849088,42.420081,-33.081559000000006,0.387945,-0.410163,1.581811
744,239.566644,26.306554,-60.730906999999995,0.35278899999999996,-0.379278,1.9999689999999999
746,271.549554,46.814679,-86.610208,0.166995,-0.5512779999999999,1.9999689999999999
748,281.49843599999997,68.84870699999999,-90.02822900000001,-0.0177,-0.898329,1.834012
750,243.83917000000002,70.008392,-73.18226899999999,-0.10486,-1.1393,1.700832
752,220.462348,81.666285,-49.561303,-0.059449,-1.5517809999999999,1.6736099999999998
754,185.54970600000001,99.06156999999999,-15.075914000000001,0.275517,-2.0000310000000003,1.145892
756,121.095598,111.207752,-7.812619000000001,0.766125,-2.0000310000000003,0.10009900000000001
758,43.884947,73.853666,9.033341,0.278447,-2.0000310000000003,-0.454475
760,-87.220569,-91.004807,33.813992999999996,0.275883,-2.0000310000000003,-1.6181889999999999
762,-237.55245299999999,-145.754177,38.513771000000006,0.437751,-0.81825,0.694591
764,-190.188449,-77.759976,19.592584,-0.520882,0.9354389999999999,1.655909
766,-305.912871,-77.882048,60.425727,0.394293,-0.723644,1.066789
768,-239.62767999999997,-10.193027,25.940337,1.1032879999999998,-0.19409500000000002,1.9999689999999999
770,-127.443351,-3.051804,3.6011290000000002,-1.0686200000000001,-0.072145,1.9999689999999999
772,-57.373922,-104.98207099999999,40.40589,0.5096510000000001,0.265873,1.7580830000000003
774,-52.307927,-21.606775,7.934691,0.008179,-0.085328,1.187396
776,-45.105669,-59.693293999999995,4.577707,0.34460999999999997,0.061769000000000004,1.319234
778,-37.781338,-19.165332,0.30518,-0.076417,-0.09192,1.137224
780,-23.682002,-17.029068,-2.4414439999999997,0.10925499999999999,0.069093,1.037613
782,-13.000687,-8.545052,-0.48828900000000003,0.095583,0.10425,1.135882
784,-15.991454999999998,4.638743,3.6011290000000002,0.023194,0.020996,1.032609
786,-18.24979,7.568475,4.882887,0.006226,0.059083000000000004,1.027359
788,-19.104295,7.324331,2.50248,0.09131,-0.05359,0.735241
790,-24.536507,2.4414439999999997,2.4414439999999997,-0.003662,-0.003418,1.018082
792,-14.0383,3.845274,2.136263,0.024903,-0.015503,1.0434729999999999
794,-10.559242999999999,6.775005999999999,3.051804,0.00061,0.005737,1.003555
796,-11.841001,4.638743,2.380407,-0.021363,0.012206999999999999,0.9824370000000001
798,-13.244831,1.7700470000000001,1.464866,-0.011597,-0.005371,1.002945
800,-12.756542,1.037613,1.8921189999999999,-0.008789,-0.025513,1.00441
802,-9.948882000000001,-1.342794,1.8921189999999999,0.019532,0.075807,0.949111
804,-13.061722999999999,-2.014191,0.9155409999999999,-0.001221,-0.019776,1.014542
806,-11.352712,-1.8921189999999999,0.854505,0.005982,-0.026001,0.9991610000000001
808,-11.23064,-0.48828900000000003,1.70901,0.002686,-0.030639999999999997,1.000626
810,-13.305867000000001,-0.854505,2.014191,0.018067,-0.026856,1.015763
812,-12.390326,1.037613,2.563516,0.017945,-0.046632,1.01442
814,-10.864424,0.854505,1.8921189999999999,-0.019165,-0.008301000000000001,1.006241
816,-16.357671,-2.4414439999999997,1.2207219999999999,-0.013428,-0.026001,0.97145
818,-23.132676999999997,-5.9205,0.183108,-0.024291999999999998,0.001953,0.954849
820,-38.757915999999994,-7.385367,0.122072,-0.016114,-0.014771000000000001,0.977066
822,-38.147555,-7.812619000000001,3.234913,0.01709,-0.032471,0.968765
824,-48.401617,-7.568475,7.01915,-0.015625,-0.082399,0.997818
826,-44.861523999999996,-1.953155,0.9155409999999999,-0.058473000000000004,-0.058473000000000004,1.041398
828,-44.92256,-4.272526,-8.361944,-0.045288999999999996,-0.063233,1.0526280000000001
830,-71.534295,1.09865,-41.321431,0.007568000000000001,-0.011840999999999999,0.9129780000000001
832,-51.148241,0.793469,-10.742351,0.116701,-0.35462,1.136736
834,-40.588998,-2.80766,-13.061722999999999,0.000122,0.025025,0.9547260000000001
836,-102.784772,-2.319371,-13.733120000000001,0.1355,0.048829000000000004,0.8325319999999999
838,-177.370871,-8.300908,-28.198672,0.181277,0.835218,1.097795
840,-588.5709929999999,-9.033341,-6.652933999999999,-0.232303,0.932876,1.9999689999999999
842,-838.69688,-52.796216,62.989242000000004,0.289677,0.137209,0.9980620000000001
844,-1089.6772720000001,-96.742199,174.502174,-1.1023120000000002,-0.924208,1.9999689999999999
846,143.923095,-62.745098,-43.335622,-0.6086520000000001,0.649058,1.9999689999999999
848,-34.607462,-52.552071,24.109254999999997,-0.532723,0.930434,1.9999689999999999
850,81.11695999999999,-37.109941,43.091478,-0.197147,0.470588,1.455833
852,108.09491100000001,-18.310826000000002,29.785611,-0.010131999999999999,0.523079,0.632944
854,150.331884,-13.427939000000002,12.512398,0.012573,0.38196399999999997,0.80238
856,169.192035,-12.024109,-0.366217,0.036011,0.324712,0.9611959999999999
858,216.250858,-8.789197,-14.587625,-0.000244,0.23608800000000002,0.9476459999999999
860,238.52902999999998,-10.986496,-20.508125,-0.11499200000000001,0.075929,1.01149
862,259.891661,-3.845274,-18.738079,-0.18420699999999998,-0.018311,1.28188
864,293.156329,15.320058,-12.573433999999999,-0.19409500000000002,-0.160647,1.666896
866,334.23361600000004,29.541465999999996,-7.080186,-0.083619,-0.301762,1.513085
868,342.59556000000003,37.29305,-9.52163,0.11035299999999999,-0.42273599999999995,1.1858090000000001
870,305.668727,65.06446899999999,-33.813992999999996,0.51722,-0.588144,0.877821
872,247.56237099999998,52.491035,-64.209964,0.543465,-0.47791300000000003,1.313863
874,231.69298799999999,30.090790999999996,-88.868544,0.29431599999999997,-0.43079300000000004,1.9999689999999999
876,262.08896,48.950942,-90.394446,-0.12695499999999998,-0.735119,1.9999689999999999
878,295.597772,58.533607999999994,-67.627985,-0.23193699999999998,-0.949111,1.9999689999999999
880,273.136492,69.336996,-43.762875,-0.045899,-0.997452,1.8585490000000002
882,259.647517,75.013352,-34.180209000000005,0.232792,-1.120745,1.749538
884,227.847715,91.187915,-34.485389,0.377081,-1.454856,1.24831
886,165.285725,90.089265,-32.837415,0.745617,-2.0000310000000003,1.068009
888,115.84649399999999,113.09987,-62.806134,0.756847,-2.0000310000000003,0.417975
890,52.979324,59.327077,-49.92752,0.183352,-2.0000310000000003,-0.9953770000000001
892,-118.837263,-139.833677,5.0049589999999995,-0.094972,-2.0000310000000003,-1.372091
894,-152.40711100000001,-143.007553,22.278172,0.194339,-0.213504,1.9999689999999999
896,-152.651255,-75.50164000000001,31.677729,-0.784558,0.616953,0.255619
898,-312.56580499999995,-75.989929,80.140383,0.49951899999999994,-0.447395,1.460349
900,-199.649043,-1.159686,25.452049,1.6485849999999997,-0.012573,1.9999689999999999
902,-143.61791399999998,51.941711,-20.202945,-0.916274,-0.10315099999999999,1.7191419999999997
904,-76.96650600000001,-70.37460899999999,44.068055,-0.791516,-0.342535,0.572641
906,-79.957275,-81.300069,25.26894,1.291279,0.071534,1.9999689999999999
908,-48.462654,-53.345541000000004,15.869383,-0.22034,0.039307,0.9515530000000001
910,-44.739452,-22.278172,0.366217,0.06994700000000001,-0.009155,1.1192799999999998
912,-28.137635999999997,-17.700464999999998,0.0,0.153445,0.001953,1.107561
914,-20.569162,-3.356985,2.80766,-0.034913,0.005982,1.070329
916,-16.052491,3.173877,2.868696,0.021363,0.033326,1.007462
918,-12.512398,2.868696,3.540093,-0.003418,0.044068,1.006973
920,-11.474784,0.122072,2.2583349999999998,-0.05005,0.110109,0.976333
922,-15.869383,-5.676356,2.2583349999999998,-0.037598,0.041138,1.0046540000000002
924,-13.733120000000001,-7.263294,1.09865,-0.092287,0.138186,1.246723
926,-13.733120000000001,-8.667124000000001,2.990768,-0.000366,0.049683,0.945327
928,-20.813306,-11.779964999999999,3.479057,-0.003296,0.035279000000000005,0.9939120000000001
930,-18.24979,-10.925460000000001,2.014191,-0.003052,-0.005493,1.016861
932,-14.221407999999998,-9.765774,0.244144,0.002441,0.024048,1.094865
934,-11.779964999999999,-8.789197,0.976577,0.016846,-0.05505499999999999,0.964248
936,-15.13695,-9.704738,1.647974,-0.016114,0.010254000000000001,0.984878
938,-17.822538,-11.902037,0.976577,-0.005615,0.02356,0.9511860000000001
940,-20.752270000000003,-12.695506,-0.48828900000000003,0.011840999999999999,-0.00415,1.015274
942,-19.65362,-10.620279,-1.464866,0.032349,-0.011719,0.9901270000000001
944,-22.949569,-7.385367,0.061036,0.038209,-0.033569999999999996,1.014054
946,-24.597542999999998,-4.089418,1.09865,0.014282,-0.021118,0.972183
948,-30.823224,-5.9205,1.342794,-0.015137000000000001,-0.009033,0.968276
950,-37.109941,-8.972305,0.366217,0.020630000000000003,0.01709,1.139055
952,-35.88922,-5.7984279999999995,-2.136263,0.043213999999999995,-0.048829000000000004,0.9864649999999999
954,-52.73518000000001,-0.061036,7.263294,0.101076,-0.046632,0.961563
956,-46.875715,3.479057,12.207218,0.04358,-0.067262,1.0276040000000002
958,-50.537881,3.295949,7.01915,-0.013916,-0.096193,1.043839
960,-33.325703999999995,-2.868696,-14.221407999999998,-0.017212,-0.180056,0.9388569999999999
962,-37.659265999999995,-0.061036,-32.837415,0.069825,-0.252811,0.9521629999999999
964,-8.545052,1.281758,-9.704738,0.077882,-0.148562,0.9944
966,-59.266041,9.094377,-17.517357,0.098024,0.183108,0.9403219999999999
968,-130.67826399999998,22.400244,-28.686961,-0.033082,0.387579,0.814221
970,-221.194781,-31.189441,-19.65362,0.187869,1.0880290000000001,0.831312
972,-629.64828,-83.31426,-55.420768,-1.033707,0.121218,1.807767
974,-865.4917220000001,-235.29411800000003,57.801175,-0.23083800000000002,-0.176394,1.021134
976,-867.933166,-125.978485,231.50987999999998,-0.196536,-0.996109,1.9999689999999999
978,380.80415,22.949569,-80.628672,-0.364019,0.917372,1.9999689999999999
980,19.165332,-0.183108,6.836042,-0.854261,0.675425,0.827283
982,41.382467,-26.977951,44.3122,-0.401373,0.210452,0.7052109999999999
984,112.062257,-5.7984279999999995,36.316472,-0.178714,0.439704,0.564828
986,127.38231499999999,1.525902,35.278859000000004,-0.026733999999999997,0.338384,1.006973
988,164.980545,9.52163,16.540779999999998,0.164797,0.42298,0.973404
990,205.508507,24.414435,-6.347753,0.136233,0.302007,1.151629
992,239.749752,30.579079999999998,-16.723888,0.009888,0.11926500000000001,1.3470659999999999
994,284.30609599999997,36.072328000000006,-13.672084,-0.102907,-0.09289700000000001,1.428611
996,313.664454,41.748684000000004,-4.028382,-0.050172,-0.231449,1.32314
998,320.622568,47.241932,0.427253,0.052490999999999996,-0.382818,1.131365
1000,283.390555,81.055924,-8.850233,0.284062,-0.666636,0.478401
1002,210.33035800000002,75.074388,-22.339208,0.317266,-0.39978600000000003,1.098039
1004,195.254444,37.659265999999995,-40.650034000000005,0.394415,-0.30554699999999996,1.9999689999999999
1006,280.827039,57.801175,-73.365377,0.314702,-0.6307470000000001,1.9999689999999999
1008,255.619135,55.298694999999995,-76.173037,0.061402,-0.739513,1.9999689999999999
1010,307.49980899999997,65.36965,-83.009079,0.255619,-0.7779659999999999,1.9999689999999999
1012,282.475013,80.262455,-85.08430600000001,0.239628,-0.976455,1.737575
1014,256.229496,76.478218,-78.187228,0.11303900000000001,-1.250629,1.521508
1016,215.57946099999998,90.699626,-60.303655000000006,-0.037476,-1.824369,0.956435
1018,111.26878799999999,130.495155,-20.935378,0.254398,-2.0000310000000003,0.9129780000000001
1020,90.33341,167.23888,12.756542,0.094972,-2.0000310000000003,-0.19531500000000002
1022,-173.708705,-96.986343,113.46608700000002,0.530037,-2.0000310000000003,-2.0000310000000003
1024,-235.17204500000003,-192.20264,71.961547,1.116594,-0.472053,1.542382
1026,-202.761883,-114.747845,50.049592,-0.22302600000000003,0.8288700000000001,1.9701229999999998
1028,-279.179065,-93.934539,67.627985,0.680064,-0.613291,1.1535819999999999
1030,-217.654688,-30.457008000000002,34.363316999999995,1.169329,-0.318486,1.9999689999999999
1032,-148.195621,-32.715343,22.888533,-1.1701840000000001,-0.385504,1.9999689999999999
1034,-34.180209000000005,-67.139696,11.291675999999999,1.325826,0.18701500000000001,1.9999689999999999
1036,-54.749371,7.080186,11.047532,-0.370977,0.015137000000000001,1.077043
1038,-32.288090000000004,-7.9957270000000005,-0.671397,0.386236,0.091676,1.431052
1040,-15.869383,8.667124000000001,-1.953155,-0.048951,0.117067,0.9944
1042,-15.503166,11.657893,2.4414439999999997,-0.019532,-0.015015,1.076799
1044,-11.047532,10.803388,4.028382,-0.00647,0.022705,1.044327
1046,-7.6905470000000005,9.338521,4.089418,-0.015381,0.022338999999999998,1.038102
1048,-3.356985,6.164645,3.418021,-0.042969,0.041138,0.9796290000000001
1050,-4.089418,1.40383,2.380407,-0.08569500000000001,0.040894,0.966201
1052,-4.8218510000000006,-4.760815,2.929732,-0.049683,0.03418,0.9538719999999999
1054,-7.385367,-13.855192,3.234913,-0.065675,0.028687,0.934707
1056,-10.070953999999999,-18.982223,0.0,-0.006958,-0.10974300000000001,0.829358
1058,-14.160372,-22.1561,2.319371,-0.007691,-0.009276999999999999,0.9813379999999999
1060,-5.371176,-17.883574,-0.30518,-0.008301000000000001,0.040527999999999995,1.0622719999999999
1062,-13.244831,-20.202945,0.366217,0.0031739999999999997,0.029419,0.982925
1064,-12.024109,-18.554971,-0.549325,-0.000366,0.027222000000000003,1.002335
1066,-14.465553,-17.212177,-0.122072,-0.001343,0.01001,1.001968
1068,-15.991454999999998,-15.503166,-0.6103609999999999,0.03418,0.009522,1.0208899999999999
1070,-18.24979,-13.550010999999998,-0.30518,0.032715,-0.000366,1.005509
1072,-17.578393,-9.704738,-0.244144,0.039550999999999996,-0.008667,0.992691
1074,-20.263981,-7.6905470000000005,0.061036,0.018799,0.015747,0.9666899999999999
1076,-26.062409,-9.216449,-1.2207219999999999,0.015625,-0.00061,0.970352
1078,-25.207904,-10.254063,0.061036,0.026001,0.020996,1.0196690000000002
1080,-32.532235,-9.155413000000001,-1.525902,0.05285700000000001,0.019653999999999998,1.063005
1082,-42.664225,-6.042573,-2.868696,0.041260000000000005,-0.05774,1.00148
1084,-45.044633000000005,1.70901,3.418021,0.14197,0.125856,0.8479129999999999
1086,-56.580453000000006,7.507439,13.305867000000001,-0.001465,-0.097414,0.9625389999999999
1088,-52.918288000000004,5.371176,7.6905470000000005,-0.023804,-0.057862000000000004,0.9438620000000001
1090,-50.537881,3.173877,-11.779964999999999,-0.039550999999999996,-0.171756,0.9698629999999999
1092,-48.706798,1.40383,-37.537194,0.056152999999999995,-0.159426,1.052384
1094,-19.287404000000002,4.8218510000000006,-3.6011290000000002,0.154421,-0.156497,1.023819
1096,-74.769207,22.766461,-22.644388,0.16101300000000002,0.21899699999999997,0.9555809999999999
1098,-195.132372,32.898451,-36.072328000000006,-0.123293,0.716442,0.424811
1100,-387.579156,-34.973678,-52.429999,0.16125699999999998,1.506249,1.7157240000000002
1102,-804.8218509999999,-179.201953,42.90837,-0.42005,0.07483,1.738796
1104,-1082.719158,-191.47020700000002,143.007553,1.011734,-2.0000310000000003,1.9999689999999999
1106,253.238727,4.882887,-79.71313,-0.43836099999999995,0.4607,1.9999689999999999
1108,192.99610900000002,27.344167,-60.547799,-0.746838,0.94789,0.5946140000000001
1110,-49.92752,-48.035401,37.232013,-0.136721,-0.190921,0.232303
1112,80.689708,6.836042,3.234913,-0.16833800000000002,0.522347,0.404547
1114,85.816739,19.104295,7.507439,-0.29285100000000003,0.356085,0.908583
1116,121.889067,3.784237,16.662851999999997,-0.276738,0.405524,1.1401540000000001
1118,183.718624,6.591897,19.226368,-0.140261,0.39234,1.517479
1120,243.472953,25.085832,14.160372,-0.038087,0.206668,1.3774620000000002
1122,280.399786,32.959487,9.704738,0.045777,0.06225700000000001,1.028702
1124,289.738308,29.541465999999996,3.6621650000000003,0.201297,0.031495,1.2771190000000001
1126,309.697108,30.762188000000002,-16.418708,0.320684,-0.113649,1.142596
1128,287.479973,48.035401,-39.490349,0.386725,-0.34912600000000005,0.8770889999999999
1130,245.792325,61.707485,-66.468299,0.46179899999999996,-0.261479,1.4612040000000002
1132,228.64118399999998,83.192187,-87.769894,0.241459,-0.374762,1.9999689999999999
1134,246.70786600000002,86.610208,-83.31426,-0.0365,-0.668589,1.9999689999999999
1136,272.831312,87.769894,-66.65140799999999,-0.075441,-1.005142,1.9999689999999999
1138,238.10177799999997,108.5832,-49.744411,-0.016724,-1.053727,1.9262990000000002
1140,256.595712,82.764935,-29.846646999999997,0.454841,-0.953384,1.9999689999999999
1142,262.149996,53.345541000000004,-23.254749,0.536263,-1.183734,1.6520029999999999
1144,226.871138,37.720302000000004,-5.493248,0.022338999999999998,-1.949493,1.0796059999999998
1146,158.08346699999998,35.950256,25.085832,0.204837,-2.0000310000000003,0.460578
1148,77.882048,67.627985,11.596857,0.5335770000000001,-2.0000310000000003,-0.226688
1150,-31.311513,20.935378,57.190814,-0.13196,-2.0000310000000003,-0.155276
1152,-294.743267,-160.158694,73.853666,1.497581,-1.2015559999999998,0.8408329999999999
1154,-41.321431,-52.796216,-11.23064,0.06775,1.577905,1.797879
1156,-288.578622,-74.219883,18.432898,-0.930434,-0.5554279999999999,-0.31506799999999996
1158,-250.308995,-49.256122999999995,64.69825300000001,0.8028689999999999,-0.500374,1.9999689999999999
1160,-162.539101,-6.530861,21.301595000000002,0.45398599999999995,0.054077999999999994,1.6871599999999998
1162,-91.73724,-41.565576,28.381781,-0.433478,-0.18262,1.842313
1164,-45.532921,-36.316472,7.812619000000001,0.783337,0.028321,1.6977799999999998
1166,-40.527962,-25.879301,11.169604,-0.202762,0.025269,1.1841
1168,-25.085832,-11.657893,1.647974,0.07019199999999999,0.154177,0.977554
1170,-31.128404999999997,-8.42298,0.976577,0.027466,0.036988,1.1659110000000001
1172,-20.202945,1.525902,3.356985,0.000488,0.041993,1.065934
1174,-14.282444,3.723201,2.746624,0.022705,0.116823,0.984024
1176,-18.799115,4.272526,4.272526,-0.004883,0.041016000000000004,1.0434729999999999
1178,-15.381094000000001,3.356985,4.150454,-0.034546,0.050294,0.977432
1180,-17.029068,0.0,2.746624,-0.056275,0.104494,1.071061
1182,-18.677042999999998,-5.065995,4.272526,-0.027832,0.030151999999999998,0.958267
1184,-18.799115,-8.850233,3.356985,-0.073365,0.128664,1.20412
1186,-18.432898,-8.972305,3.1128400000000003,-0.011231,0.036133,0.965957
1188,-16.968032,-5.981537,2.50248,-0.012206999999999999,0.033936,1.009781
1190,-16.052491,-2.868696,2.685588,-0.013916,0.010254000000000001,0.9922030000000001
1192,-13.977264000000002,-1.647974,2.868696,-0.008789,0.053223,0.96083
1194,-15.259022,-3.723201,2.2583349999999998,-0.008179,0.005615,0.9952540000000001
1196,-15.197985999999998,-5.065995,1.464866,-0.017578,0.0058590000000000005,0.9907379999999999
1198,-15.686275,-5.554284,0.976577,0.008179,0.013184,0.9980620000000001
1200,-17.456321,-3.784237,1.2207219999999999,0.0058590000000000005,-0.0043950000000000005,1.0245520000000001
1202,-15.075914000000001,-0.244144,1.70901,0.010620000000000001,0.023194,1.06923
1204,-12.695506,3.051804,2.929732,0.0070799999999999995,-0.041016000000000004,0.949111
1206,-17.456321,0.244144,3.051804,-0.032837,0.014405000000000001,0.9504540000000001
1208,-30.212863,-3.845274,2.80766,0.01294,0.020874,0.9896389999999999
1210,-33.38674,-3.90631,2.014191,0.0008550000000000001,-0.001465,0.964492
1212,-43.945983,-5.188067,2.014191,-0.02295,-0.030639999999999997,0.9716950000000001
1214,-41.199359,-5.371176,4.333562000000001,0.039307,-0.07470800000000001,1.013199
1216,-39.795528999999995,-3.967346,5.493248,-0.018921,-0.053834,1.003922
1218,-40.772107,-1.7700470000000001,1.40383,0.012451,-0.07470800000000001,0.9901270000000001
1220,-35.156786,-4.089418,-8.239872,-0.098268,-0.011719,1.0757
1222,-61.402304,3.051804,-40.894179,-0.036378,-0.021363,0.879042
1224,-49.683375,-7.568475,-14.526589000000001,0.061524,-0.275395,1.119158
1226,-67.811093,-14.709697,-23.987182,-0.006104,0.185428,0.942519
1228,-148.439765,-8.911269,-20.508125,-0.050782,0.172854,0.8534069999999999
1230,-206.851301,-22.339208,-24.231327,0.045899,0.7855340000000001,1.042374
1232,-663.706416,-54.749371,1.037613,-0.595834,0.245243,1.8680700000000001
1234,-830.395972,-174.074922,75.745785,-0.055421000000000005,-0.284916,0.7889520000000001
1236,-1121.232929,-254.093233,222.72068399999998,-0.51722,-1.525048,1.9999689999999999
1238,235.599298,-136.964981,-16.479744,0.052125,1.075944,1.9999689999999999
1240,54.871443000000006,3.6011290000000002,-19.409476,-0.468513,0.786389,1.9999689999999999
1242,136.598764,46.387427,10.193027,-0.441291,0.11218399999999999,0.807507
1244,158.44968300000002,29.968719,32.227053999999995,-0.22680999999999998,0.221561,0.140261
1246,165.957122,0.427253,44.190127000000004,0.063233,0.14551,0.559213
1248,193.240253,-29.48043,29.541465999999996,0.391241,0.34473200000000004,1.018082
1250,238.895247,-20.141909,-13.122759,0.439094,0.321538,1.164569
1252,262.149996,-2.380407,-45.105669,0.138308,0.05139199999999999,1.147234
1254,287.113756,0.183108,-50.598917,-0.08215499999999999,-0.12378099999999999,1.19118
1256,304.75318500000003,10.193027,-43.457694000000004,-0.09472799999999999,-0.21643400000000002,1.336324
1258,312.382696,29.602502,-39.795528999999995,-0.002686,-0.32459,1.4900129999999998
1260,316.28900600000003,48.218509000000005,-46.814679,0.077394,-0.531502,1.2673530000000002
1262,273.3196,76.96650600000001,-53.406577,0.14868399999999998,-0.677623,0.812146
1264,213.68734300000003,51.514458000000005,-58.10635500000001,0.203983,-0.48511499999999996,1.27834
1266,186.099031,40.772107,-70.008392,0.28870100000000004,-0.38464899999999996,1.9999689999999999
1268,252.68940299999997,84.962234,-86.182956,0.10498199999999999,-0.672129,1.9999689999999999
1270,256.229496,88.807507,-71.16807800000001,-0.017456,-0.851209,1.9999689999999999
1272,256.290532,93.934539,-53.284504000000005,0.103273,-0.8879530000000001,1.747829
1274,238.10177799999997,93.568322,-41.687647999999996,0.136965,-1.119768,1.710475
1276,220.645457,83.49736800000001,-25.024796,0.11425999999999999,-1.6695810000000002,1.348043
1278,157.045853,90.882734,-4.21149,0.645029,-2.0000310000000003,0.8441290000000001
1280,106.263828,153.81094099999999,-32.654307,0.6259859999999999,-2.0000310000000003,-0.17847000000000002
1282,-48.035401,21.05745,9.155413000000001,-0.23450100000000001,-2.0000310000000003,-2.0000310000000003
1284,-280.33875,-239.566644,69.336996,1.137102,-0.70692,1.09218
1286,-190.188449,-90.272374,35.706111,-0.414191,1.158587,1.9999689999999999
1288,-253.11665499999998,-98.207065,57.129778,0.227298,-0.690074,0.546273
1290,-268.741894,-51.63653,53.528649,1.327779,-0.072755,1.9999689999999999
1292,-116.76203600000001,35.034714,5.676356,-0.18188800000000002,0.47363999999999995,1.9999689999999999
1294,-62.56199,-47.486076000000004,19.531548,-0.339727,-0.388067,1.876493
1296,-55.359731000000004,-13.977264000000002,12.390326,0.439094,0.120485,1.135882
1298,-51.514458000000005,-27.649348,6.042573,0.035767,-0.045288999999999996,1.207416
1300,-30.945296000000003,-7.01915,-2.2583349999999998,-0.086427,-0.009033,1.137713
1302,-14.160372,-6.225681,0.793469,0.083253,0.061524,1.099626
1304,-11.657893,-2.380407,2.197299,0.019165,0.053834,1.047868
1306,-10.803388,4.089418,3.723201,-0.036988,0.044433999999999994,0.9823149999999999
1308,-12.32929,2.136263,3.356985,-0.01294,0.063233,0.9710840000000001
1310,-15.503166,-0.244144,2.380407,-0.029907999999999997,0.060303999999999996,0.960464
1312,-18.554971,-3.173877,2.4414439999999997,-0.041505,0.027344,0.999527
1314,-15.869383,-5.981537,3.540093,-0.01648,0.091188,0.926284
1316,-18.738079,-5.554284,1.70901,-0.015747,0.014771000000000001,1.050309
1318,-20.569162,-5.065995,1.342794,0.001099,0.020874,1.013931
1320,-17.090104999999998,-3.234913,1.09865,-0.015625,0.005371,1.0205229999999998
1322,-16.235599,-3.234913,1.8310830000000002,-0.012085,0.019165,0.957168
1324,-14.831769,-3.173877,1.037613,-0.010620000000000001,-0.017823,1.0112459999999999
1326,-14.526589000000001,-3.418021,0.976577,-0.011109,-0.019776,1.006973
1328,-12.695506,-3.6621650000000003,0.48828900000000003,-0.012818000000000001,0.001221,0.983291
1330,-16.601816,-4.272526,0.183108,-0.057252,0.099123,1.252216
1332,-17.761501000000003,-5.432212,1.342794,-0.016602000000000002,-0.049561,0.985733
1334,-9.52163,-3.967346,2.929732,0.002441,-0.015381,0.989029
1336,-16.784924,-5.0049589999999995,3.90631,0.009522,-0.006104,0.9831690000000001
1338,-20.935378,-4.028382,2.319371,0.015503,-0.032593000000000004,0.995132
1340,-21.362631,-4.333562000000001,2.50248,0.001343,-0.010131999999999999,0.977798
1342,-28.992141999999998,-6.836042,0.48828900000000003,0.003906,-0.0094,0.968643
1344,-34.424353,-5.493248,0.854505,0.014159999999999999,-0.048707,1.002457
1346,-33.997101,-2.746624,5.127031,-0.00415,-0.056397,0.9799950000000001
1348,-36.743725,-3.723201,6.042573,-0.031617,-0.022095,0.938735
1350,-52.491035,-7.751583,3.6621650000000003,0.008301000000000001,-0.06482,1.077653
1352,-49.439231,-8.239872,-6.225681,-0.0542,-0.045045,0.962417
1354,-51.392386,-8.056764,-19.104295,-0.031495,-0.16736099999999998,0.947524
1356,-86.671244,6.775005999999999,-47.241932,0.095705,-0.276738,1.053727
1358,-21.05745,-4.577707,0.793469,0.001343,-0.15820599999999999,1.034684
1360,-59.815366000000004,0.122072,-10.559242999999999,0.0177,0.12732100000000002,0.925917
1362,-92.957961,-5.737392,6.042573,-0.06286699999999999,0.316777,0.735851
1364,-189.822232,-24.96376,-40.955215,-0.01648,0.692515,1.373556
1366,-633.85977,-10.376135000000001,15.991454999999998,-0.12878599999999998,0.293584,1.905547
1368,-768.993668,-41.138323,32.654307,-0.005493,-0.111574,0.740124
1370,-1043.1067369999998,-127.80956699999999,146.36453799999998,-0.654307,-1.736721,1.9999689999999999
1372,163.881895,-106.813153,-41.748684000000004,-0.374884,0.775647,1.9999689999999999
1374,52.857252,-41.199359,-31.799802000000003,-0.287602,0.6933699999999999,1.9999689999999999
1376,80.750744,-7.568475,4.089418,-0.21069699999999997,0.29688000000000003,1.1063399999999999
1378,130.43411899999998,9.582666,-1.953155,-0.177249,0.390997,0.340826
1380,134.218357,-6.958114,4.455634,-0.137819,0.20740100000000003,0.654795
1382,153.20058,-20.080873,3.418021,-0.059083000000000004,0.272831,0.936416
1384,200.503548,-15.930419,-7.141222,-0.006958,0.331426,1.272358
1386,234.74479300000002,-3.051804,-23.743038000000002,0.020263999999999997,0.176761,1.3582969999999999
1388,270.51194,23.804074,-34.363316999999995,-0.043336,-0.044923000000000005,1.430442
1390,294.438087,39.673457,-42.969406,0.285405,-0.253666,1.479515
1392,314.82414,73.548486,-69.092851,0.314458,-0.515267,1.31545
1394,301.823453,70.98496999999999,-79.041733,0.296635,-0.655039,1.239155
1396,283.085374,63.416495,-89.051652,0.394293,-0.719615,1.403708
1398,266.30045,57.190814,-104.432746,0.24548699999999998,-0.846571,1.427878
1400,244.266423,58.10635500000001,-99.671931,-0.13196,-0.873915,1.455711
1402,224.612802,56.031128,-75.379568,-0.30994099999999997,-0.777844,1.428977
1404,201.480125,64.271,-53.284504000000005,-0.255253,-0.656626,1.581933
1406,187.07560800000002,94.728008,-37.415122,-0.220829,-0.630259,1.6458990000000002
1408,174.013886,103.456168,-12.390326,-0.233402,-0.704234,1.746731
1410,171.938659,85.816739,17.395285,-0.10144199999999999,-0.8651260000000001,1.9999689999999999
1412,196.59723799999998,144.411383,24.353399,0.42676400000000003,-1.12929,1.76321
1414,168.520638,136.35461999999998,51.758602,0.52491,-2.0000310000000003,1.0880290000000001
1416,120.60730900000001,92.408637,45.166705,1.028214,-2.0000310000000003,0.394171
1418,6.591897,34.058137,5.7984279999999995,0.299321,-2.0000310000000003,-2.0000310000000003
1420,-233.585107,-249.14931,75.684749,1.250141,-0.511482,0.411872
1422,-293.156329,-113.09987,52.491035,-0.20508099999999999,1.184955,1.9999689999999999
1424,-238.467994,-116.151675,62.623026,0.299687,-0.727306,0.544198
1426,-327.94689900000003,-70.191501,60.66987099999999,1.085222,-0.374762,1.9999689999999999
1428,-200.62562,-58.594643999999995,22.522316,0.085573,-0.5372399999999999,1.9999689999999999
1430,-1.09865,-35.828183,-17.883574,0.7215689999999999,0.23596599999999998,1.4614479999999999
1432,-48.889905999999996,-19.836728,0.9155409999999999,-0.16833800000000002,-0.271733,1.3990690000000001
1434,-20.935378,-17.94461,1.037613,0.054565999999999996,-0.026733999999999997,1.0601969999999998
1436,4.638743,-19.531548,-0.549325,0.144045,0.092042,0.9785309999999999
1438,-18.616007,-14.404517000000002,2.197299,0.018067,0.045045,0.9862209999999999
1440,-23.437858,-9.033341,4.028382,0.046998000000000005,0.023926,1.031266
1442,-21.179522,-7.629511,3.90631,0.06006,-0.027832,1.034195
1444,-10.864424,-4.394598,3.234913,0.033448,0.059571000000000006,1.021988
1446,-7.2022580000000005,0.30518,2.685588,0.014159999999999999,-0.004761,1.0080719999999999
1448,-10.986496,-4.272526,2.014191,0.028076999999999998,0.031495,0.954849
1450,-13.611048,-4.8218510000000006,1.159686,0.027955,0.015503,0.9987950000000001
1452,-14.770732999999998,-3.723201,0.427253,0.043091000000000004,-0.010131999999999999,1.023819
1454,-10.742351,-2.075227,-0.183108,0.034668,-0.002686,0.9747459999999999
1456,-15.625238000000001,-1.647974,-0.244144,0.026733999999999997,-0.021118,1.019059
1458,-14.343481,-0.427253,0.183108,0.038209,0.0037840000000000005,0.9786530000000001
1460,-17.761501000000003,-1.09865,0.183108,0.028443,-0.008423,0.9751129999999999
1462,-24.353399,-0.48828900000000003,-0.427253,0.044923000000000005,-0.026001,1.010025
1464,-22.339208,1.342794,0.244144,0.046021,-0.038209,1.001358
1466,-16.784924,3.418021,0.48828900000000003,0.061402,-0.070069,1.057511
1468,-9.82681,7.873655,2.80766,0.040162,-0.064088,0.97145
1470,-17.94461,2.990768,1.7700470000000001,0.010864,-0.041871,0.9864649999999999
1472,-13.977264000000002,-0.061036,1.037613,0.032227,-0.06384400000000001,1.0008700000000001
1474,-11.352712,-0.671397,0.427253,0.036622,-0.062013,1.008316
1476,-16.723888,1.037613,0.244144,0.015747,-0.064088,1.006363
1478,-15.503166,0.183108,0.0,0.023926,-0.023926,0.992813
1480,-22.766461,0.854505,0.671397,0.023804,-0.054810000000000005,0.97731
1482,-24.170291,1.40383,2.80766,0.021851,-0.043091000000000004,0.9709620000000001
1484,-40.344854,5.188067,6.591897,0.008911,-0.10144199999999999,0.985367
1486,-35.584039000000004,6.103609,5.249104,0.004639,-0.058473000000000004,1.023087
1488,-43.945983,5.981537,2.136263,-0.028564999999999997,-0.101564,1.021866
1490,-39.673457,1.647974,-7.263294,-0.046021,-0.1084,0.988174
1492,-34.973678,0.6103609999999999,-14.160372,-0.080079,-0.185428,1.171038
1494,-35.034714,5.859464,-32.471199,0.122072,-0.3888,1.071672
1496,-8.911269,0.793469,-7.2022580000000005,-0.019287000000000002,0.158816,0.979873
1498,-114.747845,20.325017000000003,-28.931106,0.059571000000000006,0.32654299999999997,0.710704
1500,-166.62851899999998,-17.334249,-37.720302000000004,0.018189,0.834119,0.969375
1502,-510.811017,-23.010604999999998,-60.914015,-0.557504,0.110231,1.153704
1504,-701.731899,-206.912337,29.17525,-0.226444,-0.353643,0.83241
1506,-836.560617,-269.10811,96.49805400000001,0.9277489999999999,-2.0000310000000003,1.9999689999999999
1508,-109.37666899999999,-181.460288,-21.850919,0.40369299999999997,-0.803235,1.9999689999999999
1510,168.093385,22.583351999999998,-88.685435,-0.029419,1.175067,1.9999689999999999
1512,60.914015,24.597542999999998,-3.234913,-0.521004,0.196414,1.215473
1514,202.944991,38.269627,11.963073,-0.431037,0.127565,0.150393
1516,144.655528,17.700464999999998,43.030442,-0.22204899999999997,0.06713999999999999,0.42005
1518,181.21614399999999,24.536507,38.452735,0.067628,0.29639099999999996,0.708263
1520,200.01525900000001,36.804761,19.836728,0.234379,0.261112,1.083391
1522,233.40199900000002,44.373236,-14.343481,0.503059,0.019165,1.30898
1524,268.863966,57.984283,-54.505226,0.41663199999999995,-0.32874000000000003,1.169818
1526,274.113069,55.359731000000004,-71.16807800000001,0.135256,-0.6678569999999999,1.139666
1528,271.244373,47.486076000000004,-64.02685600000001,-0.0094,-0.830945,1.241962
1530,264.04211499999997,49.256122999999995,-47.608148,-0.125978,-0.951675,1.141985
1532,236.27069500000002,49.073014,-28.381781,-0.0907,-0.981216,0.9837799999999999
1534,194.583047,60.852979000000005,-12.756542,-0.06006,-0.798108,0.933486
1536,156.374456,45.410849,2.4414439999999997,-0.114015,-0.680797,1.767239
1538,189.39498,46.387427,9.82681,-0.123171,-0.719005,1.9999689999999999
1540,213.56527000000003,77.882048,23.559929999999998,-0.187747,-0.80238,1.809964
1542,211.42900699999998,74.158846,42.847333,0.035035000000000004,-0.91664,1.347433
1544,172.42694699999998,93.018997,32.837415,0.628672,-0.922377,0.849744
1546,115.84649399999999,101.747158,5.61532,0.589609,-1.183978,0.83595
1548,72.816052,80.567636,-4.8218510000000006,0.454475,-1.524437,0.869398
1550,53.467613,67.383841,-26.001373,0.556527,-1.7153580000000002,0.792859
1552,-43.152514000000004,-15.503166,-15.625238000000001,0.172976,-1.958404,-0.33875
1554,-110.170138,-141.725795,15.503166,0.472541,-1.806546,-0.12219400000000001
1556,-48.401617,-45.654994,-27.527276,-0.179446,0.667979,1.440452
1558,-230.472267,-99.000534,33.875029,0.006836,-0.059449,0.97377
1560,-161.989776,-65.735866,27.893492,-0.291875,-0.442512,1.9999689999999999
1562,-6.225681,-46.509499,-2.014191,0.807996,-0.350225,1.82388
1564,-86.488136,-8.484016,15.503166,-0.337041,0.053956,0.854627
1566,-14.648660999999999,-11.23064,5.249104,0.127199,0.061646000000000006,1.043717
1568,-39.612421000000005,-10.131991000000001,5.432212,-0.066041,-0.0051270000000000005,1.029435
1570,-29.297321999999998,-11.963073,1.8921189999999999,0.042969,0.042359,1.010025
1572,-29.297321999999998,-10.254063,1.525902,0.029907999999999997,0.048096,1.057267
1574,-31.677729,-5.432212,2.868696,0.026123,-0.007324,1.015152
1576,-35.461967,-8.911269,4.150454,-0.027587999999999998,0.0015869999999999999,0.986099
1578,-27.771420000000003,-12.939651,0.854505,0.019287000000000002,-0.003296,0.989517
1580,-28.931106,-12.32929,-0.549325,0.025513,-0.054444000000000006,1.0720379999999998
1582,-22.705425,-7.751583,-0.183108,0.028564999999999997,-0.044312,1.013443
1584,-18.860151000000002,-4.943923000000001,0.671397,0.026001,-0.05285700000000001,1.033219
1586,-13.855192,-4.21149,0.366217,0.001099,-0.040772,1.016129
1588,-10.131991000000001,-3.723201,-0.183108,0.025147,-0.056031,1.0251620000000001
1590,-8.972305,-3.051804,-0.366217,0.017212,-0.051637,0.993057
1592,-6.652933999999999,-2.197299,-0.122072,0.025269,-0.05139199999999999,1.002945
1594,-7.2022580000000005,-1.7700470000000001,0.0,0.016846,-0.052003,1.00502
1596,-5.737392,-2.014191,-0.244144,0.023681999999999998,-0.060303999999999996,0.9959870000000001
1598,-3.1128400000000003,-1.586938,-0.549325,0.025269,-0.06543099999999999,1.0118559999999999
1600,-2.319371,-1.586938,-1.159686,0.015503,-0.048341,0.9858549999999999
1602,-3.6011290000000002,-1.8921189999999999,-0.976577,0.037232,-0.064332,1.006241
1604,-3.356985,-0.48828900000000003,-0.183108,0.029907999999999997,-0.062501,1.005631
1606,-1.7700470000000001,-0.183108,0.061036,0.0365,-0.061646000000000006,1.004532
1608,-0.48828900000000003,1.159686,0.366217,0.029419,-0.06225700000000001,1.008682
1610,-0.9155409999999999,2.075227,0.366217,0.028564999999999997,-0.07190099999999999,1.0309
1612,1.586938,2.50248,0.732433,0.014038,-0.03125,0.9786530000000001
1614,-3.90631,1.037613,1.159686,0.015747,-0.049683,0.978775
1616,-4.5166699999999995,0.366217,1.2207219999999999,0.025513,-0.061524,1.013565
1618,-3.845274,0.366217,-0.183108,0.030151999999999998,-0.06958099999999999,1.0011139999999998
1620,0.244144,1.342794,-0.6103609999999999,0.028808999999999998,-0.06958099999999999,1.0040440000000002
1622,0.061036,2.929732,-0.244144,0.03418,-0.077394,1.021866
1624,4.455634,4.699779,1.647974,0.019653999999999998,-0.067262,0.9547260000000001
1626,-2.136263,2.014191,1.159686,0.001465,-0.033692,0.980484
1628,-2.014191,1.09865,0.793469,0.004639,-0.06347799999999999,0.993179
1630,-1.70901,-0.061036,-0.244144,0.002686,-0.058838999999999995,1.005997
1632,-0.793469,-1.464866,-1.2207219999999999,0.010986,-0.06421,1.006119
1634,-0.549325,-2.319371,-1.647974,0.01709,-0.054810000000000005,0.9869540000000001
1636,-1.09865,-2.197299,-1.464866,0.021363,-0.054688,0.9911040000000001
1638,-3.784237,-1.342794,-0.671397,0.023926,-0.067872,1.0078280000000002
1640,-5.065995,-0.6103609999999999,-0.30518,0.016724,-0.06225700000000001,1.0037989999999999
1642,-1.70901,-0.427253,-0.427253,0.022095,-0.065309,1.007706
1644,0.6103609999999999,-0.6103609999999999,-0.6103609999999999,0.018067,-0.071656,1.014054
1646,1.464866,-0.48828900000000003,-0.732433,0.024903,-0.078859,1.0080719999999999
1648,4.5166699999999995,-0.122072,-0.671397,0.017334,-0.06836,1.007584
1650,4.028382,0.793469,-0.366217,0.028687,-0.078248,1.023087
1652,6.836042,2.80766,0.244144,0.028687,-0.061402,1.014542
1654,9.82681,3.90631,0.48828900000000003,0.022338999999999998,-0.069215,1.014542
1656,11.963073,3.90631,0.244144,0.01648,-0.062013,1.009781
1658,14.160372,3.723201,-0.9155409999999999,0.029907999999999997,-0.046387,1.0118559999999999
1660,16.662851999999997,5.127031,-0.976577,-0.004639,-0.029297000000000004,0.942031
1662,-2.075227,0.671397,-0.366217,-0.003296,-0.006226,0.9521629999999999
1664,2.990768,1.09865,-0.427253,0.031495,-0.037842,1.002701
1666,2.075227,0.854505,-0.366217,0.005249,-0.046387,1.00209
1668,2.50248,-0.244144,-1.037613,0.0015869999999999999,-0.047852,0.9904940000000001
1670,2.075227,-1.342794,-1.586938,0.003906,-0.03125,0.99379
1672,2.2583349999999998,-0.48828900000000003,-0.366217,0.018067,-0.035889,1.001236
1674,-1.037613,0.671397,0.976577,0.033936,-0.034791,1.017594
1676,4.455634,1.8921189999999999,1.342794,0.000732,-0.098756,1.0709389999999999
1678,15.869383,1.70901,0.549325,-0.034668,-0.028321,0.9830469999999999
1680,9.460594,-1.281758,-1.40383,0.016724,-0.000366,0.9657129999999999
1682,13.244831,-0.427253,-1.464866,0.0015869999999999999,-0.0271,0.9826809999999999
1684,-1.40383,-0.30518,-1.2207219999999999,-0.019532,0.08484,0.8486459999999999
1686,-22.644388,-3.295949,-1.281758,0.041260000000000005,-0.091188,1.100114
1688,-3.540093,2.929732,0.976577,0.0365,0.0051270000000000005,1.000381
1690,-4.577707,4.150454,2.014191,-0.015625,-0.01001,0.961318
1692,-5.371176,-2.319371,-1.953155,0.008789,-0.080934,1.072892
1694,8.239872,-1.7700470000000001,-2.136263,0.003906,0.007568000000000001,0.9388569999999999
1696,-10.315099,-2.014191,-0.427253,0.002441,0.060548000000000005,0.9229879999999999
1698,-19.104295,-0.671397,0.793469,0.027466,-0.066896,1.0515299999999999
1700,-7.446403,0.48828900000000003,0.793469,-0.034791,-0.013306,0.9480129999999999
1702,-11.413748,-6.225681,-3.418021,0.01648,-0.209598,1.140764
1704,-0.6103609999999999,-4.638743,-3.173877,0.045899,-0.122805,1.090349
1706,18.371862,-2.197299,-1.647974,0.041749,0.060182000000000006,0.898817
1708,3.051804,-2.075227,-1.647974,0.019898,0.0021969999999999997,0.95021
1710,-6.775005999999999,-3.6011290000000002,-2.2583349999999998,0.000122,-0.115846,1.0724040000000001
1712,4.5166699999999995,-4.028382,-2.075227,0.038697,-0.012573,0.980117
1714,-5.7984279999999995,-5.065995,-1.525902,-0.00293,-0.031006,0.9863430000000001
1716,-8.484016,-6.897078,-3.6621650000000003,0.028076999999999998,-0.058717,1.031998
1718,3.418021,-4.089418,-2.685588,0.029786,-0.045533,0.985489
1720,3.967346,-3.356985,-2.075227,0.022705,-0.028443,0.992935
1722,-10.620279,-1.464866,-1.70901,0.006836,-0.032593000000000004,0.9746239999999999
1724,-8.361944,0.0,-1.2207219999999999,0.049683,-0.02295,0.9906159999999999
1726,-11.169604,-0.854505,-1.09865,0.0177,-0.049317,0.9952540000000001
1728,-10.986496,-0.854505,-1.342794,0.043336,-0.07434199999999999,1.031876
1730,-6.652933999999999,-0.549325,-1.40383,0.017823,-0.07470800000000001,1.010758
1732,0.427253,-0.549325,-1.09865,0.030518,-0.047608,0.9983059999999999
1734,-2.80766,-0.854505,-0.793469,0.019409,-0.066285,1.004532
1736,-1.953155,-0.9155409999999999,-1.40383,0.03418,-0.06421,1.0245520000000001
1738,2.990768,0.549325,-0.427253,0.031127999999999996,-0.070802,1.010758
1740,2.746624,0.183108,0.122072,0.022583000000000002,-0.062989,1.010513
1742,5.371176,-0.732433,-0.549325,0.028321,-0.041505,0.9820709999999999
1744,5.065995,-1.464866,-1.281758,0.026733999999999997,-0.053834,1.003311
1746,2.868696,-0.6103609999999999,-1.09865,0.026733999999999997,-0.047852,0.995743
1748,3.6621650000000003,-0.244144,-0.9155409999999999,0.033326,-0.061646000000000006,1.017227
1750,6.2867169999999994,0.48828900000000003,-0.244144,0.029175,-0.055299,0.9994049999999999
1752,6.103609,0.427253,-0.30518,0.028076999999999998,-0.041016000000000004,0.985489
1754,5.249104,0.48828900000000003,-1.037613,0.019532,-0.028321,0.976699
1756,-5.065995,0.30518,0.0,0.040894,-0.030274000000000002,0.997086
1758,-3.1128400000000003,0.671397,0.0,0.045045,-0.076539,0.9674219999999999
1760,-1.70901,1.40383,-0.30518,0.023926,-0.044923000000000005,0.996719
1762,-3.6621650000000003,1.281758,-1.342794,0.013062,-0.052979,1.0116120000000002
1764,-1.70901,-0.061036,-0.427253,0.022705,-0.05505499999999999,1.010758
1766,1.8310830000000002,0.854505,0.061036,-0.01001,-0.031617,0.9826809999999999
1768,1.525902,0.671397,-0.366217,0.012451,-0.045411,0.991958
1770,0.427253,0.183108,0.0,0.026368,-0.053346000000000005,1.006119
1772,7.629511,0.48828900000000003,-0.671397,0.023681999999999998,-0.018555000000000002,0.9948879999999999
1774,8.789197,-0.732433,0.854505,0.013184,-0.030883999999999998,0.9867090000000001
1776,3.723201,-1.40383,0.9155409999999999,0.023681999999999998,-0.042725,1.00502
1778,2.80766,-1.09865,-0.183108,0.029175,-0.043336,1.0042879999999998
1780,0.48828900000000003,-0.244144,-0.122072,0.027587999999999998,-0.037842,1.0011139999999998
1782,2.990768,0.061036,-0.183108,0.018067,-0.040527999999999995,1.0057530000000001
1784,2.990768,-1.09865,0.0,0.027344,-0.041260000000000005,0.999771
1786,3.295949,-1.40383,0.122072,0.024903,-0.04358,1.000137
1788,7.629511,-1.464866,0.9155409999999999,0.028564999999999997,-0.040527999999999995,1.000259
1790,7.324331,-1.2207219999999999,2.50248,0.011719,-0.041016000000000004,0.9896389999999999
1792,8.1178,-1.2207219999999999,4.943923000000001,0.027222000000000003,-0.031738999999999996,1.011002
1794,3.967346,-1.647974,5.7984279999999995,0.044677999999999995,-0.012573,0.9824370000000001
1796,-0.366217,-1.281758,2.50248,0.018311,-0.014282,0.9944
1798,0.732433,-0.854505,0.671397,0.028443,-0.020996,0.993057
1800,1.586938,-1.342794,1.647974,0.020142,-0.040406,1.006607
1802,8.42298,-1.586938,4.21149,0.008179,-0.055542999999999995,1.003311
1804,6.225681,-0.976577,3.6011290000000002,0.039063,-0.016114,0.978042
1806,1.464866,-0.122072,0.793469,0.037598,-0.009644,1.0037989999999999
1808,-0.366217,0.122072,-0.671397,0.03418,-0.0070799999999999995,0.9834129999999999
1810,2.868696,-0.549325,0.061036,0.033326,-0.016846,0.996475
1812,6.897078,-0.732433,1.40383,0.029786,-0.025757,1.0036770000000002
1814,4.272526,-0.366217,2.075227,0.036255,0.004639,0.9976959999999999
1816,-1.281758,0.122072,0.0,0.033814,-0.016358,0.999283
1818,-3.784237,0.976577,-1.586938,0.029541,-0.031617,1.0047760000000001
1820,5.9205,1.464866,-2.929732,0.018189,-0.032837,1.0089270000000001
1822,8.056764,0.854505,-3.051804,0.036988,-0.005005,1.006607
1824,2.685588,2.746624,-7.385367,0.042602999999999995,0.009155,0.9834129999999999
