Packet number,Gyroscope X (deg/s),Gyroscope Y (deg/s),Gyroscope Z (deg/s),Accelerometer X (g),Accelerometer Y (g),Accelerometer Z (g)
0,0.305180,0.244144,0.061036,-0.010864,0.016236,0.991592
1,0.061036,0.122072,0.000000,-0.005371,0.012085,0.997208
2,0.122072,0.122072,0.061036,-0.013184,0.004517,0.995987
3,0.366217,-0.122072,0.122072,0.000977,0.020020,0.996963
4,-0.854505,0.061036,0.000000,-0.015137,0.006714,0.999405
5,0.244144,0.000000,0.000000,-0.004517,0.014649,0.993423
6,-0.793469,0.000000,0.000000,-0.011231,0.012573,0.994766
7,-0.427253,-0.061036,0.000000,-0.001221,0.010986,1.001358
8,-0.488289,-0.183108,0.000000,-0.003906,0.015747,1.009781
9,-0.915541,-0.061036,-0.122072,-0.006470,0.002686,1.004654
10,0.366217,0.122072,0.000000,-0.008179,0.010498,0.994644
11,-0.305180,0.183108,0.061036,-0.006836,0.009277,1.000748
12,0.366217,0.122072,0.000000,-0.006836,0.010498,1.005753
13,0.244144,0.244144,0.000000,-0.009033,0.005615,0.998550
14,0.183108,-0.183108,0.000000,-0.003052,0.022461,0.991104
15,-0.305180,-0.061036,-0.183108,-0.009522,0.009400,1.005753
16,0.183108,0.000000,0.000000,-0.004028,0.004761,0.998795
17,0.305180,0.183108,-0.122072,-0.010132,0.018433,0.997696
18,-0.427253,-0.671397,0.000000,-0.000977,0.012207,1.006485
19,-0.488289,-0.244144,-0.183108,-0.007446,0.011597,0.996841
20,-0.427253,-0.610361,0.000000,-0.005127,0.015503,1.022843
21,0.061036,-0.488289,0.000000,0.011963,0.018677,1.007706
22,-0.793469,-0.244144,0.000000,-0.005371,0.002197,1.010513
23,1.098650,0.061036,0.000000,0.000366,0.010498,0.993912
24,-0.244144,0.061036,0.000000,-0.024903,0.004761,0.998062
25,0.610361,-0.366217,0.000000,0.018189,0.004883,1.007950
26,0.183108,0.183108,0.000000,-0.013672,0.007446,0.994034
27,1.037613,0.122072,-0.122072,-0.023682,0.018311,0.994400
28,-0.061036,-0.305180,-0.122072,0.000122,0.007568,0.996475
29,0.427253,0.000000,0.000000,-0.016602,0.012451,0.996475
30,0.610361,-0.244144,-0.183108,0.004150,0.025391,1.000015
31,-0.305180,-0.061036,0.000000,-0.008179,0.005127,0.996597
32,1.159686,0.000000,-0.122072,-0.008179,0.023438,0.987930
33,-1.892119,-0.488289,0.000000,-0.008301,0.003906,1.010269
34,1.037613,0.061036,-0.183108,-0.005615,0.007324,0.997696
35,-0.915541,-0.305180,0.000000,-0.016480,0.009277,0.993545
36,0.000000,0.122072,0.000000,-0.000366,0.008179,1.005875
37,0.000000,0.061036,0.000000,-0.015137,0.014649,0.981338
38,-1.281758,-0.427253,0.122072,0.008789,0.004761,1.021500
39,1.342794,0.183108,-0.183108,-0.011597,0.012573,1.002335
40,-0.732433,-0.061036,0.000000,-0.006226,0.010742,1.003067
41,0.488289,0.122072,0.000000,-0.010376,0.012696,1.000504
42,-0.244144,-0.061036,-0.122072,-0.004028,0.012696,0.989639
43,-0.183108,-0.305180,0.000000,-0.005371,0.008545,0.995621
44,-0.244144,-0.305180,-0.122072,-0.010742,0.010132,0.995621
45,-0.183108,-0.305180,-0.122072,-0.008911,0.011963,0.997940
46,-0.427253,-0.366217,-0.183108,-0.007080,0.013672,1.003677
47,-0.305180,-0.366217,0.000000,-0.004639,0.010986,1.002090
48,-0.061036,-0.183108,0.000000,-0.006958,0.009522,0.994888
49,-0.061036,-0.183108,0.000000,-0.005615,0.015381,0.994034
50,-0.305180,-0.366217,0.061036,-0.009522,0.008789,0.999527
51,-0.427253,-0.488289,0.000000,-0.005005,0.009155,1.004288
52,-0.488289,-0.427253,0.000000,-0.004150,0.000366,1.016861
53,0.854505,0.122072,0.000000,-0.006592,0.011353,1.003067
54,0.854505,0.122072,0.061036,-0.013550,0.010864,0.986831
55,0.915541,-0.488289,0.061036,-0.014160,0.009644,0.992081
56,1.037613,-0.793469,0.061036,-0.012696,0.015015,1.006851
57,1.525902,-0.854505,0.061036,-0.009155,0.021363,1.012955
58,1.709010,-0.488289,-0.122072,-0.028199,0.004028,0.949233
59,1.770047,-1.464866,0.000000,-0.005005,0.008789,1.007462
60,1.953155,-1.647974,-0.122072,-0.011719,0.005005,1.007950
61,2.990768,-2.014191,-0.305180,-0.001221,0.007080,1.006119
62,3.295949,-2.014191,-0.366217,-0.005005,0.010498,1.014420
63,4.028382,-1.953155,-0.610361,0.004150,0.005615,1.018204
64,5.859464,-1.281758,-0.366217,0.002441,0.006714,1.016983
65,6.408789,-0.854505,-0.122072,-0.019654,-0.001587,1.020157
66,9.521630,-1.281758,-0.122072,0.018677,0.024781,1.005020
67,7.324331,-0.732433,-0.183108,-0.017578,0.031617,0.984756
68,6.530861,-1.525902,-0.122072,-0.005371,0.018067,1.001846
69,8.239872,-1.281758,-0.366217,-0.010498,0.034913,0.979019
70,5.981537,-1.892119,-0.305180,-0.008911,0.030640,0.983413
71,5.859464,-1.953155,-0.305180,-0.000488,0.025757,1.001602
72,5.737392,-1.709010,-0.244144,0.002319,0.025147,1.002579
73,6.286717,-1.281758,-0.122072,0.003784,0.025757,0.991470
74,5.615320,-1.098650,0.183108,-0.003906,0.037110,0.989273
75,5.310140,-1.098650,0.244144,-0.009522,0.032837,0.989639
76,4.333562,-1.403830,0.244144,-0.005859,0.034546,0.993423
77,4.394598,-1.464866,0.305180,0.000610,0.029664,1.005631
78,5.065995,-1.586938,0.000000,-0.002930,0.040528,0.975967
79,3.479057,-2.075227,0.000000,-0.005005,0.036622,0.980850
80,3.173877,-2.136263,-0.122072,0.006348,0.036133,0.991104
81,2.807660,-1.770047,0.061036,0.009766,0.034180,0.993912
82,2.624552,-1.281758,0.061036,-0.000244,0.036133,0.992325
83,2.990768,-1.403830,0.305180,-0.002930,0.039429,0.989639
84,2.807660,-1.647974,0.305180,0.004028,0.030396,0.985611
85,2.685588,-1.709010,0.305180,-0.000732,0.040162,0.988785
86,1.831083,-1.770047,0.427253,-0.011963,0.039796,0.980728
87,1.403830,-2.624552,0.854505,0.004883,0.033570,0.989883
88,1.464866,-2.502480,0.976577,-0.002441,0.035035,1.010758
89,3.295949,-2.502480,0.549325,-0.008423,0.042847,0.976577
90,1.953155,-3.295949,0.488289,0.011231,0.051392,0.962051
91,0.061036,-2.685588,0.244144,0.001465,0.055299,0.964614
92,-2.624552,-2.319371,0.366217,0.016724,0.039551,0.989517
93,-2.685588,-1.403830,0.549325,0.002564,0.030030,1.011124
94,-0.305180,-0.732433,0.671397,-0.000488,0.037964,1.005753
95,-1.953155,-1.037613,1.159686,0.002075,0.022705,1.022843
96,2.075227,-0.732433,0.793469,0.014649,0.022461,1.003311
97,2.380407,-1.037613,0.732433,-0.000977,0.027466,0.965225
98,2.197299,-1.892119,0.122072,-0.000244,0.066651,0.976822
99,-1.586938,-3.112840,0.000000,0.011109,0.046998,0.997574
100,1.159686,-2.563516,-0.793469,0.014893,0.051270,0.981216
101,-1.464866,-2.441444,-0.671397,0.014405,0.048829,1.001602
102,-2.441444,-1.586938,-0.366217,0.031006,0.040040,1.026017
103,-1.464866,0.488289,0.122072,0.021729,0.027588,1.023697
104,-0.305180,1.953155,0.366217,0.009766,0.045411,0.998062
105,-2.075227,1.647974,0.488289,-0.000366,0.035401,1.011978
106,-1.037613,1.403830,0.427253,0.003784,0.032715,1.009415
107,-0.366217,1.098650,0.244144,-0.004028,0.026856,1.008438
108,1.586938,0.732433,0.000000,0.011353,0.030274,1.011246
109,2.746624,0.854505,-0.305180,0.000122,0.045655,0.963272
110,1.342794,0.427253,-0.488289,0.001465,0.071290,0.980728
111,-2.685588,-0.061036,-0.305180,0.007080,0.043580,0.993668
112,-1.586938,0.488289,-0.183108,0.013184,0.054322,0.976822
113,-5.432212,0.793469,0.000000,0.012940,0.042969,0.989639
114,-4.455634,1.953155,0.000000,0.029664,0.034791,1.016129
115,-5.004959,3.662165,0.305180,0.010254,0.036255,0.998550
116,-5.188067,4.089418,0.732433,0.003540,0.041138,1.000015
117,-4.760815,4.272526,0.671397,-0.010498,0.035157,0.990616
118,-5.310140,3.295949,0.549325,-0.010742,0.033814,0.997452
119,-4.699779,2.197299,0.305180,-0.012085,0.032837,0.990860
120,-4.333562,1.342794,0.122072,-0.007691,0.023560,1.004410
121,-2.502480,1.037613,-0.122072,0.001953,0.034180,0.989273
122,-2.929732,0.732433,-0.366217,-0.008911,0.034180,0.996841
123,-2.929732,0.488289,-0.183108,0.007324,0.022583,1.013077
124,-1.709010,0.671397,-0.183108,-0.004517,0.031128,0.993057
125,-2.075227,-0.061036,-0.183108,-0.008423,0.021729,1.001236
126,-1.098650,-0.244144,0.000000,-0.000610,0.019898,1.008072
127,-0.122072,-0.183108,0.000000,-0.003906,0.029053,1.003922
128,0.305180,-0.244144,0.122072,-0.001953,0.029908,0.996963
129,0.610361,-0.427253,0.366217,-0.014282,0.058717,0.989029
130,-0.427253,-1.403830,0.488289,-0.016358,0.043824,0.958755
131,-2.258335,-2.136263,0.366217,-0.017456,0.052979,0.972183
132,-4.760815,-3.295949,0.488289,-0.001099,0.041627,0.970840
133,-5.737392,-3.906310,0.122072,-0.007080,0.039673,0.975479
134,-7.507439,-4.699779,0.122072,0.001099,0.019898,0.998672
135,-5.310140,-4.516670,0.061036,0.006592,0.026368,1.011978
136,-4.943923,-4.211490,0.061036,-0.000610,0.017578,1.019669
137,-3.662165,-3.967346,0.000000,-0.000488,0.051026,1.039322
138,-2.868696,-4.089418,0.244144,0.021241,-0.002075,1.014420
139,-1.831083,-3.662165,0.305180,0.004150,0.022339,1.007706
140,-0.915541,-3.784237,0.427253,0.004639,0.043091,0.959731
141,-4.577707,-5.004959,0.671397,0.004150,0.037842,0.971695
142,-5.981537,-5.493248,0.732433,0.008789,0.035035,0.978897
143,-7.141222,-5.127031,0.854505,0.015137,0.033448,0.984756
144,-9.643702,-4.577707,1.159686,0.022461,0.015747,0.994888
145,-8.911269,-3.784237,1.464866,0.008179,0.013062,0.990982
146,-8.972305,-4.089418,1.525902,0.007691,0.022827,0.980117
147,-10.498207,-5.065995,1.464866,0.013062,0.008301,1.011002
148,-8.117800,-4.760815,1.098650,0.006226,0.003906,1.010025
149,-8.239872,-4.821851,1.037613,0.000610,0.024170,1.008194
150,-8.667124,-5.065995,1.647974,0.021485,0.006348,0.998795
151,-8.606088,-5.065995,1.709010,0.000732,0.022827,0.962051
152,-12.756542,-6.775006,2.258335,-0.003052,0.033448,0.922988
153,-18.921187,-8.911269,2.807660,-0.005249,0.033936,0.927993
154,-24.170291,-10.437171,3.234913,0.020386,0.012696,0.980240
155,-23.193713,-9.399557,2.929732,0.020020,0.014527,0.977310
156,-24.963760,-8.484016,2.807660,0.037598,0.025025,1.011124
157,-28.320745,-6.591897,2.990768,0.052979,-0.006104,1.035660
158,-25.757229,-3.784237,2.929732,0.045289,0.022095,1.043839
159,-24.231327,-2.929732,2.929732,0.031861,-0.003296,1.025040
160,-25.085832,-2.136263,2.685588,0.023194,-0.002075,0.996841
161,-25.940337,-2.258335,2.441444,0.025391,-0.036866,0.995254
162,-24.902724,-2.685588,1.647974,0.030030,-0.006470,1.000748
163,-26.062409,-0.671397,0.000000,0.089601,0.083253,0.910048
164,-47.180896,2.868696,1.098650,-0.035889,0.038453,0.905409
165,-60.486763,-1.586938,4.943923,0.067262,-0.038453,1.049332
166,-49.256123,2.502480,3.723201,0.000610,-0.053590,1.008316
167,-49.683375,1.647974,3.356985,0.051881,-0.122683,1.022721
168,-51.331350,7.446403,1.831083,0.017578,-0.064088,0.999283
169,-45.227741,8.667124,-1.892119,-0.013428,-0.092897,1.063737
170,-36.072328,10.193027,-3.723201,-0.067140,-0.024048,1.091691
171,-40.344854,4.272526,-13.122759,-0.081788,0.044923,1.148943
172,-55.786984,13.000687,-31.555657,0.012696,-0.043702,0.890394
173,-64.148928,15.503166,-39.795529,0.083253,-0.216800,0.986099
174,-50.415808,9.216449,-18.738079,0.083497,-0.135378,1.051164
175,-64.332036,4.089418,-13.794156,-0.005127,-0.125246,1.026139
176,-74.891279,2.502480,-11.657893,0.061036,-0.163577,1.020645
177,-67.872129,3.173877,-7.263294,0.003052,-0.147097,0.988418
178,-66.529335,3.356985,-3.295949,0.086549,0.055665,0.886488
179,-83.802548,1.709010,-9.460594,-0.005493,0.026368,0.827161
180,-135.866331,3.295949,-0.244144,0.070924,-0.062867,1.021500
181,-123.231861,12.878614,-16.357671,0.137209,0.403449,0.924697
182,-193.423362,12.329290,-43.396658,-0.138918,0.166995,1.151263
183,-317.570764,17.029068,-14.831769,0.061524,-0.016602,1.151751
184,-369.756619,42.786297,-15.259022,0.255741,0.322515,1.962799
185,-407.965209,71.900511,-30.212863,0.153079,-0.002808,1.529320
186,-460.883497,88.075074,-10.376135,-0.032105,-0.049683,1.439841
187,-501.594568,124.574655,51.819638,-0.512093,-1.265522,1.999969
188,-578.133822,99.183642,111.879149,-2.000031,0.564218,1.999969
189,-140.077821,-8.422980,12.939651,-0.715099,-0.850111,1.999969
190,202.700847,13.855192,23.926146,-0.648325,0.459602,1.999969
191,79.896239,2.929732,24.841688,0.101686,0.672496,1.240497
192,-67.505913,-20.935378,69.336996,0.343023,0.797986,0.607065
193,-51.819638,-17.822538,45.105669,0.840467,0.473396,0.598398
194,18.554971,6.713970,-20.569162,0.853162,0.696056,0.593515
195,-12.146181,7.324331,-50.598917,0.784680,0.819715,0.768078
196,-23.620966,7.995727,-74.402991,0.523323,0.646128,1.111711
197,30.884260,1.464866,-94.972152,0.268193,0.647837,1.182513
198,53.223468,-17.578393,-100.587472,0.066896,0.625376,1.135515
199,68.421454,-36.011292,-96.620127,-0.072633,0.518196,1.220356
200,101.625086,-43.335622,-92.896925,-0.169558,0.468147,1.223407
201,122.011139,-41.138323,-87.037461,-0.225834,0.440192,1.213764
202,136.232548,-28.870069,-80.079347,-0.273930,0.363775,1.268818
203,155.825132,-11.902037,-71.900511,-0.352911,0.303960,1.272602
204,173.830777,0.732433,-60.059510,-0.394049,0.252811,1.168109
205,185.854887,5.371176,-45.410849,-0.393805,0.186526,1.047379
206,197.817960,2.685588,-30.701152,-0.328862,0.171878,0.981460
207,203.982605,-4.150454,-18.432898,-0.217411,0.168704,1.042374
208,211.062791,-8.667124,-11.657893,-0.085695,0.186770,1.227924
209,223.392081,-5.554284,-11.596857,0.035523,0.207767,1.348775
210,233.646143,1.342794,-17.456321,0.109499,0.175296,1.430198
211,242.435340,13.977264,-26.062409,0.162844,0.085084,1.382712
212,245.120928,30.823224,-35.034714,0.132570,-0.080690,1.198016
213,239.749752,48.096437,-40.222782,0.119753,-0.192386,0.972915
214,223.514153,56.031128,-41.382467,0.069093,-0.225834,0.981582
215,207.949950,56.214237,-39.917601,0.055299,-0.196536,1.163592
216,196.169986,54.322118,-37.048905,0.047364,-0.103273,1.601587
217,188.906691,52.124819,-33.264668,0.065797,-0.108522,1.999969
218,207.156481,51.514458,-30.701152,0.061402,-0.256840,1.999969
219,232.364385,49.317159,-31.006332,0.077760,-0.364141,1.907744
220,229.983978,44.251164,-31.494621,0.075807,-0.437751,1.773709
221,221.927214,36.072328,-31.860838,0.020020,-0.521736,1.925811
222,228.641184,29.480430,-33.447776,-0.037354,-0.573739,1.999969
223,237.491417,27.344167,-34.302281,-0.064210,-0.621958,1.973785
224,241.092546,30.457008,-34.119173,-0.039796,-0.659068,1.731106
225,234.866865,37.476158,-33.875029,0.007813,-0.680186,1.530663
226,221.683070,44.312200,-32.837415,0.040772,-0.728283,1.451926
227,209.292744,49.317159,-30.029755,0.057252,-0.795544,1.377340
228,196.963455,50.354772,-26.123445,0.090455,-0.855726,1.326192
229,180.972000,50.232700,-23.620966,0.142458,-0.976822,1.404440
230,169.619287,54.016938,-24.231327,0.215946,-1.223896,1.296651
231,158.388647,60.852979,-32.715343,0.326543,-1.503075,1.110735
232,135.866331,73.121233,-44.434272,0.420661,-1.843900,0.837293
233,110.170138,98.084993,-58.655680,0.325811,-2.000031,0.455695
234,85.755703,118.654154,-58.838788,0.079103,-2.000031,-0.189578
235,38.452735,98.023957,-36.133364,-0.205692,-2.000031,-0.583993
236,-27.466239,33.752956,2.014191,-0.572641,-2.000031,-2.000031
237,-132.692454,-111.512932,64.759289,-0.314214,-1.624659,-0.671763
238,-175.234607,-186.343175,90.516518,0.380011,-1.528588,0.139040
239,-226.260777,-132.387274,85.267414,0.373297,-1.416037,0.991714
240,-212.527657,-69.520104,80.140383,-0.031983,-0.493904,1.038224
241,-149.294270,-86.182956,72.938125,0.414435,0.615610,1.999969
242,-190.310521,-80.262455,68.665599,1.047868,0.711803,1.745144
243,-241.763943,-62.623026,50.110628,1.140887,0.062501,1.183978
244,-234.256504,-40.833143,28.870069,1.011002,-0.107424,1.547631
245,-220.218204,-24.048219,9.521630,0.662242,-0.102785,1.999969
246,-182.742046,1.525902,-2.014191,-0.153811,-0.384649,1.999969
247,-100.343328,12.695506,-1.525902,-1.169940,-0.370001,1.481224
248,-107.972839,-57.312886,38.330663,-1.147723,-0.218997,1.551415
249,-67.627985,-105.836576,45.838102,0.458625,0.238773,1.999969
250,-34.973678,-79.041733,17.456321,1.933379,0.397467,1.999969
251,-29.968719,7.995727,-9.277485,0.236454,-0.011231,1.076677
252,-43.152514,2.929732,-3.845274,-0.876600,-0.109987,1.104509
253,-43.762875,-41.016251,9.826810,0.064210,-0.078126,1.125994
254,-10.620279,-26.611734,-2.380407,0.396612,0.142214,1.214984
255,-36.926833,-9.033341,-0.122072,-0.006104,-0.045289,1.167132
256,-17.883574,-8.606088,0.976577,-0.010864,-0.014771,1.162982
257,1.281758,-6.591897,-1.709010,0.037110,0.160769,0.866346
258,-26.367590,-7.324331,0.000000,0.004150,0.096559,0.965957
259,-27.161059,-7.568475,0.000000,0.003418,-0.005127,1.109880
260,-11.352712,-5.371176,0.000000,0.065675,0.024659,1.073014
261,-10.803388,-1.770047,-0.366217,-0.018067,0.050172,0.999893
262,-15.075914,-2.319371,1.220722,0.031006,0.039429,1.069108
263,-8.300908,-0.488289,1.525902,0.030762,0.030762,1.043595
264,-6.164645,0.976577,1.831083,0.021729,0.060060,0.991592
265,-9.094377,1.037613,2.441444,0.006226,0.049439,0.982803
266,-9.277485,0.854505,2.014191,-0.052735,0.161379,1.171527
267,-9.033341,-0.854505,2.563516,-0.008423,0.021607,0.959854
268,-9.826810,-3.418021,1.709010,-0.005737,0.019532,0.986099
269,-7.995727,-3.967346,1.342794,0.020752,0.017090,1.043351
270,-5.676356,-3.234913,1.342794,0.013184,0.027222,1.030533
271,-2.380407,-2.929732,1.220722,0.010254,0.037964,0.999893
272,-4.211490,-2.990768,1.342794,0.008301,0.046754,1.000137
273,-3.906310,-2.563516,0.976577,0.018921,0.002319,1.000137
274,-2.929732,-2.502480,1.647974,0.018677,0.115969,1.003189
275,-3.173877,-0.915541,1.647974,0.017578,0.035035,0.987320
276,-3.906310,-1.037613,1.403830,-0.002686,0.041871,1.021622
277,-1.831083,-1.403830,0.976577,0.009155,0.011719,1.013199
278,-1.037613,-1.525902,0.915541,0.019654,-0.031861,0.979629
279,0.610361,-1.159686,0.549325,-0.002075,0.022217,0.995254
280,0.976577,-1.647974,0.671397,-0.014527,0.060670,0.996841
281,0.488289,-2.441444,0.427253,-0.005249,0.026856,0.946059
282,-2.380407,-3.418021,0.732433,0.000732,0.053956,0.981704
283,-2.014191,-4.516670,1.586938,-0.000610,0.103151,0.975479
284,-3.540093,-4.638743,1.098650,0.005371,0.036744,0.970596
285,-4.638743,-6.042573,0.793469,0.021851,0.028199,0.993790
286,-3.540093,-5.981537,0.488289,0.013916,0.028809,0.969131
287,-5.676356,-6.713970,0.915541,-0.004028,0.051637,0.953750
288,-8.178836,-7.812619,0.915541,0.004517,0.052003,0.962051
289,-11.413748,-8.361944,1.159686,0.020630,0.033204,0.967422
290,-11.596857,-8.422980,1.037613,0.006348,0.060792,0.926650
291,-18.493935,-9.887846,1.159686,0.007935,0.056275,0.947524
292,-24.231327,-10.681315,1.831083,0.043580,0.023316,1.004776
293,-22.095064,-9.155413,1.586938,0.030152,0.026978,0.997452
294,-24.597543,-8.422980,1.709010,0.043336,0.021729,0.990372
295,-25.696193,-7.202258,1.586938,0.034913,0.015015,1.000870
296,-26.794842,-6.164645,1.586938,0.038575,0.008911,1.013199
297,-23.682002,-6.591897,1.831083,0.024292,0.017578,1.004654
298,-28.137636,-7.080186,1.525902,0.002686,-0.003784,0.980362
299,-25.391012,-7.812619,1.709010,0.030152,0.009033,0.983413
300,-27.527276,-7.568475,2.441444,0.046021,-0.006348,0.987808
301,-27.771420,-7.934691,3.906310,0.003906,-0.043458,1.076555
302,-24.780652,-5.065995,4.333562,0.037720,0.003174,0.985733
303,-31.494621,-5.981537,4.699779,0.014527,0.008911,1.058244
304,-33.691920,-3.295949,3.112840,-0.038331,0.000855,0.948745
305,-30.762188,-4.882887,0.671397,0.149416,0.136355,0.962539
306,-61.097124,-0.488289,0.732433,-0.067018,0.033448,0.995743
307,-64.698253,-3.234913,-1.159686,0.042237,-0.063478,1.025895
308,-46.021210,-0.915541,-7.812619,-0.029664,0.036500,1.059953
309,-47.608148,-2.868696,-20.447089,-0.059327,-0.062867,0.962661
310,-69.581140,0.915541,-33.386740,-0.031983,0.063355,1.070329
311,-91.798276,5.981537,-51.880674,0.097414,-0.171389,1.050797
312,-69.581140,0.671397,-37.415122,0.270756,-0.268070,1.078141
313,-48.279545,4.394598,-0.549325,0.252323,-0.132570,1.096208
314,-65.918975,16.357671,6.713970,0.112673,0.152224,1.047379
315,-93.751431,30.762188,-11.718929,0.057862,0.216678,1.006485
316,-141.847868,36.072328,-6.591897,0.026246,0.349371,0.813611
317,-179.995422,17.578393,3.906310,-0.448493,0.420661,0.890517
318,-206.607156,-27.283131,0.122072,-0.110842,0.741711,0.754040
319,-351.628901,-29.480430,-27.954528,0.088869,1.150408,1.965728
320,-579.415579,-73.975738,-30.884260,-0.772839,-0.164309,1.291646
321,-683.054856,-149.965667,22.583352,-0.136721,0.293828,1.443381
322,-802.990768,-149.660487,40.772107,0.317632,0.037964,1.235492
323,-888.563363,-130.251011,72.266728,1.300679,-2.000031,1.999969
324,-868.177310,-3.784237,149.050126,-0.731579,0.386725,1.999969
325,80.811780,50.476844,-85.755703,-0.223148,-0.510018,1.999969
326,415.411612,89.356832,-103.334096,-0.907118,0.886122,1.999969
327,195.315480,82.825971,-93.080034,-0.764904,0.482185,0.707774
328,-0.061036,-39.368276,28.625925,-0.855970,0.308354,-0.248417
329,-44.251164,-106.813153,65.918975,-0.391241,0.115480,0.368536
330,100.648508,-88.258183,39.307240,-0.302495,0.202884,0.564218
331,102.723735,-61.219196,30.640116,-0.140505,0.549325,0.467048
332,45.654994,-15.259022,32.349126,-0.088624,0.411139,0.721935
333,81.483177,34.912642,14.404517,-0.128420,0.372930,0.718395
334,92.530709,58.106355,6.836042,-0.177615,0.467414,0.626474
335,82.154574,58.289464,10.742351,-0.242557,0.374273,0.858900
336,113.649195,53.101396,13.733120,-0.246952,0.359380,1.063615
337,137.026017,47.058824,19.531548,-0.231571,0.383551,1.204974
338,154.116121,44.739452,26.001373,-0.219608,0.299199,1.420554
339,186.526284,44.678416,32.715343,-0.203861,0.228763,1.474632
340,215.823606,37.415122,39.612421,-0.161257,0.173220,1.414206
341,236.758984,24.353399,46.204318,-0.077394,0.118166,1.366476
342,256.168460,13.550011,47.241932,0.019287,0.077760,1.396994
343,269.779507,11.047532,44.617380,0.100954,0.040284,1.394430
344,280.704967,16.540780,37.293050,0.176516,0.007324,1.381857
345,285.099565,26.550698,27.649348,0.216190,-0.056031,1.329976
346,286.869612,35.278859,16.906996,0.215457,-0.113893,1.263203
347,283.451591,42.664225,6.836042,0.176638,-0.156985,1.176043
348,273.624781,48.401617,-1.647974,0.126101,-0.214115,1.131121
349,256.778820,59.205005,-8.789197,0.121340,-0.274418,1.127092
350,238.956283,70.862898,-14.099336,0.045289,-0.268315,1.334859
351,222.537575,79.530022,-17.212177,0.039796,-0.258671,1.722560
352,219.241627,86.488136,-19.226368,0.021485,-0.248539,1.999969
353,226.016632,88.624399,-20.386053,0.007446,-0.268315,1.999969
354,239.017319,86.732280,-19.226368,-0.021118,-0.381720,1.999969
355,262.455177,75.623713,-16.662852,0.030030,-0.499031,1.999969
356,280.399786,58.167391,-17.212177,0.121218,-0.614389,1.999969
357,289.799344,43.701839,-20.935378,0.214725,-0.737804,1.999969
358,289.188983,38.635843,-28.137636,0.252811,-0.868299,1.819852
359,280.155642,40.100710,-35.156786,0.208133,-0.950576,1.570825
360,261.295491,41.565576,-38.696880,0.169192,-1.032609,1.410056
361,239.505608,39.185168,-38.818952,0.110964,-1.172992,1.344137
362,219.180591,32.959487,-36.682689,0.048951,-1.400412,1.227924
363,195.559625,25.513085,-34.363317,0.093751,-1.713649,1.096330
364,172.182803,21.667811,-35.217823,0.330449,-2.000031,0.845106
365,144.899672,27.344167,-51.270314,0.596445,-2.000031,0.582406
366,121.156634,42.359045,-78.248264,0.656748,-2.000031,0.346685
367,83.253223,51.392386,-85.633631,0.340215,-2.000031,0.109621
368,44.617380,33.630884,-70.557717,-0.000855,-2.000031,0.027955
369,14.892805,-6.469825,-42.114900,-0.302373,-1.807156,0.289677
370,-11.047532,-47.913329,-5.249104,-0.614023,-1.844633,-0.324102
371,-104.249638,-141.847868,35.645075,-0.392340,-1.664576,-0.705333
372,-169.741360,-216.983291,59.449149,0.083986,-1.939239,-0.092287
373,-247.318227,-111.207752,67.017624,0.030884,-1.960967,-0.310796
374,-162.294957,-27.100023,55.420768,-0.230350,-0.327764,0.486946
375,-204.837110,-44.007019,57.312886,0.352544,0.638926,1.999969
376,-303.532464,-74.647135,75.074388,1.048966,0.512825,1.999969
377,-297.245747,-47.241932,62.378882,1.383810,-0.563363,1.452903
378,-249.942779,-29.114214,12.268254,1.456565,-0.431159,1.999969
379,-240.665293,6.408789,-0.610361,-0.227054,-0.358648,1.999969
380,-168.581674,-60.181582,23.254749,-1.380148,-1.208759,1.999969
381,9.338521,-91.309987,16.174563,-0.752087,-0.195926,0.067262
382,-71.290150,-119.447623,39.368276,0.868666,0.557015,1.571069
383,-132.082094,-73.853666,46.753643,1.509789,0.091310,1.999969
384,-61.219196,-13.244831,6.103609,-0.558968,-0.146487,1.574121
385,-38.757916,-46.570535,13.611048,-0.368902,-0.005249,0.894301
386,-32.715343,-55.664912,8.178836,0.538094,0.235843,1.436912
387,-46.997787,-29.114214,2.441444,0.045167,-0.110109,1.156268
388,-19.897765,-26.306554,2.197299,-0.055543,-0.038209,1.264057
389,-6.164645,-24.414435,2.014191,0.088380,0.088380,0.980972
390,-21.667811,-23.071641,0.915541,-0.040040,0.007568,1.030289
391,-13.672084,-23.865110,0.549325,0.020752,0.003906,1.034562
392,-11.902037,-20.263981,0.793469,0.092775,0.032593,1.043595
393,-14.160372,-15.136950,1.403830,0.049073,-0.001831,1.063981
394,-9.826810,-11.535821,2.685588,0.076051,-0.009644,1.047379
395,-6.713970,-7.080186,2.868696,0.073854,0.030396,1.020768
396,-9.948882,-3.967346,3.662165,0.054688,0.022095,1.027848
397,-9.094377,-1.831083,3.906310,0.035035,-0.000732,0.999039
398,-8.178836,-2.075227,4.089418,0.026612,0.012696,1.002457
399,-8.422980,-2.746624,3.356985,0.006104,0.019654,1.008316
400,-7.629511,-3.906310,2.380407,0.012940,0.015503,1.035782
401,-5.981537,-4.333562,1.403830,0.013672,0.006348,0.999649
402,-2.685588,-4.821851,0.915541,0.034058,-0.045411,1.011246
403,-2.075227,-3.967346,0.732433,0.052613,-0.008667,1.044816
404,1.037613,-2.197299,0.976577,0.033570,0.002564,0.997208
405,0.305180,-1.953155,1.037613,0.041871,0.028077,0.977188
406,-2.563516,-1.342794,0.915541,0.046021,-0.011841,0.994522
407,-2.502480,-0.366217,0.854505,0.046754,0.000732,1.015518
408,-2.624552,0.610361,0.976577,0.018799,0.017823,0.996841
409,-4.577707,0.244144,0.793469,0.032105,-0.000855,0.930190
410,-8.361944,-0.854505,0.671397,0.015869,0.027710,1.004288
411,-6.286717,-1.464866,0.732433,0.016724,0.004639,0.980240
412,-8.484016,-2.136263,0.549325,0.029419,0.002075,0.963882
413,-10.009918,-2.868696,0.671397,0.021241,-0.004395,0.982803
414,-9.765774,-3.418021,0.671397,0.031617,0.005982,0.984512
415,-11.657893,-4.150454,0.854505,0.021851,-0.003052,0.985733
416,-13.000687,-4.882887,0.854505,0.036011,-0.019532,0.986099
417,-11.169604,-4.882887,1.525902,0.035401,0.008423,0.988663
418,-14.404517,-5.737392,2.075227,0.035157,0.006226,0.980240
419,-15.381094,-6.164645,2.136263,0.033570,0.017823,0.961196
420,-18.616007,-6.836042,1.831083,0.031495,0.022827,0.944594
421,-23.254749,-7.934691,1.892119,0.035279,0.013550,0.983780
422,-24.658579,-8.667124,2.258335,0.049439,-0.023926,0.945449
423,-25.268940,-9.094377,2.685588,0.042481,-0.047242,0.904677
424,-27.710384,-8.545052,2.441444,0.066896,-0.008301,0.995132
425,-31.372549,-4.272526,1.831083,0.082277,-0.018921,1.062150
426,-28.992142,-1.464866,1.586938,0.041260,-0.021241,1.011978
427,-30.518044,-0.915541,1.220722,0.051392,-0.013428,1.000870
428,-36.438544,-0.793469,1.098650,0.041627,-0.021973,0.960464
429,-37.964446,3.295949,2.014191,0.037598,-0.117800,0.922744
430,-42.481117,0.366217,2.746624,0.078614,-0.080690,1.045426
431,-33.325704,2.441444,6.164645,0.095583,-0.030030,0.985855
432,-40.894179,7.751583,8.911269,0.009155,0.005005,0.948379
433,-60.181582,4.211490,7.385367,0.036622,-0.053712,1.021866
434,-47.974365,4.638743,2.380407,-0.003662,-0.087770,0.997818
435,-43.701839,2.685588,-2.014191,0.001343,-0.083986,1.043717
436,-42.786297,3.723201,-11.169604,-0.038453,-0.021118,0.957046
437,-44.251164,3.173877,-21.301595,-0.011475,-0.107301,1.105486
438,-41.992828,4.150454,-32.776379,-0.047974,-0.066285,1.095964
439,-44.556344,-0.610361,-41.748684,0.080690,-0.269902,0.990494
440,-29.114214,-1.037613,-24.841688,0.219242,-0.239261,1.137713
441,-27.038987,7.751583,-8.361944,0.138918,-0.213138,1.165179
442,-26.611734,9.765774,3.906310,0.041993,0.095949,1.008927
443,-50.537881,12.939651,-8.789197,0.124880,0.176638,1.001358
444,-106.996262,30.273899,-17.578393,0.102296,0.375128,0.863050
445,-160.463874,41.382467,-3.356985,-0.145632,0.470954,0.881605
446,-221.560998,1.281758,-2.807660,-0.466072,0.169436,0.374762
447,-280.888075,-26.977951,24.658579,-0.040772,1.139544,1.660182
448,-562.569619,-42.725261,-23.376822,-0.160281,-0.232670,1.199115
449,-697.032120,-84.290837,82.276646,-0.022950,0.257939,1.273213
450,-792.431525,-131.471733,82.093538,0.081300,0.074586,1.459617
451,-922.804608,-131.837949,131.593805,0.760876,-0.013184,1.999969
452,-900.831617,-93.751431,204.654002,-0.001343,-1.838285,1.999969
453,-149.172198,19.836728,-50.110628,-0.284184,-0.702892,1.999969
454,395.269703,50.049592,-117.860685,-0.602182,1.577905,1.999969
455,156.984817,55.298695,-152.040894,-0.716320,1.374777,1.257343
456,-59.082933,-29.175250,16.235599,-0.848035,0.411627,0.255375
457,-91.309987,-69.092851,58.045319,-0.379034,0.412848,0.572885
458,53.345541,-38.269627,8.300908,-0.448615,0.023194,0.765270
459,107.789731,-20.080873,8.361944,-0.333013,0.531746,0.558846
460,47.608148,-18.249790,25.391012,-0.294926,0.445808,0.709239
461,65.369650,-11.963073,26.184482,-0.203250,0.369024,0.968276
462,115.724422,-5.432212,19.531548,-0.104982,0.513313,0.949477
463,118.226902,-8.422980,15.625238,0.002564,0.569100,1.061295
464,134.218357,-2.563516,6.591897,0.077150,0.527474,1.320577
465,171.084154,10.925460,-6.408789,0.086305,0.482429,1.404929
466,198.428321,19.348440,-16.601816,0.050660,0.393072,1.410788
467,222.842756,23.620966,-22.766461,0.015381,0.261601,1.365743
468,250.675212,22.949569,-26.062409,-0.003296,0.157839,1.304952
469,271.976806,20.141909,-27.649348,0.014771,0.058717,1.192157
470,285.343709,18.982223,-28.564889,0.028687,-0.010620,1.085588
471,292.729076,18.921187,-29.968719,0.078126,-0.017700,1.076921
472,296.574350,19.043259,-33.386740,0.115358,-0.024537,1.130877
473,299.992371,18.005646,-37.537194,0.141970,-0.049317,1.131609
474,296.574350,18.921187,-43.640803,0.112062,-0.203738,0.930556
475,278.568704,25.513085,-47.852293,0.088746,-0.395392,0.564340
476,246.829938,38.635843,-49.744411,0.163577,-0.411139,0.675181
477,213.870451,51.636530,-54.261082,0.254520,-0.325811,1.035660
478,199.832151,63.172351,-64.576181,0.303716,-0.182132,1.683131
479,194.949264,73.304341,-70.130465,0.173953,-0.151492,1.999969
480,209.964141,73.182269,-64.515145,-0.069459,-0.421393,1.999969
481,252.140078,60.914015,-52.735180,-0.227420,-0.705455,1.999969
482,261.661707,53.284504,-38.818952,-0.171145,-0.755138,1.725734
483,234.500649,46.875715,-24.048219,-0.105959,-0.760998,1.999969
484,237.064164,42.359045,-14.953841,-0.078248,-0.788220,1.999969
485,262.333104,48.767834,-10.559243,-0.042359,-0.792248,1.999969
486,265.629053,58.594644,-6.408789,0.118898,-0.738170,1.999969
487,265.018692,67.505913,-4.699779,0.517708,-0.723033,1.999969
488,281.132219,69.031815,-10.803388,0.662119,-0.673716,1.999969
489,296.513314,59.327077,-19.409476,0.746349,-0.935317,1.999969
490,304.264897,47.425040,-28.015564,0.629892,-1.179950,1.720485
491,280.460822,34.790570,-33.691920,0.507698,-1.666896,1.359762
492,241.824979,34.302281,-34.790570,0.714611,-2.000031,1.075578
493,169.985504,56.031128,-60.730907,1.130022,-2.000031,0.695445
494,126.894026,124.757763,-110.597391,1.056657,-2.000031,-0.174929
495,155.764096,190.737774,-126.527810,0.367315,-2.000031,-1.347311
496,60.791943,136.598764,-82.581827,-0.281987,-2.000031,-1.724758
497,-65.430686,-5.737392,1.709010,-0.585824,-2.000031,-0.523323
498,-82.764935,-124.696727,66.529335,-0.382452,-1.497704,-0.357671
499,-192.324712,-158.937972,54.444190,0.851331,-1.390524,0.408942
500,-226.810101,-101.441978,36.682689,-0.151003,-1.449729,0.922622
501,-111.451896,-31.921874,40.711070,-0.213382,0.550546,1.219257
502,-126.405737,-83.253223,24.353399,0.079469,1.142596,1.460472
503,-287.418936,-94.422828,52.796216,0.533089,0.221927,0.951797
504,-381.963836,-68.726635,62.928206,0.692638,-0.846082,1.910430
505,-244.815747,-32.166018,60.242618,1.079484,-0.197635,1.999969
506,-154.177157,-5.615320,11.413748,0.813977,0.124758,1.999969
507,-182.192721,5.737392,8.728161,0.167239,-0.142214,1.968292
508,-144.472419,7.995727,9.948882,-0.706920,-0.275883,1.661769
509,-120.851453,-39.734493,28.381781,-1.085954,-0.310185,1.705837
510,-75.684749,-89.845121,43.396658,-0.275883,-0.246586,0.999649
511,-58.045319,-104.066529,37.354086,1.052384,0.314824,1.882963
512,-76.295109,-62.317845,20.508125,0.921035,-0.091188,1.649805
513,-55.054551,-35.095750,7.385367,-0.400031,-0.070314,1.200580
514,-43.152514,-54.016938,13.550011,-0.126467,0.069337,1.135637
515,-50.171664,-54.505226,9.521630,0.538338,0.120851,1.314595
516,-49.927520,-23.193713,1.586938,0.226932,-0.035157,1.255756
517,-37.720302,-21.240558,0.671397,-0.183719,-0.057496,1.148699
518,-14.099336,-29.968719,0.000000,0.086671,0.076905,1.007828
519,-26.977951,-21.667811,-3.601129,0.133059,0.071656,1.112078
520,-34.668498,-16.540780,-3.540093,0.035645,-0.040894,1.116594
521,-13.916228,-11.902037,-3.723201,0.120607,-0.011719,0.988296
522,-20.813306,-8.850233,-1.831083,0.037842,0.013062,0.974624
523,-26.611734,-9.704738,2.685588,0.067750,0.003906,1.034562
524,-19.958801,-7.507439,2.258335,0.049195,-0.053101,1.039933
525,-23.682002,-6.652934,3.601129,0.048829,-0.015625,1.025772
526,-19.714656,-5.981537,3.662165,0.026612,-0.012696,1.037125
527,-15.197986,-6.103609,2.868696,0.040284,-0.053223,0.958022
528,-14.709697,-6.408789,2.258335,0.026123,-0.067872,1.067399
529,-14.099336,-7.080186,1.831083,0.065431,0.033082,1.039322
530,-10.986496,-5.920500,1.709010,0.063600,-0.006348,1.063127
531,-7.263294,-3.845274,1.892119,0.042847,0.016968,1.009293
532,-10.803388,-2.868696,0.915541,0.064698,-0.007202,0.963882
533,-9.094377,-1.098650,1.342794,0.063844,-0.038941,0.982071
534,-6.713970,-0.610361,1.464866,0.070436,-0.085817,0.965591
535,-7.141222,-0.183108,1.342794,0.059449,-0.099489,0.952773
536,-6.836042,-0.976577,0.976577,0.050416,-0.051881,0.976089
537,-7.995727,-1.892119,1.342794,0.041505,-0.015625,1.031998
538,-6.225681,-2.258335,1.342794,0.034546,-0.018433,1.014054
539,-5.554284,-2.563516,1.037613,0.034424,-0.030030,0.980606
540,-6.347753,-3.540093,1.098650,0.044190,-0.021607,0.982559
541,-7.568475,-4.211490,0.854505,0.039185,-0.011597,0.970840
542,-8.972305,-4.516670,0.671397,0.049928,-0.003540,0.996109
543,-10.131991,-4.150454,0.366217,0.050660,-0.015991,0.993301
544,-10.254063,-3.723201,0.549325,0.055055,0.007446,1.010636
545,-10.376135,-3.234913,0.244144,0.046876,-0.036866,0.976333
546,-10.193027,-4.089418,0.061036,0.032349,-0.010742,0.971572
547,-12.451362,-4.943923,0.061036,0.042847,-0.019043,0.954360
548,-14.648661,-5.554284,0.366217,0.052247,-0.014649,0.966201
549,-17.517357,-6.225681,0.549325,0.050904,-0.020752,0.994156
550,-16.968032,-7.019150,1.342794,0.067994,-0.030396,1.003922
551,-21.362631,-6.103609,1.098650,0.085695,-0.021485,1.031998
552,-24.536507,-3.112840,0.488289,0.051392,-0.067262,0.963760
553,-23.865110,-3.173877,0.305180,0.082277,-0.039796,1.023697
554,-27.222095,0.854505,0.549325,0.116335,-0.036744,0.898817
555,-25.329976,-1.403830,0.061036,0.082643,-0.053101,0.979507
556,-19.104295,-1.342794,0.000000,0.054566,-0.023316,0.986587
557,-28.931106,-0.427253,-0.366217,0.030030,-0.011231,0.953262
558,-34.607462,-0.366217,-0.305180,0.015259,-0.054444,0.927626
559,-38.330663,-2.197299,-0.183108,0.042969,-0.038331,1.019181
560,-51.514458,-0.366217,0.122072,0.062013,-0.072877,0.994400
561,-41.138323,1.037613,5.554284,0.136233,-0.039307,1.027115
562,-59.693294,3.845274,7.507439,0.047120,-0.124392,1.057633
563,-50.537881,4.943923,8.056764,0.041505,-0.163699,0.987686
564,-32.471199,3.295949,6.469825,0.019654,-0.049073,1.001846
565,-40.527962,1.281758,1.525902,-0.028931,-0.144656,1.015640
566,-42.847333,1.770047,-10.864424,-0.018555,-0.139773,1.042496
567,-39.429313,2.624552,-16.601816,-0.041627,-0.138186,0.992325
568,-36.560616,3.356985,-23.804074,0.039551,-0.130129,1.011978
569,-34.058137,2.075227,-42.542153,0.126955,-0.316167,1.107195
570,-5.188067,1.342794,-32.104982,0.177737,-0.331182,1.028092
571,5.188067,-2.929732,-5.310140,0.199710,-0.128054,1.076432
572,-22.217136,8.117800,-2.197299,0.112795,0.248173,0.999527
573,-80.750744,23.254749,-30.640116,0.161501,0.362799,0.827161
574,-133.974212,36.194400,-28.198672,0.036011,0.302617,0.827893
575,-213.687343,26.001373,-32.104982,-0.101442,0.823987,0.339361
576,-194.827192,-28.137636,4.394598,-0.255131,0.461677,0.733776
577,-285.770962,-65.369650,-39.185168,-0.417243,0.703136,1.548241
578,-497.749294,-172.610056,-59.449149,-0.565682,0.380621,1.455955
579,-700.816358,-277.897307,42.603189,-0.144289,0.276005,1.276875
580,-834.119173,-305.485618,79.468986,0.079469,0.036744,1.212177
581,-916.701000,-266.544595,104.432746,0.623056,-1.748074,1.880644
582,-1129.472801,-196.475166,272.953384,-0.689220,-1.121233,1.999969
583,-221.683070,-36.560616,13.733120,-0.596933,-1.561669,1.999969
584,346.807050,57.740139,-65.186542,-0.328130,0.911879,1.999969
585,229.312581,75.318532,-83.497368,-0.491951,1.226337,1.999969
586,73.792630,22.278172,10.498207,-0.916640,0.738170,1.225483
587,-45.716030,-58.594644,72.938125,-0.543465,0.403326,1.012711
588,27.771420,-48.401617,87.220569,-0.290288,0.415045,0.908461
589,152.773327,-16.235599,58.472572,-0.141238,0.326055,0.855848
590,157.961395,8.239872,51.392386,0.061891,0.463996,0.699596
591,112.977798,22.644388,49.988556,0.095216,0.358038,0.908949
592,141.481651,36.499580,39.490349,0.165530,0.276127,1.021134
593,188.296330,41.138323,25.513085,0.195560,0.336919,0.951431
594,193.301289,29.663539,17.700465,0.213260,0.345830,0.913710
595,201.541161,22.644388,9.277485,0.214725,0.268803,0.969253
596,223.331044,26.672770,-1.709010,0.190555,0.235843,1.046036
597,231.815061,31.799802,-9.582666,0.130739,0.184085,1.078264
598,241.580835,36.194400,-14.770733,0.075929,0.086549,1.123308
599,255.924315,38.025483,-17.273213,0.047608,0.024414,1.197040
600,268.253605,35.523003,-17.700465,0.049195,-0.005493,1.288838
601,280.033570,33.447776,-18.127718,0.098390,-0.049317,1.345602
602,290.836957,37.170977,-20.752270,0.158694,-0.084230,1.363424
603,296.086061,45.410849,-25.268940,0.197147,-0.137697,1.399680
604,297.734035,54.139010,-30.518044,0.213748,-0.251713,1.292866
605,294.499123,58.594644,-36.316472,0.267094,-0.379644,1.145647
606,281.498436,61.158160,-41.687648,0.300542,-0.421027,1.127337
607,267.887388,61.036088,-48.218509,0.294682,-0.484993,1.052384
608,250.064851,58.533608,-55.054551,0.300664,-0.452644,1.073503
609,226.749065,57.373922,-61.280232,0.290776,-0.382086,1.366476
610,202.090486,58.777752,-65.796902,0.260746,-0.290776,1.999969
611,198.977646,59.205005,-69.581140,0.211063,-0.330938,1.999969
612,229.739834,64.759289,-72.693980,0.152468,-0.436652,1.999969
613,269.413291,75.745785,-74.341955,0.124392,-0.575448,1.999969
614,284.367132,86.305028,-71.839475,0.126955,-0.655894,1.999969
615,274.296178,90.943771,-66.041047,0.139528,-0.720836,1.800443
616,263.553826,93.446250,-59.754330,0.122438,-0.741955,1.759182
617,252.811475,91.065843,-52.307927,0.112795,-0.760876,1.873564
618,243.839170,84.962234,-44.251164,0.144045,-0.828382,1.982330
619,246.158541,80.750744,-39.673457,0.195560,-0.957900,1.876493
620,243.045701,80.994888,-37.170977,0.201541,-1.127581,1.569238
621,227.176318,81.727321,-34.607462,0.200198,-1.390158,1.289204
622,195.803769,85.572595,-29.968719,0.385138,-1.781643,1.156756
623,150.698100,95.399405,-26.489662,0.683360,-2.000031,1.240742
624,106.569009,124.086366,-32.593271,0.825574,-2.000031,1.066056
625,128.297856,168.215457,-47.547112,0.643687,-2.000031,0.142580
626,138.429847,155.153735,-36.011292,0.398688,-2.000031,-1.183734
627,34.851606,42.236973,4.028382,0.315801,-2.000031,-1.617945
628,-68.177310,-101.014725,46.814679,0.254032,-1.892485,-1.605005
629,-171.755550,-225.772488,69.275959,0.799939,-1.450340,-0.172976
630,-246.585794,-262.577249,52.429999,0.958145,-1.563256,1.227436
631,-224.063478,-136.964981,37.659266,0.229129,-0.613413,1.999969
632,-100.526436,-60.608835,22.400244,-0.250492,0.396857,1.976837
633,-107.423514,-62.317845,26.733806,0.107668,0.864515,0.772595
634,-218.081941,-70.862898,32.349126,0.283207,0.380377,-0.138064
635,-306.889448,-65.857939,40.466926,0.135012,-0.257206,0.975479
636,-310.124361,-64.576181,49.805447,0.684092,-0.384527,1.999969
637,-222.415503,-14.953841,26.123445,0.656260,-0.440192,1.999969
638,-153.688869,5.981537,15.014878,-0.121950,-0.207889,1.788357
639,-176.943618,-51.758602,28.686961,-0.861830,-0.592782,1.999969
640,-78.919661,-86.182956,29.724575,-0.036378,-0.183841,1.999969
641,-61.158160,-87.281605,18.799115,1.420554,0.306523,1.999969
642,-62.439918,-21.240558,11.596857,0.482063,0.058473,1.462181
643,-57.068742,-7.995727,9.521630,-0.653574,-0.066773,1.264668
644,-43.701839,-38.818952,6.897078,0.237552,0.043702,1.229389
645,-33.386740,-20.447089,-0.915541,0.347784,0.095583,1.259419
646,-39.185168,-7.629511,1.464866,-0.161013,-0.034791,1.219501
647,-18.066682,-14.404517,-1.647974,0.034180,0.034546,1.064103
648,-19.653620,-9.948882,-1.892119,0.090455,0.049195,1.081682
649,-19.653620,-5.432212,0.671397,-0.022950,-0.030884,1.120256
650,-6.775006,-5.127031,-0.793469,0.055787,0.026734,0.979141
651,-11.718929,-2.319371,1.464866,0.056153,0.036500,1.030777
652,-9.704738,0.610361,2.319371,0.000977,0.036866,1.004410
653,-10.193027,1.403830,2.868696,0.040162,0.046143,1.017350
654,-12.329290,2.990768,4.150454,-0.002197,0.033936,0.987076
655,-12.268254,1.831083,4.211490,-0.016602,0.037232,0.924331
656,-15.808347,-1.037613,4.455634,0.014160,0.032349,0.999893
657,-15.503166,-1.464866,3.723201,-0.013184,0.030274,0.962539
658,-15.808347,-1.403830,0.366217,0.024414,-0.147829,0.757336
659,-20.508125,-2.075227,2.136263,0.022950,0.034791,1.016007
660,-24.536507,-2.197299,3.662165,0.003906,0.006958,1.000381
661,-21.240558,-1.770047,3.112840,0.008911,0.020142,1.022354
662,-21.667811,-0.305180,2.868696,0.025147,-0.003052,1.036881
663,-20.080873,1.647974,2.990768,-0.079713,0.096681,1.269429
664,-16.113527,2.014191,4.028382,0.033692,0.026001,0.949111
665,-20.813306,1.403830,3.051804,-0.008423,-0.008057,0.966445
666,-19.531548,0.854505,2.319371,0.008545,-0.012818,1.031144
667,-17.151141,1.403830,1.831083,-0.022583,-0.008301,1.016251
668,-14.404517,0.793469,1.647974,0.002075,-0.002564,1.009049
669,-15.014878,0.854505,1.709010,-0.010254,-0.014282,1.005997
670,-12.817578,0.976577,1.647974,-0.002319,-0.012818,1.008316
671,-13.305867,0.854505,1.831083,0.004273,-0.018799,1.008438
672,-11.596857,0.915541,1.586938,0.006714,-0.016358,1.013199
673,-11.291676,1.098650,1.342794,0.007446,-0.027588,1.020401
674,-10.131991,1.647974,1.342794,0.012451,-0.044678,1.048722
675,-5.004959,2.624552,1.159686,-0.014160,-0.039796,1.014786
676,-1.831083,2.441444,0.793469,-0.015137,0.012451,0.932265
677,-8.117800,0.488289,1.098650,-0.021118,0.003296,0.942519
678,-10.559243,-1.770047,-0.427253,-0.056641,-0.103029,0.989395
679,-10.620279,-2.441444,0.061036,-0.005127,0.002441,0.950454
680,-19.714656,-3.967346,1.098650,-0.009400,-0.006714,1.013931
681,-20.325017,-4.089418,1.709010,0.004761,-0.021363,1.005631
682,-18.066682,-3.173877,1.159686,0.003906,-0.024903,0.987564
683,-20.447089,-3.906310,1.586938,0.016114,-0.045533,1.011124
684,-20.508125,-2.502480,1.770047,0.026246,-0.015625,0.972671
685,-21.545739,-2.075227,1.159686,0.012207,-0.021241,1.000992
686,-22.400244,-1.342794,0.732433,0.014771,-0.026490,0.955581
687,-24.658579,-1.342794,0.671397,-0.001709,0.006348,0.929946
688,-36.011292,-1.525902,2.258335,-0.034913,-0.004028,0.914565
689,-45.227741,-5.432212,2.990768,-0.052979,-0.020752,0.952651
690,-44.739452,-6.225681,2.563516,-0.026368,-0.027344,0.947646
691,-49.073014,-6.347753,3.906310,0.031006,-0.098756,0.991958
692,-47.119860,-4.577707,6.713970,-0.002319,-0.125124,1.045792
693,-38.696880,-2.441444,7.934691,0.008179,-0.089235,1.045304
694,-36.011292,1.953155,5.249104,0.021241,-0.125002,1.061662
695,-29.968719,3.295949,6.836042,-0.050294,-0.080201,1.006485
696,-25.391012,-0.793469,2.685588,-0.141238,0.030518,1.088151
697,-34.424353,-0.915541,-19.104295,-0.079835,0.081788,0.920058
698,-64.271000,-1.953155,-44.068055,-0.021729,-0.043336,0.941665
699,-67.933165,3.356985,-41.199359,0.097169,-0.229862,0.987320
700,-51.880674,-4.577707,-19.653620,0.056764,-0.215702,1.052995
701,-51.880674,-13.000687,-12.207218,-0.044312,-0.058961,1.065934
702,-68.787671,-14.831769,-21.301595,0.023804,-0.034180,0.997208
703,-73.365377,-11.718929,-26.855879,0.077760,0.154299,0.876234
704,-103.334096,-10.620279,-23.254749,0.107912,0.185916,0.966934
705,-129.030289,-16.540780,-16.540780,0.003174,0.556649,0.610239
706,-202.151522,-6.408789,-25.452049,0.195682,0.850965,1.009781
707,-310.795758,-21.057450,-43.335622,-0.322515,0.705821,1.631495
708,-562.569619,-33.691920,-10.376135,-0.346563,0.578988,1.710109
709,-708.751049,-108.278019,43.701839,-0.591440,-0.302129,1.128435
710,-808.728161,-154.177157,69.092851,-0.009644,-0.054688,1.149065
711,-846.082246,-187.380789,59.632258,0.114260,-0.859876,1.047501
712,-1061.051347,-206.607156,195.193408,-0.990372,-0.692882,1.999969
713,-386.114290,-151.003281,67.505913,-1.075700,-1.270527,1.999969
714,238.406958,-66.468299,-22.644388,-0.410407,0.871229,1.999969
715,254.276341,-0.732433,-26.367590,-0.394171,1.539452,1.999969
716,62.256809,27.283131,0.671397,-0.579477,0.635996,1.547021
717,-40.466926,-12.146181,59.449149,-0.509895,0.421515,0.985733
718,31.555657,-0.854505,59.632258,-0.255375,0.332769,0.699840
719,131.349660,8.239872,42.481117,-0.212406,0.355840,0.313725
720,102.113375,-6.713970,43.945983,-0.034791,0.440925,0.230594
721,70.557717,-14.587625,42.359045,0.026368,0.321294,0.517708
722,102.235447,-8.850233,30.273899,0.072389,0.338506,0.731456
723,121.644923,-7.446403,18.432898,0.086183,0.429328,0.877455
724,128.786145,-11.902037,8.911269,0.095216,0.395514,1.071305
725,156.923781,-11.841001,-3.295949,0.086793,0.360479,1.202411
726,183.840696,-7.263294,-14.526589,0.038819,0.325200,1.228779
727,200.442512,-0.976577,-21.728847,-0.043946,0.216556,1.228901
728,218.936446,7.690547,-25.268940,-0.111208,0.093385,1.219013
729,236.087587,16.174563,-24.231327,-0.177493,-0.010742,1.216083
730,248.477913,19.348440,-18.371862,-0.239750,-0.098878,1.224262
731,261.295491,20.202945,-10.193027,-0.240604,-0.173953,1.265156
732,271.793698,21.545739,-1.892119,-0.234745,-0.224491,1.438132
733,284.428168,24.231327,6.591897,-0.183230,-0.245609,1.511742
734,297.917144,31.128405,11.718929,-0.143557,-0.289799,1.522484
735,305.119402,37.170977,15.869383,-0.088258,-0.350958,1.449119
736,309.391928,42.603189,17.334249,-0.016114,-0.392706,1.397482
737,306.828412,43.457694,17.761501,0.095583,-0.385016,1.391745
738,302.983139,47.730220,13.061723,0.204593,-0.388678,1.396384
739,297.428855,47.608148,3.784237,0.264530,-0.408453,1.380636
740,286.442359,48.157473,-7.141222,0.321416,-0.422858,1.371359
741,270.572976,47.425040,-20.080873,0.368048,-0.447272,1.374899
742,253.849088,42.420081,-33.081559,0.387945,-0.410163,1.581811
743,238.223850,31.433585,-46.692607,0.374395,-0.374762,1.989044
744,239.566644,26.306554,-60.730907,0.352789,-0.379278,1.999969
745,257.267109,32.532235,-75.867857,0.278935,-0.431281,1.999969
746,271.549554,46.814679,-86.610208,0.166995,-0.551278,1.999969
747,280.949111,60.975052,-91.371023,0.055787,-0.714855,1.999969
748,281.498436,68.848707,-90.028229,-0.017700,-0.898329,1.834012
749,266.361486,70.313573,-83.436332,-0.097292,-1.005997,1.637110
750,243.839170,70.008392,-73.182269,-0.104860,-1.139300,1.700832
751,229.495689,74.647135,-61.341268,-0.094362,-1.330831,1.729152
752,220.462348,81.666285,-49.561303,-0.059449,-1.551781,1.673610
753,206.912337,88.014038,-34.546426,0.027222,-1.887846,1.483055
754,185.549706,99.061570,-15.075914,0.275517,-2.000031,1.145892
755,154.177157,106.141756,-3.662165,0.614511,-2.000031,0.639414
756,121.095598,111.207752,-7.812619,0.766125,-2.000031,0.100099
757,95.399405,110.414282,-6.164645,0.541390,-2.000031,-0.246952
758,43.884947,73.853666,9.033341,0.278447,-2.000031,-0.454475
759,-7.202258,5.188067,32.288090,0.135622,-1.901640,-0.175174
760,-87.220569,-91.004807,33.813993,0.275883,-2.000031,-1.618189
761,-247.623407,-174.135958,59.632258,0.830213,-1.585107,-0.528695
762,-237.552453,-145.754177,38.513771,0.437751,-0.818250,0.694591
763,-119.935912,-101.258869,6.836042,-0.244511,0.976455,1.999969
764,-190.188449,-77.759976,19.592584,-0.520882,0.935439,1.655909
765,-337.102312,-85.999847,54.505226,-0.192752,-0.229252,0.533211
766,-305.912871,-77.882048,60.425727,0.394293,-0.723644,1.066789
767,-264.042115,-55.054551,49.195087,1.142229,-0.087770,1.999969
768,-239.627680,-10.193027,25.940337,1.103288,-0.194095,1.999969
769,-141.115435,15.259022,-2.502480,0.390387,-0.283696,1.999969
770,-127.443351,-3.051804,3.601129,-1.068620,-0.072145,1.999969
771,-109.315633,-55.176623,37.659266,-1.174212,-0.554574,1.262104
772,-57.373922,-104.982071,40.405890,0.509651,0.265873,1.758083
773,-74.341955,-86.488136,29.541466,1.412741,0.324590,1.999969
774,-52.307927,-21.606775,7.934691,0.008179,-0.085328,1.187396
775,-49.744411,-34.119173,11.169604,-0.634775,-0.009644,1.118547
776,-45.105669,-59.693294,4.577707,0.344610,0.061769,1.319234
777,-36.072328,-34.424353,-3.418021,0.350469,0.110964,1.460349
778,-37.781338,-19.165332,0.305180,-0.076417,-0.091920,1.137224
779,-10.254063,-20.752270,-4.028382,0.000122,0.111696,1.057511
780,-23.682002,-17.029068,-2.441444,0.109255,0.069093,1.037613
781,-24.719615,-11.657893,-0.183108,-0.025147,-0.033204,1.091325
782,-13.000687,-8.545052,-0.488289,0.095583,0.104250,1.135882
783,-19.714656,0.610361,2.746624,0.065553,0.057252,1.047745
784,-15.991455,4.638743,3.601129,0.023194,0.020996,1.032609
785,-14.709697,6.530861,4.028382,0.048707,0.051392,1.014908
786,-18.249790,7.568475,4.882887,0.006226,0.059083,1.027359
787,-16.540780,6.408789,5.004959,0.006958,0.043458,0.971939
788,-19.104295,7.324331,2.502480,0.091310,-0.053590,0.735241
789,-22.705425,5.188067,2.136263,-0.018189,0.006714,0.996231
790,-24.536507,2.441444,2.441444,-0.003662,-0.003418,1.018082
791,-21.057450,2.197299,2.380407,0.018067,-0.027344,1.049088
792,-14.038300,3.845274,2.136263,0.024903,-0.015503,1.043473
793,-13.427939,5.554284,3.112840,0.014771,-0.007080,1.025284
794,-10.559243,6.775006,3.051804,0.000610,0.005737,1.003555
795,-12.085145,5.859464,3.234913,-0.013916,0.009277,0.995132
796,-11.841001,4.638743,2.380407,-0.021363,0.012207,0.982437
797,-13.611048,2.746624,1.892119,-0.012940,-0.001221,0.996963
798,-13.244831,1.770047,1.464866,-0.011597,-0.005371,1.002945
799,-13.366903,0.976577,1.403830,-0.006470,-0.005249,0.998184
800,-12.756542,1.037613,1.892119,-0.008789,-0.025513,1.004410
801,-9.216449,1.098650,1.647974,-0.010254,-0.006226,0.977188
802,-9.948882,-1.342794,1.892119,0.019532,0.075807,0.949111
803,-11.963073,-0.854505,1.586938,-0.027344,0.000977,0.968887
804,-13.061723,-2.014191,0.915541,-0.001221,-0.019776,1.014542
805,-12.146181,-1.709010,0.671397,-0.015625,-0.028321,0.995743
806,-11.352712,-1.892119,0.854505,0.005982,-0.026001,0.999161
807,-11.718929,-0.976577,1.464866,0.003906,-0.034913,1.004654
808,-11.230640,-0.488289,1.709010,0.002686,-0.030640,1.000626
809,-11.474784,-0.427253,1.525902,-0.005127,-0.019043,0.985122
810,-13.305867,-0.854505,2.014191,0.018067,-0.026856,1.015763
811,-12.756542,0.000000,2.014191,-0.000610,-0.046143,0.992935
812,-12.390326,1.037613,2.563516,0.017945,-0.046632,1.014420
813,-11.413748,1.525902,2.746624,-0.013550,-0.024170,0.983780
814,-10.864424,0.854505,1.892119,-0.019165,-0.008301,1.006241
815,-14.709697,-1.281758,1.403830,-0.013062,-0.023804,0.997452
816,-16.357671,-2.441444,1.220722,-0.013428,-0.026001,0.971450
817,-16.723888,-3.418021,0.671397,-0.010864,-0.000855,0.936049
818,-23.132677,-5.920500,0.183108,-0.024292,0.001953,0.954849
819,-28.870069,-7.324331,0.122072,-0.006470,0.010620,0.940200
820,-38.757916,-7.385367,0.122072,-0.016114,-0.014771,0.977066
821,-41.077287,-7.934691,0.793469,-0.022461,-0.052613,0.979141
822,-38.147555,-7.812619,3.234913,0.017090,-0.032471,0.968765
823,-47.730220,-6.775006,5.493248,0.010254,-0.062745,1.003922
824,-48.401617,-7.568475,7.019150,-0.015625,-0.082399,0.997818
825,-43.701839,-3.845274,5.615320,0.051881,-0.047730,1.046891
826,-44.861524,-1.953155,0.915541,-0.058473,-0.058473,1.041398
827,-44.922560,-3.540093,-3.418021,-0.050050,-0.048951,0.998917
828,-44.922560,-4.272526,-8.361944,-0.045289,-0.063233,1.052628
829,-43.823911,-7.324331,-17.822538,-0.116823,0.045045,1.038346
830,-71.534295,1.098650,-41.321431,0.007568,-0.011841,0.912978
831,-81.239033,7.446403,-39.978637,0.139284,-0.332525,1.100603
832,-51.148241,0.793469,-10.742351,0.116701,-0.354620,1.136736
833,-24.292363,-1.098650,-1.770047,-0.060670,-0.114015,0.973526
834,-40.588998,-2.807660,-13.061723,0.000122,0.025025,0.954726
835,-67.078660,-1.892119,-18.860151,0.025757,0.198367,0.899062
836,-102.784772,-2.319371,-13.733120,0.135500,0.048829,0.832532
837,-110.719463,-0.671397,2.868696,-0.032715,0.544320,0.738659
838,-177.370871,-8.300908,-28.198672,0.181277,0.835218,1.097795
839,-312.809949,-9.643702,-52.613108,0.050172,0.891249,1.415061
840,-588.570993,-9.033341,-6.652934,-0.232303,0.932876,1.999969
841,-750.804913,-46.021210,38.208591,-0.532357,-0.191287,1.416770
842,-838.696880,-52.796216,62.989242,0.289677,0.137209,0.998062
843,-883.192187,-62.012665,37.842374,0.133791,-1.160174,0.996963
844,-1089.677272,-96.742199,174.502174,-1.102312,-0.924208,1.999969
845,-407.171740,-83.009079,-4.272526,-0.925307,-2.000031,1.999969
846,143.923095,-62.745098,-43.335622,-0.608652,0.649058,1.999969
847,127.748531,-58.045319,-34.546426,-0.626719,1.268208,1.999969
848,-34.607462,-52.552071,24.109255,-0.532723,0.930434,1.999969
849,-61.768521,-81.605249,60.364691,-0.366094,0.643442,1.999969
850,81.116960,-37.109941,43.091478,-0.197147,0.470588,1.455833
851,150.148775,-18.799115,27.527276,-0.078004,0.557259,0.748791
852,108.094911,-18.310826,29.785611,-0.010132,0.523079,0.632944
853,106.385901,-19.043259,24.658579,-0.013916,0.363653,0.806165
854,150.331884,-13.427939,12.512398,0.012573,0.381964,0.802380
855,162.905318,-12.207218,5.249104,0.036133,0.406134,0.822278
856,169.192035,-12.024109,-0.366217,0.036011,0.324712,0.961196
857,196.841382,-9.277485,-8.178836,0.030762,0.266606,0.950820
858,216.250858,-8.789197,-14.587625,-0.000244,0.236088,0.947646
859,224.734875,-10.681315,-17.639429,-0.044556,0.160647,0.968643
860,238.529030,-10.986496,-20.508125,-0.114992,0.075929,1.011490
861,250.308995,-9.033341,-20.691234,-0.166140,0.011597,1.109636
862,259.891661,-3.845274,-18.738079,-0.184207,-0.018311,1.281880
863,272.098878,6.042573,-16.479744,-0.213138,-0.086061,1.564721
864,293.156329,15.320058,-12.573434,-0.194095,-0.160647,1.666896
865,320.012207,24.902724,-9.582666,-0.151614,-0.233158,1.614405
866,334.233616,29.541466,-7.080186,-0.083619,-0.301762,1.513085
867,343.572137,32.898451,-6.530861,-0.014771,-0.371466,1.355001
868,342.595560,37.293050,-9.521630,0.110353,-0.422736,1.185809
869,329.777981,45.227741,-18.188754,0.332036,-0.530526,0.988663
870,305.668727,65.064469,-33.813993,0.517220,-0.588144,0.877821
871,278.019379,70.679789,-49.866484,0.541512,-0.514900,0.997330
872,247.562371,52.491035,-64.209964,0.543465,-0.477913,1.313863
873,238.956283,34.790570,-78.736553,0.484016,-0.397589,1.833402
874,231.692988,30.090791,-88.868544,0.294316,-0.430793,1.999969
875,237.125200,37.781338,-92.225528,0.090455,-0.580087,1.999969
876,262.088960,48.950942,-90.394446,-0.126955,-0.735119,1.999969
877,284.977493,56.092164,-80.628672,-0.259281,-0.836439,1.999969
878,295.597772,58.533608,-67.627985,-0.231937,-0.949111,1.999969
879,291.630427,65.735866,-54.932479,-0.147097,-0.969253,1.877348
880,273.136492,69.336996,-43.762875,-0.045899,-0.997452,1.858549
881,263.492790,70.862898,-36.499580,0.091066,-1.047013,1.882719
882,259.647517,75.013352,-34.180209,0.232792,-1.120745,1.749538
883,248.050660,84.046693,-34.668498,0.310185,-1.264668,1.506004
884,227.847715,91.187915,-34.485389,0.377081,-1.454856,1.248310
885,198.550393,92.469673,-32.898451,0.508919,-1.750759,1.138811
886,165.285725,90.089265,-32.837415,0.745617,-2.000031,1.068009
887,129.213397,96.131838,-46.021210,0.903578,-2.000031,0.966567
888,115.846494,113.099870,-62.806134,0.756847,-2.000031,0.417975
889,111.818112,112.184329,-69.764248,0.479133,-2.000031,-0.494881
890,52.979324,59.327077,-49.927520,0.183352,-2.000031,-0.995377
891,-28.564889,-30.151827,-15.869383,-0.054322,-1.943267,-0.436408
892,-118.837263,-139.833677,5.004959,-0.094972,-2.000031,-1.372091
893,-257.022965,-242.069123,42.664225,0.595102,-0.946304,0.728283
894,-152.407111,-143.007553,22.278172,0.194339,-0.213504,1.999969
895,-87.281605,-52.185855,4.394598,-0.684703,1.256611,1.999969
896,-152.651255,-75.501640,31.677729,-0.784558,0.616953,0.255619
897,-304.081788,-100.099184,67.750057,-0.087160,-0.182742,0.015503
898,-312.565805,-75.989929,80.140383,0.499519,-0.447395,1.460349
899,-268.497749,-50.904097,69.398032,1.503563,-0.017578,1.999969
900,-199.649043,-1.159686,25.452049,1.648585,-0.012573,1.999969
901,-130.251011,37.293050,-20.141909,0.643442,-0.027466,1.694728
902,-143.617914,51.941711,-20.202945,-0.916274,-0.103151,1.719142
903,-153.933013,7.751583,19.104295,-1.998199,-0.642710,1.769802
904,-76.966506,-70.374609,44.068055,-0.791516,-0.342535,0.572641
905,-82.520790,-123.231861,49.561303,0.983291,0.464851,1.982818
906,-79.957275,-81.300069,25.268940,1.291279,0.071534,1.999969
907,-42.481117,-27.161059,9.155413,-0.459968,0.006714,1.521386
908,-48.462654,-53.345541,15.869383,-0.220340,0.039307,0.951553
909,-41.443503,-52.124819,3.906310,0.506600,0.214359,1.534813
910,-44.739452,-22.278172,0.366217,0.069947,-0.009155,1.119280
911,-36.621653,-17.517357,1.220722,-0.138552,0.023804,1.285786
912,-28.137636,-17.700465,0.000000,0.153445,0.001953,1.107561
913,-20.935378,-6.042573,-0.854505,0.071046,0.030396,1.119158
914,-20.569162,-3.356985,2.807660,-0.034913,0.005982,1.070329
915,-12.878614,-2.197299,1.342794,0.064454,0.056275,1.047257
916,-16.052491,3.173877,2.868696,0.021363,0.033326,1.007462
917,-14.709697,3.601129,4.211490,-0.024292,0.015137,1.036027
918,-12.512398,2.868696,3.540093,-0.003418,0.044068,1.006973
919,-14.282444,2.075227,4.150454,-0.013306,0.042481,1.005386
920,-11.474784,0.122072,2.258335,-0.050050,0.110109,0.976333
921,-12.817578,-2.563516,2.685588,-0.066896,0.083497,0.982559
922,-15.869383,-5.676356,2.258335,-0.037598,0.041138,1.004654
923,-13.244831,-6.897078,1.220722,-0.016114,0.030640,0.950454
924,-13.733120,-7.263294,1.098650,-0.092287,0.138186,1.246723
925,-10.315099,-8.422980,2.502480,0.008423,0.025635,0.921767
926,-13.733120,-8.667124,2.990768,-0.000366,0.049683,0.945327
927,-17.151141,-9.887846,3.540093,-0.032349,0.052491,0.984390
928,-20.813306,-11.779965,3.479057,-0.003296,0.035279,0.993912
929,-20.263981,-11.841001,2.075227,-0.010742,0.015747,0.996475
930,-18.249790,-10.925460,2.014191,-0.003052,-0.005493,1.016861
931,-14.892805,-8.117800,-0.915541,0.103761,-0.159304,0.679210
932,-14.221408,-9.765774,0.244144,0.002441,0.024048,1.094865
933,-17.639429,-9.582666,1.159686,-0.008545,-0.006958,1.018204
934,-11.779965,-8.789197,0.976577,0.016846,-0.055055,0.964248
935,-12.695506,-8.850233,1.403830,0.004028,-0.001953,0.974136
936,-15.136950,-9.704738,1.647974,-0.016114,0.010254,0.984878
937,-15.503166,-11.047532,1.159686,-0.003174,0.015381,0.993423
938,-17.822538,-11.902037,0.976577,-0.005615,0.023560,0.951186
939,-18.005646,-12.512398,-0.122072,0.009888,0.004639,0.978408
940,-20.752270,-12.695506,-0.488289,0.011841,-0.004150,1.015274
941,-20.386053,-12.024109,-0.976577,0.022217,-0.016114,1.020157
942,-19.653620,-10.620279,-1.464866,0.032349,-0.011719,0.990127
943,-22.339208,-9.338521,-0.915541,0.044068,-0.028077,1.005631
944,-22.949569,-7.385367,0.061036,0.038209,-0.033570,1.014054
945,-22.522316,-5.310140,0.671397,0.043091,-0.031373,1.008682
946,-24.597543,-4.089418,1.098650,0.014282,-0.021118,0.972183
947,-26.977951,-5.127031,1.525902,0.028077,-0.009400,0.973281
948,-30.823224,-5.920500,1.342794,-0.015137,-0.009033,0.968276
949,-31.616693,-8.361944,1.342794,0.021485,-0.005371,0.938003
950,-37.109941,-8.972305,0.366217,0.020630,0.017090,1.139055
951,-43.030442,-6.836042,-1.098650,0.008423,-0.079225,1.005631
952,-35.889220,-5.798428,-2.136263,0.043214,-0.048829,0.986465
953,-41.809720,-3.723201,-0.793469,-0.005737,-0.047486,1.034195
954,-52.735180,-0.061036,7.263294,0.101076,-0.046632,0.961563
955,-63.294423,2.807660,8.850233,0.021607,-0.109010,1.026627
956,-46.875715,3.479057,12.207218,0.043580,-0.067262,1.027604
957,-55.115587,5.188067,9.948882,-0.019165,-0.081056,1.024063
958,-50.537881,3.295949,7.019150,-0.013916,-0.096193,1.043839
959,-36.316472,0.671397,-2.380407,-0.083497,-0.080812,1.026383
960,-33.325704,-2.868696,-14.221408,-0.017212,-0.180056,0.938857
961,-37.170977,2.807660,-25.085832,0.051148,-0.177371,1.049210
962,-37.659266,-0.061036,-32.837415,0.069825,-0.252811,0.952163
963,-15.259022,0.366217,-21.606775,0.168093,-0.245975,1.094377
964,-8.545052,1.281758,-9.704738,0.077882,-0.148562,0.994400
965,-12.024109,-0.793469,0.427253,-0.004517,0.110475,1.045914
966,-59.266041,9.094377,-17.517357,0.098024,0.183108,0.940322
967,-100.526436,20.141909,-18.127718,0.066163,0.217411,0.945815
968,-130.678264,22.400244,-28.686961,-0.033082,0.387579,0.814221
969,-168.093385,-0.793469,-46.082246,-0.236088,0.198367,0.453376
970,-221.194781,-31.189441,-19.653620,0.187869,1.088029,0.831312
971,-442.877852,-26.855879,-61.951629,0.161624,0.995743,1.917266
972,-629.648280,-83.314260,-55.420768,-1.033707,0.121218,1.807767
973,-759.533074,-187.319753,21.423667,-0.343023,-0.054444,1.342184
974,-865.491722,-235.294118,57.801175,-0.230838,-0.176394,1.021134
975,-1006.729229,-233.401999,94.911116,1.365988,-2.000031,1.999969
976,-867.933166,-125.978485,231.509880,-0.196536,-0.996109,1.999969
977,55.664912,-45.410849,-81.788357,-0.235355,-0.690806,1.999969
978,380.804150,22.949569,-80.628672,-0.364019,0.917372,1.999969
979,186.770428,41.870756,-91.798276,-0.211551,0.847303,1.411887
980,19.165332,-0.183108,6.836042,-0.854261,0.675425,0.827283
981,-53.284504,-50.171664,48.462654,-0.549203,0.348272,0.872450
982,41.382467,-26.977951,44.312200,-0.401373,0.210452,0.705211
983,140.138857,-6.652934,30.945296,-0.308721,0.364752,0.545907
984,112.062257,-5.798428,36.316472,-0.178714,0.439704,0.564828
985,85.877775,-5.493248,40.955215,-0.144289,0.313970,0.895399
986,127.382315,1.525902,35.278859,-0.026734,0.338384,1.006973
987,163.210498,7.385367,25.024796,0.089723,0.427131,0.927016
988,164.980545,9.521630,16.540780,0.164797,0.422980,0.973404
989,179.873350,16.357671,5.615320,0.173465,0.354742,1.060807
990,205.508507,24.414435,-6.347753,0.136233,0.302007,1.151629
991,221.744106,28.259709,-13.427939,0.069215,0.231937,1.241474
992,239.749752,30.579080,-16.723888,0.009888,0.119265,1.347066
993,262.577249,33.752956,-16.784924,-0.052369,0.003784,1.412131
994,284.306096,36.072328,-13.672084,-0.102907,-0.092897,1.428611
995,302.311742,38.208591,-8.484016,-0.108766,-0.153323,1.364157
996,313.664454,41.748684,-4.028382,-0.050172,-0.231449,1.323140
997,319.340810,44.495308,-0.793469,-0.019532,-0.281865,1.282246
998,320.622568,47.241932,0.427253,0.052491,-0.382818,1.131365
999,312.138552,58.594644,-4.150454,0.151369,-0.548348,0.736950
1000,283.390555,81.055924,-8.850233,0.284062,-0.666636,0.478401
1001,247.440299,94.361791,-15.503166,0.359014,-0.528817,0.604623
1002,210.330358,75.074388,-22.339208,0.317266,-0.399786,1.098039
1003,193.179217,51.880674,-29.785611,0.391363,-0.241459,1.999969
1004,195.254444,37.659266,-40.650034,0.394415,-0.305547,1.999969
1005,238.529030,42.420081,-54.383154,0.385260,-0.486824,1.999969
1006,280.827039,57.801175,-73.365377,0.314702,-0.630747,1.999969
1007,264.652476,65.247578,-77.454795,0.158450,-0.616342,1.999969
1008,255.619135,55.298695,-76.173037,0.061402,-0.739513,1.999969
1009,292.240787,50.843061,-78.492409,0.156497,-0.810803,1.999969
1010,307.499809,65.369650,-83.009079,0.255619,-0.777966,1.999969
1011,284.122988,76.661326,-83.863584,0.251347,-0.871107,1.849271
1012,282.475013,80.262455,-85.084306,0.239628,-0.976455,1.737575
1013,273.563745,78.370336,-83.375296,0.193240,-1.059342,1.634424
1014,256.229496,76.478218,-78.187228,0.113039,-1.250629,1.521508
1015,243.595026,81.361105,-70.801862,0.033570,-1.466819,1.257221
1016,215.579461,90.699626,-60.303655,-0.037476,-1.824369,0.956435
1017,171.755550,109.315633,-43.091478,0.071412,-2.000031,0.860243
1018,111.268788,130.495155,-20.935378,0.254398,-2.000031,0.912978
1019,72.938125,159.731441,-3.418021,0.309453,-2.000031,0.583993
1020,90.333410,167.238880,12.756542,0.094972,-2.000031,-0.195315
1021,27.954528,76.661326,43.152514,-0.031373,-2.000031,-2.000031
1022,-173.708705,-96.986343,113.466087,0.530037,-2.000031,-2.000031
1023,-259.098192,-207.705806,125.123980,1.493919,-2.000031,-0.720836
1024,-235.172045,-192.202640,71.961547,1.116594,-0.472053,1.542382
1025,-144.350347,-153.566796,24.048219,0.102785,0.856947,1.999969
1026,-202.761883,-114.747845,50.049592,-0.223026,0.828870,1.970123
1027,-293.461509,-115.358206,70.069429,0.398077,-0.413458,0.521370
1028,-279.179065,-93.934539,67.627985,0.680064,-0.613291,1.153582
1029,-257.145037,-86.121920,58.899825,1.314473,0.002075,1.999969
1030,-217.654688,-30.457008,34.363317,1.169329,-0.318486,1.999969
1031,-112.062257,-3.967346,5.615320,0.029664,-0.179324,1.694728
1032,-148.195621,-32.715343,22.888533,-1.170184,-0.385504,1.999969
1033,-113.405051,-82.093538,33.569848,-0.049928,-0.493416,1.999969
1034,-34.180209,-67.139696,11.291676,1.325826,0.187015,1.999969
1035,-39.551385,-7.690547,4.028382,0.419562,0.195682,1.332540
1036,-54.749371,7.080186,11.047532,-0.370977,0.015137,1.077043
1037,-44.434272,-15.747311,5.920500,0.013672,0.056641,1.243427
1038,-32.288090,-7.995727,-0.671397,0.386236,0.091676,1.431052
1039,-27.771420,10.986496,-0.854505,-0.055299,-0.031739,1.040055
1040,-15.869383,8.667124,-1.953155,-0.048951,0.117067,0.994400
1041,-30.640116,7.751583,2.441444,0.024048,-0.019287,1.122576
1042,-15.503166,11.657893,2.441444,-0.019532,-0.015015,1.076799
1043,-12.512398,10.803388,3.479057,-0.017090,0.026612,1.034318
1044,-11.047532,10.803388,4.028382,-0.006470,0.022705,1.044327
1045,-8.606088,10.681315,4.089418,-0.031495,0.031861,1.011002
1046,-7.690547,9.338521,4.089418,-0.015381,0.022339,1.038102
1047,-4.577707,8.117800,3.906310,-0.039307,0.032227,1.002823
1048,-3.356985,6.164645,3.418021,-0.042969,0.041138,0.979629
1049,-3.601129,4.089418,2.807660,-0.039796,0.041993,0.979751
1050,-4.089418,1.403830,2.380407,-0.085695,0.040894,0.966201
1051,-4.455634,-2.258335,2.258335,-0.050294,0.033326,0.967300
1052,-4.821851,-4.760815,2.929732,-0.049683,0.034180,0.953872
1053,-3.845274,-8.606088,3.051804,-0.074098,0.053834,0.925185
1054,-7.385367,-13.855192,3.234913,-0.065675,0.028687,0.934707
1055,-7.873655,-18.310826,3.234913,-0.026978,0.038819,0.953506
1056,-10.070954,-18.982223,0.000000,-0.006958,-0.109743,0.829358
1057,-13.733120,-22.339208,1.464866,-0.033814,0.016724,1.078019
1058,-14.160372,-22.156100,2.319371,-0.007691,-0.009277,0.981338
1059,-7.995727,-18.310826,-1.159686,0.077272,-0.162112,0.796887
1060,-5.371176,-17.883574,-0.305180,-0.008301,0.040528,1.062272
1061,-10.254063,-19.409476,1.098650,-0.030518,0.050050,0.941299
1062,-13.244831,-20.202945,0.366217,0.003174,0.029419,0.982925
1063,-14.404517,-19.287404,0.244144,-0.000488,0.005249,0.981827
1064,-12.024109,-18.554971,-0.549325,-0.000366,0.027222,1.002335
1065,-13.122759,-18.493935,0.000000,0.007568,0.026123,1.001602
1066,-14.465553,-17.212177,-0.122072,-0.001343,0.010010,1.001968
1067,-14.648661,-16.845960,-0.244144,0.019532,0.018921,1.009903
1068,-15.991455,-15.503166,-0.610361,0.034180,0.009522,1.020890
1069,-15.075914,-14.404517,-0.732433,0.037476,0.005615,0.973159
1070,-18.249790,-13.550011,-0.305180,0.032715,-0.000366,1.005509
1071,-17.883574,-11.718929,-0.122072,0.046754,-0.006104,1.028336
1072,-17.578393,-9.704738,-0.244144,0.039551,-0.008667,0.992691
1073,-18.127718,-8.545052,0.427253,0.047974,0.000977,0.990860
1074,-20.263981,-7.690547,0.061036,0.018799,0.015747,0.966690
1075,-23.071641,-8.300908,-0.488289,0.022950,0.005982,0.975113
1076,-26.062409,-9.216449,-1.220722,0.015625,-0.000610,0.970352
1077,-27.283131,-9.582666,-1.342794,0.032593,-0.023926,0.990860
1078,-25.207904,-10.254063,0.061036,0.026001,0.020996,1.019669
1079,-27.038987,-8.972305,-1.098650,0.023438,-0.005615,0.958633
1080,-32.532235,-9.155413,-1.525902,0.052857,0.019654,1.063005
1081,-37.964446,-6.530861,-2.075227,0.037598,-0.010742,0.966690
1082,-42.664225,-6.042573,-2.868696,0.041260,-0.057740,1.001480
1083,-43.457694,-3.967346,-2.075227,0.084474,-0.058595,1.008682
1084,-45.044633,1.709010,3.418021,0.141970,0.125856,0.847913
1085,-45.593957,5.188067,10.070954,0.105226,-0.035889,1.087785
1086,-56.580453,7.507439,13.305867,-0.001465,-0.097414,0.962539
1087,-47.241932,6.775006,11.718929,0.015747,-0.031250,1.020157
1088,-52.918288,5.371176,7.690547,-0.023804,-0.057862,0.943862
1089,-61.280232,3.356985,0.488289,-0.095949,-0.096925,1.102922
1090,-50.537881,3.173877,-11.779965,-0.039551,-0.171756,0.969863
1091,-39.002060,3.173877,-18.066682,0.000732,-0.041627,1.083879
1092,-48.706798,1.403830,-37.537194,0.056153,-0.159426,1.052384
1093,-40.772107,6.103609,-33.264668,0.217288,-0.333135,1.113787
1094,-19.287404,4.821851,-3.601129,0.154421,-0.156497,1.023819
1095,-20.996414,7.873655,3.051804,0.074098,0.287602,0.924208
1096,-74.769207,22.766461,-22.644388,0.161013,0.218997,0.955581
1097,-125.123980,35.767147,-23.132677,0.059327,0.331792,0.884657
1098,-195.132372,32.898451,-36.072328,-0.123293,0.716442,0.424811
1099,-199.526970,-26.733806,-18.127718,-0.277470,0.910658,1.295674
1100,-387.579156,-34.973678,-52.429999,0.161257,1.506249,1.715724
1101,-640.939956,-76.295109,-66.407263,-0.862684,0.564584,1.566552
1102,-804.821851,-179.201953,42.908370,-0.420050,0.074830,1.738796
1103,-898.268101,-217.044327,102.784772,-0.123537,-0.374640,1.302022
1104,-1082.719158,-191.470207,143.007553,1.011734,-2.000031,1.999969
1105,-699.473564,-27.405203,147.524224,-1.193133,-0.991958,1.999969
1106,253.238727,4.882887,-79.713130,-0.438361,0.460700,1.999969
1107,448.798352,11.718929,-95.338369,-1.162615,1.087297,1.999969
1108,192.996109,27.344167,-60.547799,-0.746838,0.947890,0.594614
1109,-29.114214,-42.236973,27.649348,-0.487922,0.314458,-0.259648
1110,-49.927520,-48.035401,37.232013,-0.136721,-0.190921,0.232303
1111,84.840162,-3.356985,6.042573,-0.323125,0.232914,0.478523
1112,80.689708,6.836042,3.234913,-0.168338,0.522347,0.404547
1113,41.138323,16.540780,9.399557,-0.256596,0.355718,0.750622
1114,85.816739,19.104295,7.507439,-0.292851,0.356085,0.908583
1115,115.297169,13.305867,9.277485,-0.313115,0.416876,0.895155
1116,121.889067,3.784237,16.662852,-0.276738,0.405524,1.140154
1117,148.744945,2.014191,20.141909,-0.221195,0.391485,1.356344
1118,183.718624,6.591897,19.226368,-0.140261,0.392340,1.517479
1119,211.429007,15.197986,17.761501,-0.074342,0.317021,1.523095
1120,243.472953,25.085832,14.160372,-0.038087,0.206668,1.377462
1121,268.863966,31.799802,11.169604,-0.009522,0.118532,1.150530
1122,280.399786,32.959487,9.704738,0.045777,0.062257,1.028702
1123,283.390555,31.189441,8.178836,0.117311,0.041749,1.113787
1124,289.738308,29.541466,3.662165,0.201297,0.031495,1.277119
1125,302.861067,29.907683,-5.188067,0.271000,-0.008423,1.291279
1126,309.697108,30.762188,-16.418708,0.320684,-0.113649,1.142596
1127,305.424582,37.781338,-29.419394,0.357427,-0.347539,0.832776
1128,287.479973,48.035401,-39.490349,0.386725,-0.349126,0.877089
1129,256.229496,53.955901,-51.575494,0.451301,-0.346807,1.103166
1130,245.792325,61.707485,-66.468299,0.461799,-0.261479,1.461204
1131,237.491417,72.022583,-80.384527,0.399908,-0.279911,1.792142
1132,228.641184,83.192187,-87.769894,0.241459,-0.374762,1.999969
1133,233.829252,86.060884,-88.990616,0.048829,-0.515023,1.999969
1134,246.707866,86.610208,-83.314260,-0.036500,-0.668589,1.999969
1135,260.257877,87.769894,-74.036774,-0.049439,-0.795666,1.999969
1136,272.831312,87.769894,-66.651408,-0.075441,-1.005142,1.999969
1137,273.441672,100.160220,-61.890593,-0.021118,-1.101579,1.725368
1138,238.101778,108.583200,-49.744411,-0.016724,-1.053727,1.926299
1139,232.364385,97.474632,-36.438544,0.216312,-1.037125,1.999969
1140,256.595712,82.764935,-29.846647,0.454841,-0.953384,1.999969
1141,263.859007,65.308614,-25.513085,0.607187,-0.986954,1.954986
1142,262.149996,53.345541,-23.254749,0.536263,-1.183734,1.652003
1143,250.003815,44.312200,-19.043259,0.302739,-1.501976,1.364889
1144,226.871138,37.720302,-5.493248,0.022339,-1.949493,1.079606
1145,195.376516,31.860838,12.512398,-0.010010,-2.000031,0.724498
1146,158.083467,35.950256,25.085832,0.204837,-2.000031,0.460578
1147,117.555505,49.011978,26.489662,0.505867,-2.000031,0.054810
1148,77.882048,67.627985,11.596857,0.533577,-2.000031,-0.226688
1149,36.804761,65.674830,24.658579,0.268315,-2.000031,-0.270634
1150,-31.311513,20.935378,57.190814,-0.131960,-2.000031,-0.155276
1151,-149.477379,-89.051652,85.145342,0.906874,-1.987335,-1.387716
1152,-294.743267,-160.158694,73.853666,1.497581,-1.201556,0.840833
1153,-99.549859,-74.525063,20.080873,0.871962,0.388067,1.999969
1154,-41.321431,-52.796216,-11.230640,0.067750,1.577905,1.797879
1155,-155.764096,-56.702525,1.770047,-0.585824,0.965835,-0.291997
1156,-288.578622,-74.219883,18.432898,-0.930434,-0.555428,-0.315068
1157,-354.985885,-80.140383,69.092851,-0.250614,-0.583627,1.999969
1158,-250.308995,-49.256123,64.698253,0.802869,-0.500374,1.999969
1159,-133.730068,-12.634470,30.090791,0.922377,-0.070558,1.695583
1160,-162.539101,-6.530861,21.301595,0.453986,0.054078,1.687160
1161,-167.605097,-23.132677,25.513085,-0.364508,-0.160403,1.999969
1162,-91.737240,-41.565576,28.381781,-0.433478,-0.182620,1.842313
1163,-77.027543,-66.773480,28.198672,0.500984,0.017700,1.999969
1164,-45.532921,-36.316472,7.812619,0.783337,0.028321,1.697780
1165,-36.377508,-8.361944,6.591897,-0.203616,0.065919,1.226581
1166,-40.527962,-25.879301,11.169604,-0.202762,0.025269,1.184100
1167,-24.780652,-30.457008,1.709010,0.256718,0.290288,1.401022
1168,-25.085832,-11.657893,1.647974,0.070192,0.154177,0.977554
1169,-33.752956,-7.507439,3.051804,-0.066285,0.080934,1.042008
1170,-31.128405,-8.422980,0.976577,0.027466,0.036988,1.165911
1171,-21.728847,-2.746624,2.990768,0.072877,0.066651,1.103288
1172,-20.202945,1.525902,3.356985,0.000488,0.041993,1.065934
1173,-14.343481,3.540093,1.342794,-0.024414,0.041993,1.007584
1174,-14.282444,3.723201,2.746624,0.022705,0.116823,0.984024
1175,-17.578393,5.065995,3.112840,-0.035523,0.083497,1.015640
1176,-18.799115,4.272526,4.272526,-0.004883,0.041016,1.043473
1177,-13.977264,4.638743,3.662165,-0.018677,0.066896,1.023819
1178,-15.381094,3.356985,4.150454,-0.034546,0.050294,0.977432
1179,-14.160372,1.342794,4.394598,-0.043702,0.070436,0.949233
1180,-17.029068,0.000000,2.746624,-0.056275,0.104494,1.071061
1181,-17.151141,-3.723201,4.577707,-0.015991,0.037110,0.972427
1182,-18.677043,-5.065995,4.272526,-0.027832,0.030152,0.958267
1183,-16.540780,-6.286717,3.540093,-0.062013,0.049195,0.985489
1184,-18.799115,-8.850233,3.356985,-0.073365,0.128664,1.204120
1185,-15.136950,-9.704738,4.394598,0.001343,0.078492,0.897353
1186,-18.432898,-8.972305,3.112840,-0.011231,0.036133,0.965957
1187,-19.775692,-7.812619,2.868696,-0.002075,0.032593,1.055070
1188,-16.968032,-5.981537,2.502480,-0.012207,0.033936,1.009781
1189,-18.310826,-4.760815,2.807660,-0.015137,0.034302,1.038834
1190,-16.052491,-2.868696,2.685588,-0.013916,0.010254,0.992203
1191,-12.634470,-3.418021,2.685588,-0.004028,0.128420,0.981827
1192,-13.977264,-1.647974,2.868696,-0.008789,0.053223,0.960830
1193,-18.554971,-2.990768,2.990768,-0.025147,0.020508,1.036393
1194,-15.259022,-3.723201,2.258335,-0.008179,0.005615,0.995254
1195,-13.305867,-3.906310,1.586938,-0.021118,0.022461,0.991836
1196,-15.197986,-5.065995,1.464866,-0.017578,0.005859,0.990738
1197,-14.221408,-5.310140,1.037613,-0.016968,0.050050,1.036759
1198,-15.686275,-5.554284,0.976577,0.008179,0.013184,0.998062
1199,-17.090105,-5.188067,1.159686,0.014893,0.000977,1.007218
1200,-17.456321,-3.784237,1.220722,0.005859,-0.004395,1.024552
1201,-15.320058,-1.770047,1.098650,0.011597,-0.052125,1.026627
1202,-15.075914,-0.244144,1.709010,0.010620,0.023194,1.069230
1203,-14.709697,1.098650,2.685588,0.011353,0.031983,1.051041
1204,-12.695506,3.051804,2.929732,0.007080,-0.041016,0.949111
1205,-14.038300,2.197299,3.234913,-0.011353,0.016358,0.974746
1206,-17.456321,0.244144,3.051804,-0.032837,0.014405,0.950454
1207,-21.972992,-1.831083,2.685588,-0.016480,0.020386,0.938369
1208,-30.212863,-3.845274,2.807660,0.012940,0.020874,0.989639
1209,-34.363317,-4.577707,2.807660,-0.001709,-0.021973,0.969497
1210,-33.386740,-3.906310,2.014191,0.000855,-0.001465,0.964492
1211,-35.095750,-2.746624,2.014191,-0.034058,0.023926,0.973770
1212,-43.945983,-5.188067,2.014191,-0.022950,-0.030640,0.971695
1213,-43.213550,-5.310140,2.441444,-0.042603,-0.051759,0.997696
1214,-41.199359,-5.371176,4.333562,0.039307,-0.074708,1.013199
1215,-44.007019,-2.990768,7.263294,-0.025391,-0.064820,1.012467
1216,-39.795529,-3.967346,5.493248,-0.018921,-0.053834,1.003922
1217,-38.452735,-3.418021,3.723201,-0.013306,-0.041871,0.995132
1218,-40.772107,-1.770047,1.403830,0.012451,-0.074708,0.990127
1219,-35.461967,0.122072,-1.281758,-0.077394,-0.046754,1.016983
1220,-35.156786,-4.089418,-8.239872,-0.098268,-0.011719,1.075700
1221,-28.992142,0.000000,-20.569162,-0.063844,-0.099733,0.912856
1222,-61.402304,3.051804,-40.894179,-0.036378,-0.021363,0.879042
1223,-76.356146,6.042573,-45.349813,0.097536,-0.314214,1.011612
1224,-49.683375,-7.568475,-14.526589,0.061524,-0.275395,1.119158
1225,-45.654994,-13.366903,-7.812619,-0.089967,0.056031,0.985000
1226,-67.811093,-14.709697,-23.987182,-0.006104,0.185428,0.942519
1227,-103.273060,-9.643702,-30.090791,0.111452,0.136233,0.977432
1228,-148.439765,-8.911269,-20.508125,-0.050782,0.172854,0.853407
1229,-155.397879,-27.344167,-17.822538,0.031617,0.227665,0.830213
1230,-206.851301,-22.339208,-24.231327,0.045899,0.785534,1.042374
1231,-429.083696,-28.686961,-36.438544,0.273198,1.124163,1.141253
1232,-663.706416,-54.749371,1.037613,-0.595834,0.245243,1.868070
1233,-763.256275,-137.087053,69.092851,-0.202029,-0.125490,0.960098
1234,-830.395972,-174.074922,75.745785,-0.055421,-0.284916,0.788952
1235,-874.830243,-213.626307,74.830243,0.286748,-1.731594,1.440940
1236,-1121.232929,-254.093233,222.720684,-0.517220,-1.525048,1.999969
1237,-310.429541,-197.817960,43.762875,-0.362676,-1.433982,1.999969
1238,235.599298,-136.964981,-16.479744,0.052125,1.075944,1.999969
1239,215.884642,-52.857252,-27.161059,0.143313,1.976593,1.999969
1240,54.871443,3.601129,-19.409476,-0.468513,0.786389,1.999969
1241,29.114214,8.239872,17.883574,-0.439582,0.345708,1.534569
1242,136.598764,46.387427,10.193027,-0.441291,0.112184,0.807507
1243,200.076295,51.819638,15.625238,-0.343511,0.230961,0.247074
1244,158.449683,29.968719,32.227054,-0.226810,0.221561,0.140261
1245,136.659800,9.033341,43.213550,-0.129030,0.092164,0.332158
1246,165.957122,0.427253,44.190127,0.063233,0.145510,0.559213
1247,181.643397,-12.939651,39.734493,0.251835,0.298222,0.793103
1248,193.240253,-29.480430,29.541466,0.391241,0.344732,1.018082
1249,218.570230,-31.738766,9.948882,0.490608,0.324468,1.099138
1250,238.895247,-20.141909,-13.122759,0.439094,0.321538,1.164569
1251,246.707866,-10.315099,-31.799802,0.302739,0.162722,1.089616
1252,262.149996,-2.380407,-45.105669,0.138308,0.051392,1.147234
1253,275.333791,-0.610361,-50.415808,0.013062,-0.053223,1.139910
1254,287.113756,0.183108,-50.598917,-0.082155,-0.123781,1.191180
1255,296.513314,2.990768,-47.425040,-0.116213,-0.183352,1.256977
1256,304.753185,10.193027,-43.457694,-0.094728,-0.216434,1.336324
1257,311.039902,20.813306,-40.833143,-0.061402,-0.257450,1.417746
1258,312.382696,29.602502,-39.795529,-0.002686,-0.324590,1.490013
1259,313.908598,37.048905,-41.992828,0.048096,-0.431281,1.457298
1260,316.289006,48.218509,-46.814679,0.077394,-0.531502,1.267353
1261,301.518273,66.956588,-51.880674,0.119020,-0.633677,0.967544
1262,273.319600,76.966506,-53.406577,0.148684,-0.677623,0.812146
1263,239.200427,68.726635,-54.871443,0.155520,-0.621469,0.873915
1264,213.687343,51.514458,-58.106355,0.203983,-0.485115,1.278340
1265,189.944305,38.757916,-61.890593,0.269047,-0.332280,1.999969
1266,186.099031,40.772107,-70.008392,0.288701,-0.384649,1.999969
1267,218.631266,60.608835,-80.628672,0.228153,-0.586923,1.999969
1268,252.689403,84.962234,-86.182956,0.104982,-0.672129,1.999969
1269,250.125887,91.432059,-80.445563,0.004883,-0.759655,1.999969
1270,256.229496,88.807507,-71.168078,-0.017456,-0.851209,1.999969
1271,266.483558,91.004807,-61.646448,0.068605,-0.835584,1.915190
1272,256.290532,93.934539,-53.284504,0.103273,-0.887953,1.747829
1273,245.487144,94.789044,-47.058824,0.151492,-0.972915,1.723781
1274,238.101778,93.568322,-41.687648,0.136965,-1.119768,1.710475
1275,232.608530,89.356832,-34.058137,0.108888,-1.349264,1.562524
1276,220.645457,83.497368,-25.024796,0.114260,-1.669581,1.348043
1277,196.902419,83.497368,-12.695506,0.286137,-2.000031,1.090837
1278,157.045853,90.882734,-4.211490,0.645029,-2.000031,0.844129
1279,116.090639,119.691768,-19.348440,0.808606,-2.000031,0.573983
1280,106.263828,153.810941,-32.654307,0.625986,-2.000031,-0.178470
1281,75.501640,134.645609,-21.423667,0.317632,-2.000031,-0.957290
1282,-48.035401,21.057450,9.155413,-0.234501,-2.000031,-2.000031
1283,-251.163500,-199.038682,80.018311,0.638682,-2.000031,-1.916289
1284,-280.338750,-239.566644,69.336996,1.137102,-0.706920,1.092180
1285,-143.434806,-120.363165,22.766461,0.100465,0.894301,1.999969
1286,-190.188449,-90.272374,35.706111,-0.414191,1.158587,1.999969
1287,-293.766690,-127.077134,57.923247,-0.016114,-0.108156,0.762829
1288,-253.116655,-98.207065,57.129778,0.227298,-0.690074,0.546273
1289,-248.416876,-89.662013,60.303655,0.822522,-0.083375,1.999969
1290,-268.741894,-51.636530,53.528649,1.327779,-0.072755,1.999969
1291,-140.444038,15.808347,13.733120,1.042741,-0.295171,1.999969
1292,-116.762036,35.034714,5.676356,-0.181888,0.473640,1.999969
1293,-186.526284,11.108568,24.536507,-0.964126,-0.453620,1.999969
1294,-62.561990,-47.486076,19.531548,-0.339727,-0.388067,1.876493
1295,-36.316472,-54.505226,4.028382,0.791882,0.157961,1.806546
1296,-55.359731,-13.977264,12.390326,0.439094,0.120485,1.135882
1297,-56.824598,-0.976577,6.958114,-0.470588,0.035401,1.158953
1298,-51.514458,-27.649348,6.042573,0.035767,-0.045289,1.207416
1299,-27.832456,-19.470512,-2.441444,0.318120,0.094484,1.265766
1300,-30.945296,-7.019150,-2.258335,-0.086427,-0.009033,1.137713
1301,-20.874342,-10.070954,0.244144,-0.012329,0.010132,1.136370
1302,-14.160372,-6.225681,0.793469,0.083253,0.061524,1.099626
1303,-14.221408,-1.525902,1.647974,-0.032349,0.043946,1.008927
1304,-11.657893,-2.380407,2.197299,0.019165,0.053834,1.047868
1305,-12.024109,1.281758,2.929732,0.056031,0.053468,1.051041
1306,-10.803388,4.089418,3.723201,-0.036988,0.044434,0.982315
1307,-10.681315,2.624552,3.601129,-0.004639,0.067018,0.988663
1308,-12.329290,2.136263,3.356985,-0.012940,0.063233,0.971084
1309,-13.916228,0.915541,3.112840,-0.023316,0.064820,0.980362
1310,-15.503166,-0.244144,2.380407,-0.029908,0.060304,0.960464
1311,-19.226368,-2.075227,2.502480,-0.025391,0.036988,0.995865
1312,-18.554971,-3.173877,2.441444,-0.041505,0.027344,0.999527
1313,-18.127718,-4.211490,2.136263,-0.076173,0.100221,1.122454
1314,-15.869383,-5.981537,3.540093,-0.016480,0.091188,0.926284
1315,-20.813306,-6.164645,2.563516,-0.011841,0.004395,0.958755
1316,-18.738079,-5.554284,1.709010,-0.015747,0.014771,1.050309
1317,-17.944610,-5.127031,1.342794,-0.013672,0.037842,0.990860
1318,-20.569162,-5.065995,1.342794,0.001099,0.020874,1.013931
1319,-18.249790,-3.906310,1.037613,-0.015503,0.005127,1.026017
1320,-17.090105,-3.234913,1.098650,-0.015625,0.005371,1.020523
1321,-11.779965,-4.211490,2.136263,0.008667,0.171633,0.907729
1322,-16.235599,-3.234913,1.831083,-0.012085,0.019165,0.957168
1323,-17.822538,-3.723201,1.342794,-0.000610,-0.018189,1.055314
1324,-14.831769,-3.173877,1.037613,-0.010620,-0.017823,1.011246
1325,-14.221408,-3.479057,1.098650,-0.005493,-0.010986,0.989395
1326,-14.526589,-3.418021,0.976577,-0.011109,-0.019776,1.006973
1327,-13.427939,-3.662165,0.671397,-0.015991,-0.025513,1.001602
1328,-12.695506,-3.662165,0.488289,-0.012818,0.001221,0.983291
1329,-14.648661,-4.089418,0.427253,-0.011597,-0.010742,0.964004
1330,-16.601816,-4.272526,0.183108,-0.057252,0.099123,1.252216
1331,-13.183795,-4.394598,0.122072,-0.024781,-0.041871,1.109148
1332,-17.761501,-5.432212,1.342794,-0.016602,-0.049561,0.985733
1333,-14.160372,-4.394598,2.441444,-0.015869,-0.062623,1.003067
1334,-9.521630,-3.967346,2.929732,0.002441,-0.015381,0.989029
1335,-14.343481,-4.577707,3.784237,0.005371,0.013306,1.016983
1336,-16.784924,-5.004959,3.906310,0.009522,-0.006104,0.983169
1337,-18.616007,-4.455634,2.807660,0.017945,-0.019776,0.980850
1338,-20.935378,-4.028382,2.319371,0.015503,-0.032593,0.995132
1339,-22.949569,-3.479057,2.502480,-0.019776,-0.032715,0.982437
1340,-21.362631,-4.333562,2.502480,0.001343,-0.010132,0.977798
1341,-23.376822,-5.004959,1.159686,-0.014160,-0.008057,0.958511
1342,-28.992142,-6.836042,0.488289,0.003906,-0.009400,0.968643
1343,-31.311513,-6.591897,0.244144,0.018433,-0.063233,0.975723
1344,-34.424353,-5.493248,0.854505,0.014160,-0.048707,1.002457
1345,-35.156786,-4.333562,2.746624,0.002075,-0.070069,1.003311
1346,-33.997101,-2.746624,5.127031,-0.004150,-0.056397,0.979995
1347,-35.767147,-2.380407,6.225681,0.002686,-0.043580,0.954971
1348,-36.743725,-3.723201,6.042573,-0.031617,-0.022095,0.938735
1349,-44.251164,-5.676356,5.249104,-0.051881,-0.039551,0.962539
1350,-52.491035,-7.751583,3.662165,0.008301,-0.064820,1.077653
1351,-49.195087,-5.249104,-0.366217,-0.036378,-0.065064,1.025040
1352,-49.439231,-8.239872,-6.225681,-0.054200,-0.045045,0.962417
1353,-51.636530,-7.263294,-9.399557,0.061280,-0.160159,0.976211
1354,-51.392386,-8.056764,-19.104295,-0.031495,-0.167361,0.947524
1355,-63.721675,-4.760815,-28.564889,-0.033936,-0.010254,1.009903
1356,-86.671244,6.775006,-47.241932,0.095705,-0.276738,1.053727
1357,-55.237659,-0.610361,-24.597543,0.167361,-0.447883,1.115740
1358,-21.057450,-4.577707,0.793469,0.001343,-0.158206,1.034684
1359,-33.569848,-3.356985,-5.981537,0.034791,-0.004028,0.981949
1360,-59.815366,0.122072,-10.559243,0.017700,0.127321,0.925917
1361,-87.953002,-1.037613,-9.643702,0.068727,0.025269,0.909194
1362,-92.957961,-5.737392,6.042573,-0.062867,0.316777,0.735851
1363,-138.979171,-7.873655,-11.718929,0.018921,0.453986,0.675425
1364,-189.822232,-24.963760,-40.955215,-0.016480,0.692515,1.373556
1365,-410.833906,-9.216449,-17.944610,0.361089,0.880507,1.090959
1366,-633.859770,-10.376135,15.991455,-0.128786,0.293584,1.905547
1367,-699.961852,-38.879988,32.959487,0.134646,-0.081422,1.212177
1368,-768.993668,-41.138323,32.654307,-0.005493,-0.111574,0.740124
1369,-830.212863,-72.449836,36.560616,0.028687,-0.824231,1.011246
1370,-1043.106737,-127.809567,146.364538,-0.654307,-1.736721,1.999969
1371,-440.985733,-99.488823,38.269627,-1.117571,-1.531762,1.999969
1372,163.881895,-106.813153,-41.748684,-0.374884,0.775647,1.999969
1373,227.542535,-72.388800,-36.316472,-0.393194,1.274922,1.999969
1374,52.857252,-41.199359,-31.799802,-0.287602,0.693370,1.999969
1375,-10.559243,-44.373236,19.409476,-0.282963,0.507698,1.545678
1376,80.750744,-7.568475,4.089418,-0.210697,0.296880,1.106340
1377,167.238880,16.540780,-7.629511,-0.232059,0.411017,0.545541
1378,130.434119,9.582666,-1.953155,-0.177249,0.390997,0.340826
1379,100.770581,-2.014191,4.760815,-0.185672,0.211063,0.543587
1380,134.218357,-6.958114,4.455634,-0.137819,0.207401,0.654795
1381,154.848554,-12.878614,3.723201,-0.095216,0.286870,0.745006
1382,153.200580,-20.080873,3.418021,-0.059083,0.272831,0.936416
1383,175.722896,-19.287404,-1.098650,0.008301,0.241703,1.117449
1384,200.503548,-15.930419,-7.141222,-0.006958,0.331426,1.272358
1385,213.931487,-13.000687,-15.136950,0.026001,0.228641,1.250263
1386,234.744793,-3.051804,-23.743038,0.020264,0.176761,1.358297
1387,251.346609,9.033341,-30.457008,-0.002808,0.069215,1.425315
1388,270.511940,23.804074,-34.363317,-0.043336,-0.044923,1.430442
1389,288.944839,33.752956,-35.523003,0.075441,-0.121706,1.398825
1390,294.438087,39.673457,-42.969406,0.285405,-0.253666,1.479515
1391,306.462196,60.791943,-56.824598,0.338018,-0.397955,1.442893
1392,314.824140,73.548486,-69.092851,0.314458,-0.515267,1.315450
1393,310.734722,75.806821,-75.806821,0.285771,-0.609384,1.239887
1394,301.823453,70.984970,-79.041733,0.296635,-0.655039,1.239155
1395,293.217365,64.881361,-82.948043,0.390265,-0.689464,1.331685
1396,283.085374,63.416495,-89.051652,0.394293,-0.719615,1.403708
1397,274.601358,60.120546,-97.535668,0.374884,-0.771984,1.433616
1398,266.300450,57.190814,-104.432746,0.245487,-0.846571,1.427878
1399,255.436027,57.373922,-105.592432,0.050050,-0.880140,1.426291
1400,244.266423,58.106355,-99.671931,-0.131960,-0.873915,1.455711
1401,232.913710,57.251850,-88.441291,-0.248295,-0.843275,1.429465
1402,224.612802,56.031128,-75.379568,-0.309941,-0.777844,1.428977
1403,213.199054,56.763561,-63.050278,-0.292851,-0.703990,1.479271
1404,201.480125,64.271000,-53.284504,-0.255253,-0.656626,1.581933
1405,193.911650,78.919661,-45.410849,-0.217166,-0.633310,1.637232
1406,187.075608,94.728008,-37.415122,-0.220829,-0.630259,1.645899
1407,179.507134,104.066529,-26.367590,-0.233524,-0.661631,1.667140
1408,174.013886,103.456168,-12.390326,-0.233402,-0.704234,1.746731
1409,171.999695,96.131838,2.807660,-0.255985,-0.758679,1.886503
1410,171.938659,85.816739,17.395285,-0.101442,-0.865126,1.999969
1411,194.583047,115.785458,25.879301,0.540169,-0.834607,1.999969
1412,196.597238,144.411383,24.353399,0.426764,-1.129290,1.763210
1413,181.704433,152.651255,38.086519,0.474861,-1.606958,1.417014
1414,168.520638,136.354620,51.758602,0.524910,-2.000031,1.088029
1415,143.801022,108.033875,61.036088,0.760266,-2.000031,0.784314
1416,120.607309,92.408637,45.166705,1.028214,-2.000031,0.394171
1417,126.222629,107.240406,8.178836,0.657359,-2.000031,-0.607919
1418,6.591897,34.058137,5.798428,0.299321,-2.000031,-2.000031
1419,-237.918669,-141.786831,73.426413,0.412848,-2.000031,-2.000031
1420,-233.585107,-249.149310,75.684749,1.250141,-0.511482,0.411872
1421,-190.737774,-173.037308,36.011292,0.537728,1.460472,1.999969
1422,-293.156329,-113.099870,52.491035,-0.205081,1.184955,1.999969
1423,-369.634546,-151.003281,69.825284,0.070192,-0.552743,1.317281
1424,-238.467994,-116.151675,62.623026,0.299687,-0.727306,0.544198
1425,-238.590066,-90.211337,56.458381,0.853529,-0.030274,1.588037
1426,-327.946899,-70.191501,60.669871,1.085222,-0.374762,1.999969
1427,-214.541848,-64.759289,48.401617,0.163210,-0.180667,1.999969
1428,-200.625620,-58.594644,22.522316,0.085573,-0.537240,1.999969
1429,-32.532235,-72.938125,1.098650,0.391974,-0.348882,1.999969
1430,-1.098650,-35.828183,-17.883574,0.721569,0.235966,1.461448
1431,-85.328450,-15.625238,16.418708,-0.054444,0.015259,1.108537
1432,-48.889906,-19.836728,0.915541,-0.168338,-0.271733,1.399069
1433,-6.897078,-25.757229,-2.380407,0.235843,0.043946,1.186908
1434,-20.935378,-17.944610,1.037613,0.054566,-0.026734,1.060197
1435,-15.014878,-19.226368,1.037613,-0.059693,-0.064454,1.152972
1436,4.638743,-19.531548,-0.549325,0.144045,0.092042,0.978531
1437,-11.169604,-13.916228,0.244144,0.009033,0.096681,0.891371
1438,-18.616007,-14.404517,2.197299,0.018067,0.045045,0.986221
1439,-19.104295,-12.512398,2.563516,0.061280,0.038941,0.992203
1440,-23.437858,-9.033341,4.028382,0.046998,0.023926,1.031266
1441,-21.484703,-6.897078,3.906310,0.014038,0.025879,1.017716
1442,-21.179522,-7.629511,3.906310,0.060060,-0.027832,1.034195
1443,-17.517357,-5.676356,3.723201,0.037354,-0.031983,1.053117
1444,-10.864424,-4.394598,3.234913,0.033448,0.059571,1.021988
1445,-13.550011,-3.418021,4.150454,0.110964,0.032105,0.993423
1446,-7.202258,0.305180,2.685588,0.014160,-0.004761,1.008072
1447,-9.826810,-2.014191,2.014191,-0.031495,0.040406,0.942519
1448,-10.986496,-4.272526,2.014191,0.028077,0.031495,0.954849
1449,-15.320058,-4.699779,1.831083,0.011109,0.019898,0.988174
1450,-13.611048,-4.821851,1.159686,0.027955,0.015503,0.998795
1451,-16.052491,-4.577707,0.854505,0.035767,-0.004639,0.994034
1452,-14.770733,-3.723201,0.427253,0.043091,-0.010132,1.023819
1453,-12.939651,-2.807660,0.183108,0.039673,-0.012818,1.032853
1454,-10.742351,-2.075227,-0.183108,0.034668,-0.002686,0.974746
1455,-13.672084,-1.770047,-0.244144,0.033448,0.009522,0.986831
1456,-15.625238,-1.647974,-0.244144,0.026734,-0.021118,1.019059
1457,-12.817578,-0.976577,0.061036,0.037232,-0.011109,0.991958
1458,-14.343481,-0.427253,0.183108,0.038209,0.003784,0.978653
1459,-18.738079,-0.671397,0.549325,0.021485,-0.012940,0.987198
1460,-17.761501,-1.098650,0.183108,0.028443,-0.008423,0.975113
1461,-20.935378,-1.037613,-0.305180,0.037354,-0.008057,0.992325
1462,-24.353399,-0.488289,-0.427253,0.044923,-0.026001,1.010025
1463,-22.827497,0.915541,0.000000,0.049195,-0.031861,1.017960
1464,-22.339208,1.342794,0.244144,0.046021,-0.038209,1.001358
1465,-21.240558,1.709010,0.244144,0.035767,-0.049683,1.036881
1466,-16.784924,3.418021,0.488289,0.061402,-0.070069,1.057511
1467,-14.343481,6.042573,1.586938,0.057008,-0.076783,1.031510
1468,-9.826810,7.873655,2.807660,0.040162,-0.064088,0.971450
1469,-8.911269,6.652934,2.990768,-0.015259,0.000732,0.947158
1470,-17.944610,2.990768,1.770047,0.010864,-0.041871,0.986465
1471,-16.113527,1.586938,1.098650,0.007080,-0.070924,0.990494
1472,-13.977264,-0.061036,1.037613,0.032227,-0.063844,1.000870
1473,-15.197986,-0.244144,0.793469,0.017212,-0.072023,1.005264
1474,-11.352712,-0.671397,0.427253,0.036622,-0.062013,1.008316
1475,-11.413748,0.183108,0.183108,0.031861,-0.058717,0.993668
1476,-16.723888,1.037613,0.244144,0.015747,-0.064088,1.006363
1477,-15.991455,0.915541,0.488289,-0.020752,-0.061891,1.017594
1478,-15.503166,0.183108,0.000000,0.023926,-0.023926,0.992813
1479,-24.048219,0.488289,0.244144,0.028199,-0.056641,0.952529
1480,-22.766461,0.854505,0.671397,0.023804,-0.054810,0.977310
1481,-26.367590,0.610361,1.342794,0.034424,-0.077028,0.999771
1482,-24.170291,1.403830,2.807660,0.021851,-0.043091,0.970962
1483,-27.649348,3.845274,6.042573,0.066163,-0.051392,1.013443
1484,-40.344854,5.188067,6.591897,0.008911,-0.101442,0.985367
1485,-32.410163,5.737392,6.469825,0.044068,-0.052857,1.031998
1486,-35.584039,6.103609,5.249104,0.004639,-0.058473,1.023087
1487,-43.884947,5.737392,4.577707,0.030152,-0.071412,0.986954
1488,-43.945983,5.981537,2.136263,-0.028565,-0.101564,1.021866
1489,-40.894179,4.516670,-1.525902,-0.032105,-0.082643,0.976577
1490,-39.673457,1.647974,-7.263294,-0.046021,-0.108400,0.988174
1491,-37.170977,0.061036,-11.779965,-0.002441,-0.141848,1.015152
1492,-34.973678,0.610361,-14.160372,-0.080079,-0.185428,1.171038
1493,-54.749371,11.474784,-37.720302,-0.025147,-0.196170,1.112078
1494,-35.034714,5.859464,-32.471199,0.122072,-0.388800,1.071672
1495,-3.723201,-2.685588,-6.958114,0.085817,-0.130373,1.056413
1496,-8.911269,0.793469,-7.202258,-0.019287,0.158816,0.979873
1497,-70.069429,9.460594,-25.818265,0.095583,0.220584,0.948379
1498,-114.747845,20.325017,-28.931106,0.059571,0.326543,0.710704
1499,-139.040208,0.366217,-29.663539,-0.125734,0.194339,0.775647
1500,-166.628519,-17.334249,-37.720302,0.018189,0.834119,0.969375
1501,-327.946899,-13.427939,-86.610208,-0.044923,0.686656,1.801297
1502,-510.811017,-23.010605,-60.914015,-0.557504,0.110231,1.153704
1503,-617.380026,-110.109102,-14.770733,-0.416510,-0.160891,0.907607
1504,-701.731899,-206.912337,29.175250,-0.226444,-0.353643,0.832410
1505,-754.039826,-236.697948,71.717403,0.145022,-0.296391,0.708141
1506,-836.560617,-269.108110,96.498054,0.927749,-2.000031,1.999969
1507,-813.550011,-217.776761,212.039368,0.142092,-0.907118,1.999969
1508,-109.376669,-181.460288,-21.850919,0.403693,-0.803235,1.999969
1509,271.610590,-84.657053,-49.805447,0.135378,1.110979,1.999969
1510,168.093385,22.583352,-88.685435,-0.029419,1.175067,1.999969
1511,51.209277,26.794842,-25.513085,-0.667491,0.767590,1.693263
1512,60.914015,24.597543,-3.234913,-0.521004,0.196414,1.215473
1513,178.103304,45.410849,-5.493248,-0.590707,-0.033692,0.607309
1514,202.944991,38.269627,11.963073,-0.431037,0.127565,0.150393
1515,152.101930,23.743038,32.227054,-0.324346,0.120485,0.187869
1516,144.655528,17.700465,43.030442,-0.222049,0.067140,0.420050
1517,173.586633,21.667811,41.931792,-0.081422,0.167971,0.568002
1518,181.216144,24.536507,38.452735,0.067628,0.296391,0.708263
1519,183.352407,29.419394,30.945296,0.181155,0.281010,0.881117
1520,200.015259,36.804761,19.836728,0.234379,0.261112,1.083391
1521,217.715724,37.354086,6.836042,0.443000,0.180423,1.182269
1522,233.401999,44.373236,-14.343481,0.503059,0.019165,1.308980
1523,256.900893,55.176623,-36.743725,0.481209,-0.155520,1.221942
1524,268.863966,57.984283,-54.505226,0.416632,-0.328740,1.169818
1525,272.343023,58.167391,-66.407263,0.288579,-0.528328,1.137224
1526,274.113069,55.359731,-71.168078,0.135256,-0.667857,1.139666
1527,274.967575,49.256123,-69.581140,0.035523,-0.750744,1.210712
1528,271.244373,47.486076,-64.026856,-0.009400,-0.830945,1.241962
1529,271.793698,49.439231,-56.824598,-0.069703,-0.897108,1.195697
1530,264.042115,49.256123,-47.608148,-0.125978,-0.951675,1.141985
1531,252.750439,49.988556,-37.476158,-0.103761,-0.971450,1.051286
1532,236.270695,49.073014,-28.381781,-0.090700,-0.981216,0.983780
1533,217.532616,57.679103,-19.897765,-0.061280,-0.919081,0.830213
1534,194.583047,60.852979,-12.756542,-0.060060,-0.798108,0.933486
1535,165.835050,56.336309,-4.333562,-0.057496,-0.732799,1.280903
1536,156.374456,45.410849,2.441444,-0.114015,-0.680797,1.767239
1537,169.253071,39.185168,6.591897,-0.104372,-0.693736,1.999969
1538,189.394980,46.387427,9.826810,-0.123171,-0.719005,1.999969
1539,206.240940,65.369650,15.075914,-0.170047,-0.771984,1.999969
1540,213.565270,77.882048,23.559930,-0.187747,-0.802380,1.809964
1541,215.213245,78.980697,34.302281,-0.139651,-0.822278,1.628687
1542,211.429007,74.158846,42.847333,0.035035,-0.916640,1.347433
1543,206.973373,83.009079,43.152514,0.441779,-0.902480,0.926650
1544,172.426947,93.018997,32.837415,0.628672,-0.922377,0.849744
1545,133.913176,98.634318,21.545739,0.665660,-1.059709,0.803479
1546,115.846494,101.747158,5.615320,0.589609,-1.183978,0.835950
1547,91.004807,93.263142,-2.624552,0.514778,-1.335958,0.864515
1548,72.816052,80.567636,-4.821851,0.454475,-1.524437,0.869398
1549,61.280232,68.482490,-13.550011,0.526375,-1.664942,0.911879
1550,53.467613,67.383841,-26.001373,0.556527,-1.715358,0.792859
1551,26.489662,56.519417,-36.072328,0.241825,-2.000031,-0.805188
1552,-43.152514,-15.503166,-15.625238,0.172976,-1.958404,-0.338750
1553,-86.488136,-79.346914,7.568475,0.214969,-1.991852,-0.236576
1554,-110.170138,-141.725795,15.503166,0.472541,-1.806546,-0.122194
1555,-99.366751,-149.416342,2.563516,0.474861,0.204471,0.901747
1556,-48.401617,-45.654994,-27.527276,-0.179446,0.667979,1.440452
1557,-154.360266,-50.965133,21.423667,-0.455451,0.993057,1.040543
1558,-230.472267,-99.000534,33.875029,0.006836,-0.059449,0.973770
1559,-212.954910,-89.845121,22.095064,0.154788,-0.441779,1.368185
1560,-161.989776,-65.735866,27.893492,-0.291875,-0.442512,1.999969
1561,-183.962768,-123.903258,43.152514,0.444343,-0.340215,1.999969
1562,-6.225681,-46.509499,-2.014191,0.807996,-0.350225,1.823880
1563,63.416495,3.418021,-15.014878,0.245243,0.365240,1.034562
1564,-86.488136,-8.484016,15.503166,-0.337041,0.053956,0.854627
1565,-57.679103,-18.310826,16.662852,0.017700,-0.037598,1.256123
1566,-14.648661,-11.230640,5.249104,0.127199,0.061646,1.043717
1567,-43.213550,-9.277485,8.484016,0.004883,0.110353,1.082414
1568,-39.612421,-10.131991,5.432212,-0.066041,-0.005127,1.029435
1569,-26.123445,-12.085145,1.770047,0.000732,0.045045,1.084001
1570,-29.297322,-11.963073,1.892119,0.042969,0.042359,1.010025
1571,-31.555657,-10.498207,2.197299,-0.020996,0.035645,1.019181
1572,-29.297322,-10.254063,1.525902,0.029908,0.048096,1.057267
1573,-31.860838,-6.958114,1.892119,0.040528,-0.003418,0.991226
1574,-31.677729,-5.432212,2.868696,0.026123,-0.007324,1.015152
1575,-28.870069,-5.676356,4.394598,0.007813,0.033082,0.929213
1576,-35.461967,-8.911269,4.150454,-0.027588,0.001587,0.986099
1577,-32.715343,-11.657893,2.502480,-0.020630,-0.004517,1.044816
1578,-27.771420,-12.939651,0.854505,0.019287,-0.003296,0.989517
1579,-32.959487,-13.733120,-0.183108,-0.005127,-0.027588,1.064591
1580,-28.931106,-12.329290,-0.549325,0.025513,-0.054444,1.072038
1581,-22.339208,-10.254063,-0.366217,0.028931,-0.034791,1.060075
1582,-22.705425,-7.751583,-0.183108,0.028565,-0.044312,1.013443
1583,-20.447089,-6.530861,0.122072,0.028199,-0.050416,1.038712
1584,-18.860151,-4.943923,0.671397,0.026001,-0.052857,1.033219
1585,-15.564202,-4.089418,0.976577,0.013062,-0.045411,1.022965
1586,-13.855192,-4.211490,0.366217,0.001099,-0.040772,1.016129
1587,-12.512398,-4.455634,-0.183108,0.022583,-0.057862,1.030167
1588,-10.131991,-3.723201,-0.183108,0.025147,-0.056031,1.025162
1589,-8.361944,-3.112840,-0.305180,0.022461,-0.046021,1.014664
1590,-8.972305,-3.051804,-0.366217,0.017212,-0.051637,0.993057
1591,-9.094377,-2.990768,-0.305180,0.027832,-0.051881,1.016739
1592,-6.652934,-2.197299,-0.122072,0.025269,-0.051392,1.002945
1593,-6.958114,-1.892119,0.122072,0.031861,-0.047242,1.001846
1594,-7.202258,-1.770047,0.000000,0.016846,-0.052003,1.005020
1595,-6.164645,-1.953155,-0.183108,0.022217,-0.057252,1.011734
1596,-5.737392,-2.014191,-0.244144,0.023682,-0.060304,0.995987
1597,-4.516670,-1.892119,-0.549325,0.019654,-0.065309,1.015152
1598,-3.112840,-1.586938,-0.549325,0.025269,-0.065431,1.011856
1599,-1.159686,-1.464866,-0.915541,0.019043,-0.052857,0.990127
1600,-2.319371,-1.586938,-1.159686,0.015503,-0.048341,0.985855
1601,-3.845274,-1.953155,-1.098650,0.015869,-0.052491,0.993668
1602,-3.601129,-1.892119,-0.976577,0.037232,-0.064332,1.006241
1603,-2.685588,-1.159686,-0.671397,0.027955,-0.062623,0.999405
1604,-3.356985,-0.488289,-0.183108,0.029908,-0.062501,1.005631
1605,-3.540093,-0.427253,0.000000,0.030518,-0.062989,1.005997
1606,-1.770047,-0.183108,0.061036,0.036500,-0.061646,1.004532
1607,-2.502480,0.427253,0.244144,0.029664,-0.064088,1.010391
1608,-0.488289,1.159686,0.366217,0.029419,-0.062257,1.008682
1609,-0.061036,1.586938,0.427253,0.034058,-0.062379,1.014298
1610,-0.915541,2.075227,0.366217,0.028565,-0.071901,1.030900
1611,1.159686,2.685588,0.549325,0.027710,-0.061891,0.994766
1612,1.586938,2.502480,0.732433,0.014038,-0.031250,0.978653
1613,-2.746624,1.647974,0.915541,0.007568,-0.040894,0.970596
1614,-3.906310,1.037613,1.159686,0.015747,-0.049683,0.978775
1615,-4.394598,0.671397,1.403830,0.018189,-0.054078,1.003311
1616,-4.516670,0.366217,1.220722,0.025513,-0.061524,1.013565
1617,-3.723201,0.244144,0.366217,0.021241,-0.059815,0.998428
1618,-3.845274,0.366217,-0.183108,0.030152,-0.069581,1.001114
1619,-1.159686,0.671397,-0.366217,0.019287,-0.074586,1.015885
1620,0.244144,1.342794,-0.610361,0.028809,-0.069581,1.004044
1621,0.366217,1.770047,-0.793469,0.032837,-0.068727,1.022354
1622,0.061036,2.929732,-0.244144,0.034180,-0.077394,1.021866
1623,2.929732,4.394598,0.732433,0.026978,-0.081666,1.005753
1624,4.455634,4.699779,1.647974,0.019654,-0.067262,0.954726
1625,3.112840,3.540093,1.403830,-0.001831,-0.025635,0.952285
1626,-2.136263,2.014191,1.159686,0.001465,-0.033692,0.980484
1627,-3.173877,1.281758,0.915541,0.015137,-0.059937,0.994888
1628,-2.014191,1.098650,0.793469,0.004639,-0.063478,0.993179
1629,-1.586938,0.610361,0.488289,0.013550,-0.061769,1.005142
1630,-1.709010,-0.061036,-0.244144,0.002686,-0.058839,1.005997
1631,-1.281758,-0.915541,-0.915541,0.006470,-0.066896,0.998184
1632,-0.793469,-1.464866,-1.220722,0.010986,-0.064210,1.006119
1633,0.366217,-1.892119,-1.464866,0.004273,-0.053834,0.992569
1634,-0.549325,-2.319371,-1.647974,0.017090,-0.054810,0.986954
1635,-1.464866,-2.319371,-1.709010,0.019287,-0.058228,0.987076
1636,-1.098650,-2.197299,-1.464866,0.021363,-0.054688,0.991104
1637,-2.746624,-1.770047,-0.976577,0.026001,-0.051759,1.000870
1638,-3.784237,-1.342794,-0.671397,0.023926,-0.067872,1.007828
1639,-2.075227,-0.793469,-0.366217,0.033448,-0.054078,0.996109
1640,-5.065995,-0.610361,-0.305180,0.016724,-0.062257,1.003799
1641,-3.112840,-0.488289,-0.305180,0.020874,-0.071901,1.015640
1642,-1.709010,-0.427253,-0.427253,0.022095,-0.065309,1.007706
1643,-2.563516,-0.366217,-0.488289,0.016480,-0.070924,1.019669
1644,0.610361,-0.610361,-0.610361,0.018067,-0.071656,1.014054
1645,0.366217,-0.366217,-0.854505,0.020020,-0.075074,1.011978
1646,1.464866,-0.488289,-0.732433,0.024903,-0.078859,1.008072
1647,3.540093,-0.366217,-0.671397,0.020142,-0.070314,1.015640
1648,4.516670,-0.122072,-0.671397,0.017334,-0.068360,1.007584
1649,4.577707,0.000000,-0.610361,0.030762,-0.062989,1.006607
1650,4.028382,0.793469,-0.366217,0.028687,-0.078248,1.023087
1651,6.286717,1.770047,0.000000,0.029175,-0.070924,1.025284
1652,6.836042,2.807660,0.244144,0.028687,-0.061402,1.014542
1653,7.690547,3.601129,0.366217,0.018433,-0.071534,1.016007
1654,9.826810,3.906310,0.488289,0.022339,-0.069215,1.014542
1655,10.498207,4.028382,0.305180,0.013672,-0.066773,1.005631
1656,11.963073,3.906310,0.244144,0.016480,-0.062013,1.009781
1657,13.550011,3.723201,-0.244144,0.022705,-0.050416,1.013077
1658,14.160372,3.723201,-0.915541,0.029908,-0.046387,1.011856
1659,14.099336,4.150454,-1.159686,0.022461,-0.060182,1.015763
1660,16.662852,5.127031,-0.976577,-0.004639,-0.029297,0.942031
1661,15.075914,3.784237,-0.671397,-0.035279,0.049195,0.909926
1662,-2.075227,0.671397,-0.366217,-0.003296,-0.006226,0.952163
1663,-1.403830,-0.061036,-0.610361,0.012085,-0.052369,1.005264
1664,2.990768,1.098650,-0.427253,0.031495,-0.037842,1.002701
1665,1.098650,1.586938,-0.366217,-0.004639,-0.034302,1.008072
1666,2.075227,0.854505,-0.366217,0.005249,-0.046387,1.002090
1667,3.234913,0.488289,-0.732433,0.000488,-0.039063,0.992203
1668,2.502480,-0.244144,-1.037613,0.001587,-0.047852,0.990494
1669,3.723201,-0.915541,-1.220722,0.008789,-0.030640,0.977676
1670,2.075227,-1.342794,-1.586938,0.003906,-0.031250,0.993790
1671,0.183108,-1.586938,-0.976577,0.016236,-0.049317,1.002701
1672,2.258335,-0.488289,-0.366217,0.018067,-0.035889,1.001236
1673,0.671397,0.061036,0.244144,0.007568,-0.025391,1.000748
1674,-1.037613,0.671397,0.976577,0.033936,-0.034791,1.017594
1675,-0.610361,2.014191,1.098650,0.014038,-0.073976,1.025040
1676,4.455634,1.892119,1.342794,0.000732,-0.098756,1.070939
1677,14.282444,1.403830,1.037613,0.041138,-0.050050,1.042863
1678,15.869383,1.709010,0.549325,-0.034668,-0.028321,0.983047
1679,15.564202,-0.610361,-0.732433,-0.000610,0.016358,0.959365
1680,9.460594,-1.281758,-1.403830,0.016724,-0.000366,0.965713
1681,4.516670,-1.403830,-1.525902,0.014282,-0.054688,1.032120
1682,13.244831,-0.427253,-1.464866,0.001587,-0.027100,0.982681
1683,11.963073,0.000000,-1.159686,0.009522,0.062745,0.905898
1684,-1.403830,-0.305180,-1.220722,-0.019532,0.084840,0.848646
1685,-12.756542,-3.234913,-2.075227,0.006104,0.034058,0.955215
1686,-22.644388,-3.295949,-1.281758,0.041260,-0.091188,1.100114
1687,-3.784237,-0.061036,-0.183108,0.046143,-0.061769,1.058854
1688,-3.540093,2.929732,0.976577,0.036500,0.005127,1.000381
1689,-10.254063,4.089418,2.258335,0.011475,-0.033570,1.012467
1690,-4.577707,4.150454,2.014191,-0.015625,-0.010010,0.961318
1691,-11.047532,0.488289,0.488289,-0.023072,-0.031495,0.994766
1692,-5.371176,-2.319371,-1.953155,0.008789,-0.080934,1.072892
1693,2.929732,-2.868696,-2.807660,0.017212,-0.072511,1.047745
1694,8.239872,-1.770047,-2.136263,0.003906,0.007568,0.938857
1695,-4.150454,-2.319371,-0.793469,0.015747,0.037720,0.904189
1696,-10.315099,-2.014191,-0.427253,0.002441,0.060548,0.922988
1697,-26.428626,-2.502480,0.366217,0.017700,-0.035767,1.011002
1698,-19.104295,-0.671397,0.793469,0.027466,-0.066896,1.051530
1699,-15.808347,0.610361,0.732433,0.003418,-0.075319,1.046525
1700,-7.446403,0.488289,0.793469,-0.034791,-0.013306,0.948013
1701,-19.714656,-3.234913,-1.220722,-0.048829,-0.056519,1.086687
1702,-11.413748,-6.225681,-3.418021,0.016480,-0.209598,1.140764
1703,11.657893,-5.493248,-4.394598,0.041627,-0.063478,1.040299
1704,-0.610361,-4.638743,-3.173877,0.045899,-0.122805,1.090349
1705,18.066682,-2.746624,-2.014191,0.004273,-0.050782,1.002213
1706,18.371862,-2.197299,-1.647974,0.041749,0.060182,0.898817
1707,-6.713970,-2.258335,-1.342794,-0.010010,-0.020752,0.964126
1708,3.051804,-2.075227,-1.647974,0.019898,0.002197,0.950210
1709,-10.742351,-2.990768,-2.014191,0.010742,-0.048219,0.993790
1710,-6.775006,-3.601129,-2.258335,0.000122,-0.115846,1.072404
1711,8.239872,-4.089418,-2.624552,0.010620,-0.054932,0.996597
1712,4.516670,-4.028382,-2.075227,0.038697,-0.012573,0.980117
1713,0.122072,-2.807660,-1.342794,-0.002930,-0.010986,0.959731
1714,-5.798428,-5.065995,-1.525902,-0.002930,-0.031006,0.986343
1715,-2.685588,-5.981537,-2.807660,0.009155,-0.023682,0.986221
1716,-8.484016,-6.897078,-3.662165,0.028077,-0.058717,1.031998
1717,-2.502480,-6.103609,-3.418021,0.042969,-0.081178,1.053361
1718,3.418021,-4.089418,-2.685588,0.029786,-0.045533,0.985489
1719,-1.770047,-3.662165,-1.770047,0.029419,-0.059205,1.012589
1720,3.967346,-3.356985,-2.075227,0.022705,-0.028443,0.992935
1721,2.868696,-2.258335,-1.709010,0.042969,0.031373,0.943008
1722,-10.620279,-1.464866,-1.709010,0.006836,-0.032593,0.974624
1723,-5.737392,-1.403830,-2.014191,0.041627,-0.039918,1.009537
1724,-8.361944,0.000000,-1.220722,0.049683,-0.022950,0.990616
1725,-11.718929,0.427253,-0.427253,0.009033,-0.029297,0.996475
1726,-11.169604,-0.854505,-1.098650,0.017700,-0.049317,0.995254
1727,-12.085145,-0.854505,-1.647974,0.025513,-0.060670,1.007340
1728,-10.986496,-0.854505,-1.342794,0.043336,-0.074342,1.031876
1729,-6.836042,-0.061036,-1.220722,0.018433,-0.060792,1.011978
1730,-6.652934,-0.549325,-1.403830,0.017823,-0.074708,1.010758
1731,-4.760815,-0.915541,-1.403830,0.022705,-0.081422,1.019547
1732,0.427253,-0.549325,-1.098650,0.030518,-0.047608,0.998306
1733,-4.028382,-0.427253,-0.732433,0.022217,-0.055787,0.992447
1734,-2.807660,-0.854505,-0.793469,0.019409,-0.066285,1.004532
1735,-2.075227,-1.220722,-1.037613,0.024537,-0.055665,1.014664
1736,-1.953155,-0.915541,-1.403830,0.034180,-0.064210,1.024552
1737,-1.220722,-0.427253,-1.037613,0.036866,-0.086549,1.029068
1738,2.990768,0.549325,-0.427253,0.031128,-0.070802,1.010758
1739,3.234913,0.732433,0.183108,0.019043,-0.053346,0.998184
1740,2.746624,0.183108,0.122072,0.022583,-0.062989,1.010513
1741,5.004959,-0.488289,-0.305180,0.023072,-0.055543,1.004166
1742,5.371176,-0.732433,-0.549325,0.028321,-0.041505,0.982071
1743,3.723201,-1.281758,-1.098650,0.025513,-0.052613,0.998917
1744,5.065995,-1.464866,-1.281758,0.026734,-0.053834,1.003311
1745,5.615320,-0.915541,-1.159686,0.035035,-0.044190,0.991470
1746,2.868696,-0.610361,-1.098650,0.026734,-0.047852,0.995743
1747,3.051804,-0.427253,-1.098650,0.031861,-0.056031,1.003433
1748,3.662165,-0.244144,-0.915541,0.033326,-0.061646,1.017227
1749,5.371176,0.305180,-0.671397,0.027466,-0.054444,1.005509
1750,6.286717,0.488289,-0.244144,0.029175,-0.055299,0.999405
1751,6.591897,0.549325,-0.366217,0.025879,-0.045411,0.992081
1752,6.103609,0.427253,-0.305180,0.028077,-0.041016,0.985489
1753,6.042573,0.671397,-0.549325,0.025269,-0.022217,0.968154
1754,5.249104,0.488289,-1.037613,0.019532,-0.028321,0.976699
1755,-1.037613,0.122072,-0.671397,0.023072,-0.001831,0.962173
1756,-5.065995,0.305180,0.000000,0.040894,-0.030274,0.997086
1757,-2.746624,1.159686,-0.244144,0.026490,-0.030518,0.980117
1758,-3.112840,0.671397,0.000000,0.045045,-0.076539,0.967422
1759,-7.690547,0.610361,-0.122072,0.018067,-0.064454,1.011246
1760,-1.709010,1.403830,-0.305180,0.023926,-0.044923,0.996719
1761,-4.638743,1.159686,-0.732433,0.026612,-0.045289,0.992813
1762,-3.662165,1.281758,-1.342794,0.013062,-0.052979,1.011612
1763,-0.427253,0.671397,-1.342794,0.013550,-0.066163,1.011246
1764,-1.709010,-0.061036,-0.427253,0.022705,-0.055055,1.010758
1765,1.037613,0.000000,-0.122072,0.015503,-0.051148,0.982681
1766,1.831083,0.854505,0.061036,-0.010010,-0.031617,0.982681
1767,-1.037613,-0.305180,0.000000,0.023316,-0.051392,0.991104
1768,1.525902,0.671397,-0.366217,0.012451,-0.045411,0.991958
1769,-0.244144,-0.244144,-0.122072,0.038453,-0.045777,1.009537
1770,0.427253,0.183108,0.000000,0.026368,-0.053346,1.006119
1771,4.211490,0.000000,0.244144,0.008301,-0.069703,1.008682
1772,7.629511,0.488289,-0.671397,0.023682,-0.018555,0.994888
1773,1.831083,-0.671397,0.183108,0.027344,-0.074220,1.030411
1774,8.789197,-0.732433,0.854505,0.013184,-0.030884,0.986709
1775,2.746624,-1.892119,1.159686,0.025269,-0.042847,0.999039
1776,3.723201,-1.403830,0.915541,0.023682,-0.042725,1.005020
1777,4.211490,-1.098650,0.244144,0.034668,-0.035401,0.998917
1778,2.807660,-1.098650,-0.183108,0.029175,-0.043336,1.004288
1779,1.647974,-0.610361,-0.244144,0.035157,-0.044190,1.002945
1780,0.488289,-0.244144,-0.122072,0.027588,-0.037842,1.001114
1781,-0.366217,0.061036,-0.427253,0.021729,-0.043091,1.004898
1782,2.990768,0.061036,-0.183108,0.018067,-0.040528,1.005753
1783,4.028382,-0.549325,-0.122072,0.014405,-0.037842,0.996719
1784,2.990768,-1.098650,0.000000,0.027344,-0.041260,0.999771
1785,2.807660,-1.281758,0.122072,0.020142,-0.041871,0.999649
1786,3.295949,-1.403830,0.122072,0.024903,-0.043580,1.000137
1787,5.310140,-1.464866,0.122072,0.018799,-0.043702,0.997086
1788,7.629511,-1.464866,0.915541,0.028565,-0.040528,1.000259
1789,9.765774,-1.159686,1.770047,0.029786,-0.024659,0.988418
1790,7.324331,-1.220722,2.502480,0.011719,-0.041016,0.989639
1791,9.765774,-1.647974,4.455634,0.022827,-0.039551,0.996231
1792,8.117800,-1.220722,4.943923,0.027222,-0.031739,1.011002
1793,7.507439,-1.525902,5.249104,0.034302,-0.024414,0.993912
1794,3.967346,-1.647974,5.798428,0.044678,-0.012573,0.982437
1795,-0.732433,-1.647974,3.356985,0.038941,-0.026123,0.983536
1796,-0.366217,-1.281758,2.502480,0.018311,-0.014282,0.994400
1797,-1.647974,-1.342794,1.037613,0.031983,-0.030640,1.001480
1798,0.732433,-0.854505,0.671397,0.028443,-0.020996,0.993057
1799,0.183108,-0.854505,0.549325,0.024781,-0.023682,0.997208
1800,1.586938,-1.342794,1.647974,0.020142,-0.040406,1.006607
1801,4.638743,-1.342794,3.540093,0.025513,-0.032349,1.013321
1802,8.422980,-1.586938,4.211490,0.008179,-0.055543,1.003311
1803,9.094377,-2.014191,5.798428,0.042969,-0.000855,1.001602
1804,6.225681,-0.976577,3.601129,0.039063,-0.016114,0.978042
1805,4.211490,-0.915541,2.014191,0.040772,-0.010254,0.999649
1806,1.464866,-0.122072,0.793469,0.037598,-0.009644,1.003799
1807,0.732433,0.183108,-0.122072,0.029541,-0.018189,0.997330
1808,-0.366217,0.122072,-0.671397,0.034180,-0.007080,0.983413
1809,-1.403830,-0.427253,-0.122072,0.017456,-0.031617,0.999893
1810,2.868696,-0.549325,0.061036,0.033326,-0.016846,0.996475
1811,4.516670,-0.549325,0.671397,0.026978,-0.028321,1.007340
1812,6.897078,-0.732433,1.403830,0.029786,-0.025757,1.003677
1813,6.775006,-0.793469,2.136263,0.032715,-0.024170,1.009049
1814,4.272526,-0.366217,2.075227,0.036255,0.004639,0.997696
1815,0.366217,0.061036,0.915541,0.039796,-0.000122,0.982803
1816,-1.281758,0.122072,0.000000,0.033814,-0.016358,0.999283
1817,-1.953155,0.305180,-0.610361,0.038575,-0.013916,0.986831
1818,-3.784237,0.976577,-1.586938,0.029541,-0.031617,1.004776
1819,0.671397,1.342794,-2.075227,0.032959,-0.030396,1.005631
1820,5.920500,1.464866,-2.929732,0.018189,-0.032837,1.008927
1821,10.376135,0.854505,-3.112840,0.030518,-0.014527,0.994644
1822,8.056764,0.854505,-3.051804,0.036988,-0.005005,1.006607
1823,7.934691,1.586938,-4.333562,0.036500,0.003784,0.986831
1824,2.685588,2.746624,-7.385367,0.042603,0.009155,0.983413
