Packet number,Gyroscope X (deg/s),Gyroscope Y (deg/s),Gyroscope Z (deg/s),Accelerometer X (g),Accelerometer Y (g),Accelerometer Z (g)
0,0.0,0.061036,0.0,0.006714,-0.012573,1.007706
2,0.122072,0.0,-0.122072,0.005493,-0.006958,1.000259
4,1.037613,0.0,-0.122072,0.01355,-0.001221,0.9994049999999999
6,1.2207219999999999,0.122072,-0.244144,0.00061,-0.0070799999999999995,0.995499
8,-0.122072,0.0,-0.366217,-0.007568000000000001,-0.012573,0.997208
10,0.244144,0.122072,-0.183108,0.0031739999999999997,-0.007201999999999999,0.996841
12,0.183108,0.244144,-0.183108,-0.000732,-0.010620000000000001,0.9945219999999999
14,0.061036,0.30518,0.0,-0.002441,-0.011231,0.997086
16,-0.30518,0.0,0.0,0.002564,-0.003662,1.008194
18,0.183108,-0.122072,0.0,0.009155,-0.008301000000000001,1.000748
20,0.6103609999999999,-0.244144,-0.244144,0.016114,-0.006714,1.008316
22,0.366217,-0.30518,-0.183108,0.009644,-0.010742,0.997574
24,-0.183108,-0.183108,-0.183108,0.0051270000000000005,-0.01648,1.004166
26,0.0,0.061036,-0.122072,0.0023190000000000003,-0.008301000000000001,1.004166
28,0.122072,-0.122072,0.0,0.01001,-0.007691,1.0095370000000001
30,0.854505,-0.244144,-0.122072,0.010742,-0.005982,1.009903
32,0.671397,0.0,-0.244144,0.00647,-0.012695999999999999,1.0057530000000001
34,0.671397,0.183108,-0.122072,-0.006714,-0.005982,0.9901270000000001
36,-0.9155409999999999,-0.30518,-0.183108,0.008911,-0.010498,0.9900049999999999
38,-0.6103609999999999,0.244144,0.0,0.007201999999999999,-0.008057,1.013687
40,0.122072,0.671397,0.0,0.003418,-0.007691,0.9990389999999999
42,0.549325,0.427253,-0.122072,-0.00061,-0.00415,1.0036770000000002
44,0.549325,0.122072,-0.122072,0.005371,-0.005982,1.004532
46,0.48828900000000003,0.183108,0.0,0.000488,-0.015015,1.009049
48,0.30518,0.244144,0.0,0.000977,-0.01355,1.0040440000000002
50,-0.122072,0.061036,0.0,-0.000488,-0.008667,1.006241
52,-0.30518,-0.061036,-0.122072,-0.001953,-0.009522,0.996841
54,-0.549325,-0.30518,-0.122072,-0.00415,-0.012695999999999999,0.9984280000000001
56,-0.244144,-0.244144,-0.183108,-0.004028,-0.011719,0.9973299999999999
58,-0.48828900000000003,-0.48828900000000003,0.0,0.0063479999999999995,-0.013428,1.005631
60,0.30518,-0.366217,-0.122072,0.001831,-0.0043950000000000005,0.9867090000000001
62,-0.427253,-0.732433,-0.244144,0.004639,0.0028079999999999997,0.992325
64,-0.976577,-0.427253,-0.183108,0.008179,-0.013184,1.012589
66,-0.061036,0.061036,0.0,-0.00415,-0.006592,0.9979399999999999
68,-0.427253,-0.183108,-0.183108,0.0037840000000000005,-0.012451,1.005875
70,-0.183108,-0.244144,0.0,0.0037840000000000005,-0.008423,1.0037989999999999
72,-0.366217,-0.671397,-0.122072,0.006592,-0.002686,1.007095
74,0.366217,-0.244144,-0.122072,0.001465,-0.013793999999999999,0.9980620000000001
76,0.366217,-0.244144,-0.122072,-0.002686,-0.0058590000000000005,0.992081
78,0.549325,0.0,0.061036,0.0008550000000000001,-0.014771000000000001,1.000748
80,0.366217,-0.30518,-0.183108,0.012329000000000001,-0.006836,1.004532
82,2.746624,0.976577,-0.549325,-0.019532,-0.031738999999999996,0.9351950000000001
84,1.8310830000000002,-0.30518,-0.48828900000000003,-0.007812999999999999,-0.014159999999999999,1.0207680000000001
86,3.90631,0.061036,-0.366217,0.015259,-0.032593000000000004,1.0276040000000002
88,6.469825,0.793469,0.061036,0.00293,-0.008667,1.00441
90,7.934691,0.854505,0.0,-0.002564,0.003906,0.9944
92,6.71397,0.244144,-0.30518,0.003052,0.00647,0.992691
94,6.042573,-0.366217,-0.671397,0.0028079999999999997,0.011719,0.9976959999999999
96,5.9205,0.0,-0.6103609999999999,0.0021969999999999997,0.010254000000000001,0.9831690000000001
98,3.295949,-0.549325,-0.6103609999999999,-0.0037840000000000005,0.001221,1.018692
100,2.136263,-0.793469,-0.366217,0.024048,0.000732,1.011368
102,5.371176,1.647974,-0.9155409999999999,-0.026123,-0.001099,1.0053860000000001
104,5.7984279999999995,0.549325,-0.793469,0.003662,0.014159999999999999,0.998184
106,4.272526,-0.122072,-0.549325,-0.001343,0.016358,0.982925
108,3.173877,-0.6103609999999999,-0.183108,0.006836,-0.0043950000000000005,0.964736
110,2.50248,-0.366217,0.244144,0.003296,0.023926,0.9953770000000001
112,1.525902,-0.122072,0.427253,0.004761,0.01355,1.008438
114,1.40383,0.244144,0.549325,0.001465,0.014893,1.005142
116,2.929732,-0.48828900000000003,0.793469,-0.0070799999999999995,0.034424,1.0048979999999998
118,3.295949,-1.70901,0.976577,0.003296,0.019653999999999998,1.000137
120,3.540093,-1.525902,0.9155409999999999,0.011231,0.006592,0.9914700000000001
122,2.746624,-0.671397,0.9155409999999999,0.020996,-0.010986,0.9580219999999999
124,5.981537,-0.6103609999999999,1.09865,-0.001221,0.047486,0.9299459999999999
126,-1.70901,-1.342794,0.793469,-0.024413999999999998,0.028687,0.945083
128,-5.737392,-1.70901,1.40383,0.026978,0.010620000000000001,1.061906
130,3.845274,-0.549325,1.159686,0.018799,0.033814,1.022599
132,6.469825,0.854505,0.48828900000000003,0.019409,0.036378,0.9873200000000001
134,0.671397,1.8310830000000002,0.427253,0.001465,0.060303999999999996,0.965957
136,-5.371176,1.586938,0.0,-0.019287000000000002,0.035401,0.9790190000000001
138,-4.638743,0.671397,0.0,-0.002075,0.021241,1.015274
140,-5.432212,0.244144,-0.48828900000000003,0.0094,0.024903,0.9976959999999999
142,-4.333562000000001,1.70901,-0.183108,0.009888,0.009644,1.002701
144,-7.2022580000000005,1.647974,0.183108,0.0058590000000000005,0.037964,0.9748680000000001
146,-7.873655,1.7700470000000001,0.366217,0.00647,0.006592,1.014908
148,-5.737392,1.525902,0.244144,-0.012085,0.005493,1.0048979999999998
150,-2.80766,-0.183108,-0.30518,-0.00293,0.005982,1.0048979999999998
152,-1.586938,-1.159686,-0.48828900000000003,0.000488,0.011719,1.0000149999999999
154,-0.732433,-1.8310830000000002,-0.183108,-0.004028,0.028321,0.977066
156,-5.0049589999999995,-3.6011290000000002,0.183108,0.0058590000000000005,0.023804,0.977432
158,-7.9957270000000005,-5.188067,0.0,0.0043950000000000005,-0.002075,1.0042879999999998
160,-7.507439,-6.652933999999999,-0.549325,-0.0051270000000000005,-0.006958,1.012467
162,-3.90631,-6.530861,-0.6103609999999999,0.004639,-0.0037840000000000005,1.009293
164,-1.8921189999999999,-8.1178,0.366217,-0.014527000000000002,0.026001,0.935683
166,-14.099336,-14.526589000000001,0.976577,0.018677000000000003,-0.0023190000000000003,1.001968
168,-11.169604,-12.085144999999999,1.342794,0.039796,-0.015503,1.0321200000000001
170,-7.812619000000001,-7.934691,1.2207219999999999,0.047608,-0.015503,1.002823
172,-12.573433999999999,-6.652933999999999,2.014191,0.032593000000000004,-0.019532,1.011124
174,-11.779964999999999,-6.347753,2.075227,-0.003906,0.022095,1.0283360000000001
176,-17.94461,-9.582666,1.7700470000000001,0.029053,0.022216999999999997,0.9314110000000001
178,-22.949569,-11.352712,1.342794,0.024903,-0.011109,0.957534
180,-26.428626,-9.216449,1.647974,0.053956,-0.050904000000000005,1.037125
182,-21.362631,-7.141222,3.540093,0.048585,-0.084108,0.9552149999999999
184,-23.987182,-6.897078,4.699779,0.03003,-0.050538,1.006485
186,-20.752270000000003,-4.5166699999999995,4.394598,0.047974,-0.066896,1.013931
188,-24.780652,-2.50248,4.943923000000001,0.072511,-0.071534,0.921035
190,-22.705425,0.854505,2.929732,0.09704700000000001,0.024413999999999998,0.992935
192,-37.476158,3.6621650000000003,1.8310830000000002,0.046632,-0.076295,0.976944
194,-42.236973,5.61532,-0.854505,0.03418,-0.049194999999999996,0.9709620000000001
196,-45.410849,3.356985,-2.990768,0.008423,-0.112551,1.073503
198,-45.471885,9.338521,-9.460594,-0.027344,-0.003418,1.04921
200,-65.918975,13.794156,-34.485389,0.087282,-0.320073,1.003922
202,-33.325703999999995,14.343481,-12.878614,0.11731099999999998,-0.134524,1.050797
204,-74.891279,20.874342000000002,1.647974,0.077516,-0.0636,0.9896389999999999
206,-86.488136,18.616007,11.841001,-0.017945,-0.252934,0.977554
208,-93.202106,10.681315,6.71397,0.069215,0.468025,0.936049
210,-285.831998,18.005646,15.869383,0.055542999999999995,-0.0031739999999999997,1.345357
212,-362.371252,36.316472,-7.324331,-0.042115,0.015259,1.295674
214,-501.28938700000003,62.623026,20.752270000000003,0.210208,-0.118532,1.158587
216,-553.35317,104.005493,65.186542,-1.139055,-0.73109,1.9999689999999999
218,83.009079,71.656367,-54.261081999999995,-0.693248,0.261845,1.9999689999999999
220,-67.689021,-0.854505,23.254749,-0.556405,0.471321,1.2722360000000001
222,52.124819,-26.184482,22.400244,-0.02002,0.411872,0.8490120000000001
224,21.118485999999997,-23.315785,15.197985999999998,0.307744,0.363043,0.9579
226,53.284504000000005,-6.775005999999999,-20.935378,0.25696199999999997,0.42273599999999995,0.873915
228,86.12191999999999,-16.418708,-40.650034000000005,0.04358,0.374762,1.0274809999999999
230,121.278706,-26.001373,-45.593957,-0.094362,0.30554699999999996,1.411154
232,173.464561,-12.878614,-41.870756,-0.222904,0.155764,1.441184
234,207.827878,-6.958114,-27.588312,-0.24353400000000003,-0.002075,1.129168
236,217.47158,-12.268253999999999,-12.939651,-0.12854200000000002,-0.037598,1.045304
238,220.340276,-5.61532,-11.047532,0.01648,-0.0074459999999999995,1.321553
240,230.59433900000002,13.061722999999999,-20.935378,0.087037,-0.063355,1.326436
242,222.659648,30.029754999999998,-34.363316999999995,0.172854,-0.163699,1.203388
244,203.982605,33.325703999999995,-49.500267,0.238529,-0.264897,1.492332
246,210.75761,31.677729,-62.56199,0.194217,-0.282475,1.6369879999999999
248,210.391394,31.860838,-66.22415500000001,0.042725,-0.416754,1.6063479999999999
250,203.616388,38.69688,-61.951629000000004,-0.062623,-0.534554,1.699855
252,205.75265100000001,42.603189,-51.026169,-0.11840999999999999,-0.633799,1.640406
254,190.24948500000002,52.918288000000004,-42.481117,0.008057,-0.664927,1.600244
256,195.437552,47.42504,-33.325703999999995,0.077516,-0.739635,1.841825
258,205.264363,37.170977,-27.954528000000003,0.16492,-0.810681,1.262226
260,183.96276799999998,31.006332,-24.292363,0.144778,-0.8399790000000001,1.010147
262,157.65621399999998,24.292363,-22.278172,0.068238,-0.908827,1.018692
264,133.85214,25.452049,-20.141909,-0.0542,-1.1335620000000002,0.7977420000000001
266,92.347601,31.006332,-9.704738,-0.064698,-1.35317,0.453254
268,40.039673,25.574120999999998,8.850233,-0.011840999999999999,-1.400534,0.42444499999999996
270,-0.183108,-0.366217,32.410163,-0.049194999999999996,-1.186908,0.417487
272,-159.548333,-21.118485999999997,69.520104,-0.296147,-0.890394,-0.411017
274,-142.27512,-59.510185,53.162431999999995,0.24780700000000003,-0.079713,1.455344
276,-192.935073,-65.980011,47.791257,0.421515,0.61561,1.260883
278,-232.42542200000003,-55.786984,36.987869,0.335698,-0.24036,1.581811
280,-168.33753000000002,-29.663539,19.714656,0.354864,-0.187625,1.9999689999999999
282,-68.97077900000001,-7.2022580000000005,9.277485,-0.45301,-0.036011,1.041642
284,-107.118334,-66.895552,45.716029999999996,-0.194339,-0.10486,1.038834
286,-70.98496999999999,-40.161746,6.958114,0.917006,-0.079225,1.429099
288,-91.248951,-34.241245,14.282444,-0.329839,-0.026978,0.9190809999999999
290,-42.053864000000004,-22.339208,1.342794,0.095338,-0.079591,1.080095
292,-31.616692999999998,-21.911955,0.549325,0.133181,0.048585,1.029068
294,-30.457008000000002,-13.061722999999999,-0.183108,-0.01001,-0.023804,1.061662
296,-25.574120999999998,-11.169604,0.0,0.046143,-0.031738999999999996,1.0750899999999999
298,-16.296635000000002,-9.52163,0.671397,0.066896,0.023926,1.049088
300,-13.305867000000001,-6.775005999999999,0.183108,0.033936,0.027710000000000002,1.011368
302,-11.047532,-5.61532,-0.549325,0.043824,-0.034668,1.0432290000000002
304,-8.728161,-2.563516,0.244144,0.050172,0.027222000000000003,1.068498
306,-7.629511,-1.2207219999999999,2.075227,0.038209,0.032958999999999995,0.995132
308,-9.155413000000001,-0.366217,1.525902,0.02002,-0.01648,0.981582
310,-11.657893,-1.8310830000000002,0.366217,0.023926,-0.052979,0.972305
312,-10.131991000000001,-3.784237,-0.183108,0.026612,-0.037110000000000004,1.001846
314,-6.347753,-3.6621650000000003,0.061036,0.036378,-0.043824,1.007218
316,-4.21149,-2.50248,0.183108,0.029786,-0.03418,0.997452
318,-5.676356,-2.50248,1.09865,0.033448,-0.022338999999999998,0.993423
320,-7.568475,-2.746624,1.2207219999999999,0.034424,-0.030639999999999997,1.000748
322,-4.699779,-1.8921189999999999,1.525902,0.039429,-0.040162,1.007706
324,-4.760815,-3.173877,1.647974,0.008179,-0.020630000000000003,1.00148
326,-10.254063,-4.150454,1.8310830000000002,0.040162,-0.04065,1.004166
328,-11.474784,-3.6621650000000003,1.647974,0.05712999999999999,-0.023194,1.016373
330,-13.061722999999999,-3.845274,0.854505,0.022461000000000002,-0.036255,1.0205229999999998
332,-15.259022,-4.638743,0.671397,0.058106,-0.052003,0.988785
334,-21.789883,-3.1128400000000003,0.30518,0.053467999999999995,-0.08276499999999999,1.010513
336,-17.090104999999998,-0.854505,1.40383,0.041138,-0.057862000000000004,0.992325
338,-21.179522,1.09865,5.0049589999999995,0.057008,-0.08484,0.9980620000000001
340,-28.809033000000003,6.408789,8.606088,-0.024659,0.0023190000000000003,0.957412
342,-36.804761,2.80766,3.6011290000000002,-0.006226,-0.025391,0.9830469999999999
344,-45.044633000000005,1.464866,-2.868696,0.018677000000000003,-0.098878,1.0404209999999998
346,-27.283131,-0.427253,-8.484016,-0.038209,-0.098268,1.050431
348,-47.241932,3.6011290000000002,-20.935378,-0.020508000000000002,-0.051881,1.073381
350,-45.777066,12.146181,-31.250477000000004,0.176394,-0.270512,0.9657129999999999
352,-19.65362,13.366903,5.432212,0.115969,-0.081178,1.107073
354,-69.214923,23.682002,3.784237,0.099855,0.19836700000000002,0.936782
356,-169.86343200000002,36.377508,-7.934691,-0.072389,0.296513,0.730358
358,-238.406958,-17.761501000000003,19.34844,-0.179568,0.591196,1.076677
360,-528.38941,-53.223468000000004,40.344854,-0.443366,0.083253,1.573388
362,-666.330968,-120.18005600000001,61.219196,0.14941600000000002,-0.20642399999999997,0.949477
364,-876.478218,-54.688334,145.51003300000002,-0.608896,-2.0000310000000003,1.9999689999999999
366,122.98771599999999,75.562676,-48.950942,-0.388922,0.42761899999999997,1.9999689999999999
368,-1.586938,41.138323,-3.1128400000000003,-0.792493,0.529061,1.7380639999999998
370,68.726635,-37.842374,58.777752,-0.20911,0.22497899999999998,1.1386889999999998
372,89.906157,-39.673457,49.561303,0.109865,0.416754,0.8382700000000001
374,143.434806,-1.40383,12.756542,0.319707,0.392218,1.110491
376,165.407797,8.361944,-21.728847000000002,0.21521300000000002,0.271733,0.914565
378,190.432593,-6.897078,-41.260395,0.055421000000000005,0.186526,0.895766
380,212.649729,-3.295949,-48.52369,-0.086671,0.064088,1.2802930000000001
382,244.937819,13.733120000000001,-43.701839,-0.19617,-0.076905,1.389181
384,273.807889,15.686275,-29.419394,-0.18725899999999998,-0.201053,1.5439690000000001
386,305.363546,15.564201999999998,-18.066682,-0.008057,-0.25085799999999997,1.60354
388,315.61760899999996,30.029754999999998,-28.381781,0.26062399999999997,-0.43665200000000004,1.113298
390,264.34729500000003,71.717403,-54.566262,0.328862,-0.5828949999999999,0.618784
392,196.41413,68.665599,-58.472572,0.155276,-0.45423100000000005,1.489158
394,204.40985700000002,48.340581,-49.683375,0.01001,-0.5039140000000001,1.9999689999999999
396,246.158541,63.233387,-37.59823,-0.067506,-0.7913939999999999,1.771511
398,211.42900699999998,59.449149,-20.508125,-0.06482,-0.861952,1.9999689999999999
400,252.20111400000002,52.857252,-16.784924,0.132082,-0.8593879999999999,1.9999689999999999
402,242.862593,57.007706000000006,-27.893492,0.335698,-0.8599979999999999,1.299458
404,212.893874,59.449149,-41.016251000000004,0.290654,-0.873426,1.234516
406,190.005341,51.941711,-43.884947,0.146731,-1.067399,1.112322
408,156.984817,49.195087,-39.917601,0.173709,-1.462913,0.6895859999999999
410,101.441978,45.471885,-37.109941,0.33679699999999996,-1.8976119999999999,0.201907
412,32.593271,26.977951,-16.906996,0.126345,-1.7652860000000001,-0.083497
414,-27.771420000000003,-40.650034000000005,30.090790999999996,-0.105592,-1.216205,0.648692
416,-48.462654,-53.894865,50.843061,0.07067999999999999,-1.5772950000000001,-2.0000310000000003
418,-157.045853,-79.89623900000001,53.71175699999999,0.029541,-0.40686700000000003,0.610971
420,-206.485084,-66.77348,51.697565999999995,0.174319,0.7913939999999999,1.013321
422,-253.48287200000001,-57.434957999999995,43.823910999999995,0.698497,-0.340215,1.416159
424,-191.409171,4.333562000000001,12.268253999999999,0.753674,-0.051881,1.9999689999999999
426,-109.62081299999998,38.635843,-6.652933999999999,-0.542977,-0.07055800000000001,1.630152
428,-91.30998699999999,-33.752956,37.659265999999995,-0.333135,-0.46204300000000004,1.486473
430,-53.77279300000001,-40.40589,19.958801,0.698497,0.18823499999999999,1.724392
432,-25.818265,-20.019837,10.864424,-0.332525,0.131472,1.101091
434,-29.17525,-1.586938,-0.244144,0.241459,0.077028,1.394919
436,-25.146867999999998,8.300908,2.80766,-0.025879000000000003,0.027466,1.166888
438,-14.160372,21.789883,2.685588,-0.107179,0.061524,1.013809
440,-15.686275,18.738079,5.0049589999999995,0.007568000000000001,0.079347,1.0521399999999999
442,-15.381094000000001,16.84596,4.455634,-0.10009900000000001,0.026489999999999996,1.018204
444,-10.376135000000001,14.160372,2.2583349999999998,-0.10473800000000001,0.061890999999999995,0.9306780000000001
446,-14.160372,5.737392,3.051804,-0.113283,0.035401,0.9517969999999999
448,-14.953841,0.244144,4.089418,-0.153445,0.021241,0.930312
450,-14.831769,-7.446403,4.028382,-0.07324299999999999,0.026001,1.025406
452,-9.704738,-9.52163,2.746624,-0.109865,0.012329000000000001,0.992447
454,-7.812619000000001,-14.770732999999998,2.136263,-0.08691499999999999,0.0058590000000000005,1.019425
456,-5.065995,-14.587625,1.7700470000000001,-0.079347,0.032837,0.972305
458,-10.376135000000001,-14.709697,2.685588,-0.07422000000000001,0.029664,0.937636
460,-15.442129999999999,-18.921187,3.6621650000000003,-0.078981,0.013793999999999999,0.984146
462,-8.850233,-20.752270000000003,1.8921189999999999,-0.100221,0.033204000000000004,1.018448
464,-10.315099,-22.766461,0.48828900000000003,-0.056641,0.099855,1.13991
466,-21.423667000000002,-22.095064,1.8921189999999999,0.016114,-0.016846,0.980728
468,-13.366903,-15.320058,-1.647974,-0.038697,-0.118898,0.9299459999999999
470,-14.892805,-13.733120000000001,1.647974,-0.009644,0.0063479999999999995,1.0355379999999998
472,-12.085144999999999,-14.465553,-0.244144,-0.048463,-0.029419,1.013443
474,-11.169604,-13.916228,-1.464866,-0.006226,0.004517,1.00148
476,-19.043259,-13.366903,0.244144,0.003052,-0.021851,0.9790190000000001
478,-22.522316,-13.183795000000002,0.122072,-0.006836,-0.011719,0.9741360000000001
480,-28.320745000000002,-12.878614,1.2207219999999999,-0.017334,-0.036866,0.9984280000000001
482,-28.686961,-13.244831,1.159686,0.005737,-0.048219,0.9935450000000001
484,-28.870069,-10.193027,2.4414439999999997,-0.003662,-0.042481,0.9902489999999999
486,-30.029754999999998,-10.254063,2.014191,0.032227,-0.028076999999999998,0.959976
488,-41.687647999999996,-11.23064,2.4414439999999997,-0.007935,-0.046754000000000004,0.968887
490,-45.166705,-5.188067,1.159686,0.015991,-0.099855,0.971817
492,-41.687647999999996,-2.563516,1.2207219999999999,0.000244,-0.015381,1.0202790000000002
494,-55.603876,-3.967346,-8.300908,-0.047486,-0.057008,0.98146
496,-86.793317,2.746624,-30.762188000000002,0.061524,0.017456,0.876967
498,-47.180896000000004,1.281758,-11.963073,0.143801,-0.34070300000000003,1.009415
500,-57.06874200000001,-0.183108,-18.799115,0.004028,0.215579,0.9466700000000001
502,-155.27580700000001,8.789197,-15.014878,0.016846,-0.22790900000000003,0.882704
504,-211.79522400000002,-28.381781,-40.894179,-0.225223,0.339971,1.086076
506,-590.524147,-67.689021,36.1944,-0.545296,0.171756,1.808988
508,-712.352178,-118.532082,47.241932,-0.002075,-0.2439,0.9348290000000001
510,-909.2545970000001,-137.636378,122.92668,-0.570809,-1.544335,1.9999689999999999
512,143.37377,-54.20004599999999,-37.109941,-0.330327,0.71986,1.9999689999999999
514,103.822385,-12.085144999999999,-29.236286,-0.49170699999999995,0.6948350000000001,1.9999689999999999
516,111.207752,-17.273213000000002,24.536507,-0.2804,0.167239,0.804211
518,137.514305,0.183108,26.001373,-0.278569,0.264042,0.354009
520,157.41207,2.990768,28.931106,-0.158328,0.160281,0.631479
522,162.35599299999998,8.606088,25.26894,-0.08215499999999999,0.14111500000000002,1.015885
524,205.996796,18.432898,15.991454999999998,0.010254000000000001,0.162722,1.223041
526,242.67948399999997,29.17525,7.141222,0.082399,0.008667,1.37734
528,273.56374500000004,37.109941,-3.295949,0.20520300000000002,-0.275395,1.385641
530,297.672999,52.73518000000001,-20.630198,0.154788,-0.476814,1.1900819999999999
532,286.564431,47.241932,-25.024796,0.089479,-0.607187,1.221576
534,279.789426,31.250477000000004,-26.489662,-0.029419,-0.690562,1.222919
536,250.003815,36.1944,-24.902724,-0.07946900000000001,-0.704479,1.125261
538,213.443198,49.683375,-22.888533,-0.077638,-0.60206,1.483665
540,203.921569,62.256809,-18.982223,-0.043091000000000004,-0.44446499999999994,1.9999689999999999
542,239.68871600000003,54.383154000000005,-15.808347,0.070069,-0.491951,1.9999689999999999
544,265.262837,53.650721,-26.306554,0.241337,-0.560067,1.7417259999999999
546,246.64683,58.594643999999995,-44.861523999999996,0.23303600000000002,-0.607431,1.460227
548,221.866178,62.989242000000004,-63.416495,0.294682,-0.6825060000000001,1.502464
550,201.113909,76.112001,-83.131151,0.280522,-0.933486,1.34548
552,166.262303,82.03250200000001,-86.976425,0.23865100000000003,-1.594873,1.272969
554,131.532769,110.170138,-64.69825300000001,0.09289700000000001,-2.0000310000000003,0.550912
556,83.61944,55.603876,1.342794,-0.224491,-2.0000310000000003,-1.438499
558,-77.02754300000001,-105.287251,94.056611,-0.095216,-1.2765090000000001,0.27747
560,-111.26878799999999,-124.51361899999999,83.009079,0.588144,-0.933974,-0.172976
562,-151.674678,-68.421454,39.612421000000005,-0.153445,-0.136355,0.478889
564,-189.456016,-99.549859,49.805446999999994,-0.063233,0.7277939999999999,0.9720610000000001
566,-270.267796,-101.441978,61.524376000000004,0.593759,-0.423957,1.902739
568,-145.204852,-54.566262,19.958801,0.92079,-0.055177,1.9999689999999999
570,-55.054551000000004,-11.718929,6.347753,-0.541756,-0.004028,1.343893
572,-95.887694,-33.264668,50.598917,-0.304448,0.197024,0.691295
574,-115.480278,-60.303655000000006,29.541465999999996,1.019059,0.17810299999999998,1.9999689999999999
576,-37.232013,-21.484703,0.0,-0.345342,0.180301,1.1623709999999998
578,-69.092851,-34.912642,3.234913,0.10779000000000001,0.0907,1.495995
580,-29.114214,-15.747310999999998,-4.5166699999999995,0.016602000000000002,-0.024659,1.232441
582,-31.738766,-8.667124000000001,-0.732433,0.017578,-0.021606999999999998,1.074235
584,-12.939651,-2.4414439999999997,0.427253,0.06286699999999999,0.017578,1.025895
586,-12.146181,-2.4414439999999997,2.80766,0.026368,0.008667,1.033585
588,-12.512398,-5.859464,1.647974,-0.00415,0.005371,0.992569
590,-9.399557000000001,-7.873655,0.061036,0.010131999999999999,0.018921,1.029801
592,-4.5166699999999995,-6.469825,0.549325,0.046508999999999995,-0.047608,1.066056
594,-2.563516,-3.418021,2.685588,0.032349,0.033569999999999996,1.070207
596,1.40383,-1.342794,2.80766,0.029907999999999997,-0.039307,0.996719
598,5.61532,0.549325,2.685588,0.0177,0.010376,0.993057
600,0.244144,-2.80766,1.8921189999999999,-0.010864,0.054688,0.949722
602,-3.723201,-5.981537,0.9155409999999999,0.007201999999999999,0.035767,0.986099
604,-3.540093,-5.9205,1.037613,0.019776,-0.013062,1.001724
606,-3.723201,-6.836042,1.09865,0.039063,0.01355,0.993057
608,-3.723201,-6.836042,0.732433,0.037110000000000004,0.008179,0.9980620000000001
610,-4.394598,-7.934691,0.0,0.008789,0.01355,0.942153
612,-11.596857,-10.009917999999999,-0.244144,0.035279000000000005,0.019532,0.968032
614,-16.052491,-9.704738,-0.30518,0.039550999999999996,0.019653999999999998,0.9746239999999999
616,-19.043259,-9.887846000000001,0.0,0.046876,-0.009155,0.995865
618,-18.188754,-10.193027,0.244144,0.036378,-0.014159999999999999,0.977554
620,-22.034028,-12.32929,1.464866,0.020630000000000003,-0.040772,0.985245
622,-23.071641,-13.244831,2.80766,0.036378,0.015991,0.984634
624,-33.081559000000006,-4.150454,1.525902,0.044433999999999994,-0.082887,1.141131
626,-31.616692999999998,1.342794,4.699779,0.09094400000000001,-0.035279000000000005,1.0127110000000001
628,-38.391698999999996,3.845274,8.850233,0.073732,-0.07067999999999999,1.037369
630,-52.185855,8.42298,4.455634,-0.070314,0.039429,0.9358049999999999
632,-57.007706000000006,2.990768,-1.342794,-0.041138,-0.035889,1.005142
634,-68.421454,10.864424,-23.498894,0.003906,-0.184451,0.8836799999999999
636,-59.815366000000004,7.446403,-41.565576,0.11340499999999999,-0.323857,0.962051
638,-16.84596,6.775005999999999,3.234913,0.197391,-0.076051,1.0509190000000002
640,-99.794003,26.428626,-2.075227,0.004273,0.356939,0.9719389999999999
642,-200.9308,27.649348,9.033341,-0.181643,0.49085200000000007,0.217166
644,-331.853208,-44.434272,-16.906996,-0.084962,0.346929,1.264302
646,-630.746929,-191.47020700000002,39.063096,-0.008545,0.20288399999999998,1.076555
648,-832.776379,-189.944305,88.685435,0.728649,-0.749645,1.713893
650,-354.436561,7.324331,28.503853000000003,-0.7680779999999999,-1.28603,1.9999689999999999
652,248.783093,63.660639,-69.275959,-0.45960200000000007,1.371969,1.754055
654,-36.804761,-40.772107,43.640803000000005,-0.40943,0.262333,0.846937
656,146.425574,13.305867000000001,11.841001,-0.06836,0.3617,0.421637
658,72.022583,23.010604999999998,12.756542,0.064698,0.269291,0.823987
660,139.58953200000002,24.475471,-6.164645,0.12195,0.42261400000000005,0.963149
662,170.90104499999998,24.841688,-21.05745,0.100954,0.334966,1.2242620000000002
664,209.658961,41.504540000000006,-30.823224,0.061402,0.208377,1.334981
666,253.42183599999998,50.843061,-32.166018,0.074464,0.046021,1.3087360000000001
668,282.10879700000004,43.51873,-27.954528000000003,0.172732,-0.095949,1.4414280000000002
670,307.438773,44.007019,-34.424353,0.288457,-0.178714,1.366476
672,294.499123,66.346227,-50.171664,0.340459,-0.582162,0.405646
674,206.607156,81.177996,-60.303655000000006,0.282109,-0.49707799999999996,0.42835100000000004
676,156.374456,58.533607999999994,-65.735866,0.08484,-0.26453000000000004,1.9999689999999999
678,229.73983399999997,87.037461,-60.18158199999999,-0.079835,-0.658701,1.9999689999999999
680,258.548867,102.72373499999999,-49.988556,0.013793999999999999,-0.8424200000000001,1.474022
682,230.533303,83.009079,-37.476158,0.282597,-0.8726940000000001,1.9999689999999999
684,259.586481,80.323491,-46.143282,0.558358,-0.799451,1.865507
686,255.00877400000002,63.782712,-61.219196,0.53077,-0.811658,1.261738
688,224.368658,50.659953,-68.909743,0.181277,-0.936049,1.2621040000000001
690,196.108949,58.3505,-62.56199,-0.119387,-1.17116,1.014786
692,147.219043,64.45410799999999,-38.269627,-0.280522,-1.6551770000000001,0.642954
694,84.657053,65.67483,10.254063,-0.16614,-2.0000310000000003,0.24548699999999998
696,19.226368,25.085832,69.58114,0.11877599999999999,-1.968536,0.045167
698,-56.031128,-61.219196,104.615854,0.49366000000000004,-2.0000310000000003,-1.9855040000000002
700,-205.081254,-109.803922,80.994888,1.024186,-0.632944,0.544808
702,-165.10261699999998,-70.618753,47.73022,0.37232,0.964858,1.493187
704,-271.427482,-72.3888,47.669184,0.196414,-0.378424,1.093889
706,-200.44251200000002,-17.883574,39.185168,0.612192,-0.22241599999999997,1.9999689999999999
708,-134.279393,12.939651,17.090104999999998,0.015503,0.014771000000000001,1.693874
710,-59.20500500000001,-35.461967,24.841688,-0.357916,-0.198123,1.409812
712,-47.547112,-43.091478,20.080873,0.488655,0.045288999999999996,1.471214
714,-35.400931,-30.762188000000002,13.733120000000001,-0.071534,0.042602999999999995,1.1369799999999999
716,-24.597542999999998,-16.723888,5.493248,0.071534,0.07776,1.155901
718,-13.977264000000002,-12.024109,4.028382,0.037110000000000004,0.061402,1.106706
720,-8.972305,-5.493248,3.723201,-0.0037840000000000005,0.062135,1.0632489999999999
722,-4.150454,-0.976577,3.90631,-0.001831,0.06884900000000001,1.019181
724,-3.6011290000000002,-1.953155,3.723201,0.008911,0.083131,0.9939120000000001
726,-7.2022580000000005,-3.1128400000000003,3.356985,-0.024903,0.089601,0.9423969999999999
728,-18.554971,-7.873655,2.990768,-0.052125,0.09704700000000001,0.905776
730,-24.231327,-14.221407999999998,3.90631,-0.02417,0.075685,0.98793
732,-23.926146,-16.723888,2.319371,-0.038819,0.065187,1.0663
734,-22.705425,-16.906996,3.356985,-0.005615,0.059937,1.028702
736,-21.972992,-19.34844,3.784237,-0.026612,0.031127999999999996,0.977798
738,-25.940337,-19.287404000000002,2.075227,-0.093874,0.098268,1.171527
740,-26.67277,-17.639429,1.7700470000000001,0.026368,0.022095,0.9979399999999999
742,-21.545739,-16.052491,0.671397,0.012695999999999999,0.007568000000000001,1.021012
744,-13.672084,-12.63447,0.061036,0.022461000000000002,-0.028076999999999998,0.98439
746,-17.212177,-13.427939000000002,-0.6103609999999999,0.017212,0.005249,0.928725
748,-22.705425,-13.672084,-0.6103609999999999,0.06958099999999999,-0.034058,1.0390780000000002
750,-16.601816,-8.728161,0.30518,0.060548000000000005,-0.022338999999999998,1.025895
752,-15.564201999999998,-4.8218510000000006,1.342794,0.062989,-0.028199000000000002,1.013443
754,-16.540779999999998,-4.21149,1.342794,0.021241,0.001831,0.932753
756,-25.818265,-8.667124000000001,0.0,0.040284,-0.026246,0.964248
758,-29.419394,-9.216449,1.40383,0.052613,-0.025635,1.00209
760,-37.90341,-0.9155409999999999,0.671397,0.004639,-0.112062,0.9640040000000001
762,-38.025483,-1.647974,2.80766,0.053834,-0.06775,1.048234
764,-36.133364,3.051804,6.897078,0.071412,-0.085328,1.022843
766,-48.950942,6.836042,9.82681,0.038697,-0.057008,0.964248
768,-44.556344,5.432212,4.699779,0.010254000000000001,-0.037476,0.9713280000000001
770,-55.90905600000001,4.21149,-3.723201,-0.029664,-0.10998699999999999,1.086198
772,-43.030442,2.197299,-26.245518,-0.083131,-0.019043,1.232074
774,-61.524376000000004,4.943923000000001,-43.457694000000004,0.183108,-0.313481,0.9792629999999999
776,-35.584039000000004,10.131991000000001,-0.671397,0.154177,0.068727,0.988785
778,-125.673304,29.541465999999996,-23.559929999999998,-0.006226,0.167849,0.997208
780,-145.51003300000002,-22.644388,22.217136,-0.480232,0.47608100000000003,0.945205
782,-449.04249599999997,-49.073014,-34.424353,-0.31751,0.21948600000000001,0.8369270000000001
784,-679.697871,-247.37926299999998,30.457008000000002,-0.268559,0.018799,1.150896
786,-891.73724,-182.009613,114.076448,0.9793850000000001,-2.0000310000000003,1.9999689999999999
788,-15.747310999999998,0.0,-47.119859999999996,-0.41003999999999996,-0.562753,1.9999689999999999
790,61.402304,32.654307,-33.447776,-0.516121,0.763684,1.960723
792,-2.075227,-72.266728,81.78835699999999,-0.12255999999999999,0.096315,1.5187
794,148.01251200000002,-45.899138,41.992828,0.16125699999999998,0.554818,0.792859
796,148.867018,-6.103609,9.033341,0.268925,0.341314,0.731945
798,146.913863,15.503166,-23.559929999999998,0.129152,0.286015,0.623423
800,173.830777,22.095064,-36.316472,-0.086549,0.210208,1.075456
802,212.03936800000002,24.170291,-27.649348,-0.21997399999999998,0.064332,1.483665
804,265.751125,24.414435,-12.939651,-0.189212,-0.07055800000000001,1.49868
806,298.039216,44.434272,-5.676356,-0.001099,-0.17810299999999998,1.523339
808,323.918517,50.110628000000005,-9.765774,0.29102,-0.271611,1.31545
810,310.185397,42.359045,-34.607462,0.497932,-0.543099,0.448737
812,224.368658,76.356146,-66.163119,0.43262399999999995,-0.417487,0.997208
814,202.02945,86.366064,-80.994888,0.20886500000000002,-0.379767,1.9999689999999999
816,228.64118399999998,83.741512,-68.36041800000001,0.031373000000000005,-0.591073,1.9999689999999999
818,238.34592200000003,67.383841,-50.537881,0.140261,-0.646494,1.9999689999999999
820,283.085374,68.84870699999999,-50.110628000000005,0.341802,-0.813611,1.9999689999999999
822,277.22591,66.285191,-56.336309,0.327764,-0.8761120000000001,1.6241700000000001
824,254.39841299999998,65.308614,-62.317845,0.27563899999999997,-0.907118,1.4848860000000002
826,223.514153,77.08857900000001,-57.740139,0.107424,-1.147601,1.250629
828,176.150149,90.394446,-42.969406,0.129641,-1.780056,0.8211799999999999
830,101.50301400000001,124.87983500000001,-33.875029,0.239261,-2.0000310000000003,0.491463
832,50.049592,118.71518999999999,13.855192,-0.063722,-2.0000310000000003,-0.276005
834,-39.246204,-29.907683000000002,97.596704,-0.000977,-1.56997,0.278325
836,-158.388647,-122.072175,90.33341,1.0628819999999999,-1.379782,-0.39917600000000003
838,-119.142443,-61.402304,48.096437,-0.14648699999999998,0.536995,1.1467459999999998
840,-238.895247,-100.70954499999999,79.346914,0.005249,0.349493,0.29370599999999997
842,-286.198215,-77.210651,86.73228,1.0390780000000002,-0.2981,1.9999689999999999
844,-126.161593,-18.921187,8.484016,1.326314,-0.002441,1.9999689999999999
846,-103.456168,5.859464,-6.164645,-0.999649,-0.127687,1.1888610000000002
848,-122.92668,-67.322805,57.373922,-0.347539,-0.186648,1.00209
850,-90.577554,-64.393072,22.400244,1.136248,0.0177,1.9999689999999999
852,-64.393072,-40.527962,5.371176,-0.31995100000000004,-0.087404,1.277363
854,-38.879988,-23.071641,-0.9155409999999999,0.323613,0.04712,1.408469
856,-15.930419,-20.874342000000002,-0.9155409999999999,-0.012085,0.042602999999999995,0.953994
858,-31.616692999999998,-8.728161,1.525902,0.039918,-0.04773,1.114519
860,-24.597542999999998,0.671397,2.80766,0.072267,0.02002,1.0085600000000001
862,-20.630198,1.037613,3.356985,0.015137000000000001,-0.012206999999999999,1.034318
864,-20.752270000000003,-3.1128400000000003,2.563516,-0.010498,0.002686,1.05861
866,-16.235599,-5.065995,0.244144,-0.00061,0.006226,1.003067
868,-10.925460000000001,-3.90631,1.342794,0.039307,-0.026978,1.0251620000000001
870,-13.122759,-4.21149,2.685588,0.000977,0.0021969999999999997,1.0285799999999998
872,-10.009917999999999,-3.784237,2.929732,0.041382,0.026246,1.050553
874,-6.469825,-4.150454,1.525902,0.018189,-0.029419,0.9865870000000001
876,-6.225681,-6.2867169999999994,0.549325,0.007812999999999999,0.023926,0.963516
878,-14.404517000000002,-9.460594,0.122072,0.015381,-0.018189,0.9779200000000001
880,-16.723888,-9.765774,-0.244144,0.033814,-0.023804,0.9901270000000001
882,-16.723888,-8.545052,-0.244144,0.043946,-0.047852,1.013443
884,-13.550010999999998,-5.859464,0.0,0.057862000000000004,-0.079225,1.025284
886,-7.812619000000001,-4.577707,0.732433,0.047852,-0.058961,0.9434959999999999
888,-13.733120000000001,-6.103609,0.244144,0.022583000000000002,-0.011963,0.9542379999999999
890,-21.911955,-6.958114,-1.342794,0.064454,-0.049805,0.981827
892,-30.151827,-0.244144,-1.464866,0.035279000000000005,-0.11877599999999999,0.9244530000000001
894,-19.043259,-0.671397,0.30518,0.072389,-0.037842,1.064591
896,-25.26894,2.380407,1.8310830000000002,0.033082,-0.088746,0.9828030000000001
898,-27.283131,-0.9155409999999999,1.2207219999999999,0.028687,-0.06543099999999999,0.969619
900,-35.278859000000004,-2.746624,0.061036,0.05285700000000001,-0.067262,0.988052
902,-40.283818,0.183108,5.371176,0.076417,-0.152102,1.044938
904,-25.452049,2.2583349999999998,4.699779,0.018677000000000003,-0.103395,0.997574
906,-25.513085,1.09865,-1.464866,-0.0037840000000000005,-0.070802,0.989517
908,-24.414435,-2.563516,-15.503166,-0.077028,-0.10241900000000001,1.0283360000000001
910,-43.030442,0.9155409999999999,-37.964446,0.038452999999999994,-0.154177,0.945815
912,-18.005646,-8.667124000000001,-26.123445,0.16492,-0.153933,1.0553139999999999
914,-35.400931,11.352712,-1.037613,0.078248,0.007201999999999999,1.037125
916,-95.399405,29.785611,-17.700464999999998,0.11108599999999999,0.122927,0.9205459999999999
918,-192.62989199999998,13.916228,-26.489662,-0.118288,0.18323,0.140871
920,-265.506981,-52.979324,-35.828183,-0.14905,0.500618,1.306294
922,-600.77821,-189.456016,15.442129999999999,-0.31104,-0.135622,1.6513919999999997
924,-805.065995,-217.22743599999998,83.61944,0.296025,0.135622,1.096452
926,-806.652934,-57.923246999999996,232.242313,-0.357183,-0.202762,1.9999689999999999
928,431.708248,65.796902,-58.167391,-0.274052,0.670665,1.9999689999999999
930,70.923934,2.50248,34.546426000000004,-0.682261,0.526131,0.15979200000000002
932,55.664912,-4.577707,54.077974,-0.180789,0.06640700000000001,0.42920600000000003
934,93.324178,20.996414,34.424353,0.090455,0.420783,0.38110900000000003
936,109.19356100000002,12.085144999999999,19.043259,0.106081,0.348516,0.944472
938,142.030976,1.342794,0.671397,0.145022,0.43250200000000005,1.3351030000000002
940,210.69657400000003,14.892805,-22.278172,0.064332,0.255741,1.504051
942,256.04638700000004,27.405203000000004,-31.067369,-0.018311,0.036011,1.3512170000000001
944,288.02929700000004,35.461967,-29.785611,-0.025269,-0.166018,1.352438
946,307.68291800000003,31.494621000000002,-27.588312,0.136721,-0.232303,1.0512860000000002
948,279.972534,41.870756,-43.823910999999995,0.36328699999999997,-0.535042,0.621225
950,216.18982200000002,74.280919,-59.998474,0.311284,-0.473762,1.0599530000000001
952,205.75265100000001,59.20500500000001,-67.872129,0.224125,-0.33472199999999996,1.9999689999999999
954,238.651102,68.787671,-68.116274,0.17322,-0.61561,1.9999689999999999
956,261.905852,77.02754300000001,-53.528649,-0.019043,-0.731945,1.9999689999999999
958,285.526818,64.332036,-32.898451,0.127687,-0.792126,1.8415810000000001
960,263.73693399999996,63.660639,-21.667811,0.24731799999999998,-0.79884,1.846098
962,255.74120699999997,52.857252,-25.452049,0.394293,-0.759899,1.6031739999999999
964,241.580835,54.993515,-41.443503,0.338262,-0.864149,1.318502
966,196.536202,68.726635,-52.796216,0.22497899999999998,-1.160174,0.946548
968,128.725109,91.920348,-54.749371,0.29102,-1.7084,0.794934
970,74.219883,123.048753,-33.081559000000006,0.10254100000000001,-2.0000310000000003,0.622568
972,42.1149,43.762875,30.884259999999998,0.036011,-1.9101849999999998,-0.343999
974,-67.444877,-81.483177,71.839475,0.283696,-1.7186540000000001,-0.827161
976,-229.007401,-67.933165,70.862898,0.20947600000000002,-1.7207290000000002,0.22571100000000002
978,-106.20279199999999,-85.02327,35.339895,0.514046,0.7581899999999999,1.9999689999999999
980,-233.218891,-64.69825300000001,23.132676999999997,0.282231,0.162234,0.44715
982,-224.795911,-32.471199,29.785611,-0.026733999999999997,-0.220584,1.9999689999999999
984,-127.80956699999999,12.695506,20.386053,0.10363900000000001,-0.20264000000000001,1.811307
986,-113.771267,10.803388,21.423667000000002,-0.153933,0.268925,1.759182
988,-64.637217,-41.565576,21.728847000000002,-0.07800399999999999,0.079347,1.9999689999999999
990,-26.184482,-11.474784,10.193027,0.161746,0.052125,1.275654
992,-27.466239,-27.527276,11.047532,0.058595,0.008057,1.240375
994,-20.202945,-12.451362,2.319371,-0.089113,0.041871,1.0396889999999999
996,-15.564201999999998,-11.596857,1.70901,0.054077999999999994,0.078737,1.06508
998,-13.550010999999998,0.366217,2.685588,0.007201999999999999,0.026489999999999996,1.0914469999999998
1000,-9.765774,7.629511,3.051804,0.002564,0.039673,1.085466
1002,-3.051804,9.887846000000001,2.563516,-0.015991,0.070314,0.989151
1004,-5.493248,10.131991000000001,2.197299,-0.078248,0.047974,0.9521629999999999
1006,-10.559242999999999,6.103609,2.685588,-0.075807,0.046998000000000005,0.9466700000000001
1008,-12.63447,2.624552,3.418021,-0.047242,0.025147,0.999649
1010,-9.338521,1.70901,3.234913,-0.037110000000000004,0.033082,1.019059
1012,-8.42298,1.342794,3.051804,-0.064088,0.04773,0.9709620000000001
1014,-10.315099,-2.014191,3.1128400000000003,-0.078859,0.034791,0.948257
1016,-14.953841,-9.277485,3.1128400000000003,-0.06836,0.050538,0.9279930000000001
1018,-18.24979,-12.32929,2.563516,-0.05651900000000001,0.017945,0.953506
1020,-20.752270000000003,-16.296635000000002,0.732433,-0.0448,-0.029786,0.874525
1022,-26.550697999999997,-22.949569,2.319371,-0.048585,0.017334,0.992325
1024,-22.1561,-24.475471,0.366217,-0.026612,0.016846,1.0671549999999999
1026,-25.574120999999998,-18.799115,-2.319371,0.09704700000000001,-0.074586,0.8767219999999999
1028,-29.358358000000003,-14.831769,1.586938,0.049805,-0.014649,1.0160069999999999
1030,-26.855878999999998,-6.775005999999999,3.356985,0.030762,-0.038819,1.074235
1032,-22.1561,-3.418021,4.760815,0.005982,-0.027955,0.996841
1034,-25.757229000000002,-8.484016,3.6011290000000002,-0.01355,-0.023438,0.9914700000000001
1036,-24.780652,-8.42298,1.586938,-0.010864,-0.026856,0.9712059999999999
1038,-31.616692999999998,-9.033341,1.525902,-0.007201999999999999,-0.045167,0.995132
1040,-33.142596000000005,-9.948882000000001,0.976577,0.045288999999999996,-0.065309,0.9902489999999999
1042,-36.133364,-9.52163,4.577707,-0.019165,-0.099855,1.0046540000000002
1044,-44.3122,-7.6905470000000005,6.347753,0.038819,-0.08691499999999999,1.0955979999999998
1046,-38.757915999999994,-4.150454,2.075227,-0.0008550000000000001,-0.06958099999999999,1.000748
1048,-44.861523999999996,-2.50248,0.244144,-0.01709,-0.10901,1.02565
1050,-40.161746,-2.014191,-7.812619000000001,-0.039429,-0.103273,1.00148
1052,-48.706798,-5.249104,-20.752270000000003,-0.049561,-0.13379100000000002,1.057633
1054,-43.396658,7.9957270000000005,-31.799802000000003,0.136477,-0.376226,1.028214
1056,-42.481117,-5.9205,-15.625238000000001,-0.0271,0.103029,0.8802620000000001
1058,-148.683909,6.042573,-24.353399,0.147585,-0.09704700000000001,0.712657
1060,-132.44831000000002,-19.043259,-23.682002,0.002686,0.637095,1.1030440000000001
1062,-552.803845,-10.315099,-26.977951,-0.440436,0.180179,1.021622
1064,-731.883726,-119.447623,33.875029,-0.022461000000000002,-0.019653999999999998,1.22475
1066,-1038.712139,-118.898299,195.437552,-1.558373,-0.337041,1.9999689999999999
1068,317.509728,-0.48828900000000003,-26.489662,-0.733532,0.794568,1.9999689999999999
1070,92.59174499999999,-7.324331,18.005646,-0.591928,0.409674,0.703624
1072,-29.785611,-24.841688,79.65209399999999,0.016602000000000002,-0.063233,0.39942
1074,66.590372,17.456321,36.621653,0.224002,0.46363000000000004,0.415045
1076,78.187228,12.085144999999999,17.090104999999998,0.165164,0.402106,0.944961
1078,117.55550500000001,-9.643702000000001,-1.953155,0.079225,0.448615,1.056291
1080,174.624247,-8.667124000000001,-16.723888,-0.007324,0.338994,1.379904
1082,222.354467,2.2583349999999998,-22.1561,-0.117556,0.11230599999999999,1.363912
1084,261.356527,14.953841,-18.127717999999998,-0.201175,-0.073976,1.1975280000000001
1086,278.995956,17.517357,-6.469825,-0.163455,-0.178714,1.310689
1088,297.18471,6.897078,-3.234913,0.031738999999999996,-0.264042,1.301656
1090,286.442359,31.006332,-22.827497,0.266361,-0.522957,0.782971
1092,224.612802,56.641489,-44.92256,0.190066,-0.43994799999999995,0.9510639999999999
1094,206.485084,27.771420000000003,-61.158159999999995,0.138674,-0.336065,1.9999689999999999
1096,230.77744700000002,63.294422999999995,-72.632944,-0.071046,-0.613046,1.9999689999999999
1098,248.844129,82.52079,-58.838788,-0.31751,-0.918349,1.7970240000000002
1100,216.18982200000002,103.150988,-45.227740999999995,-0.098024,-1.012222,1.084855
1102,154.116121,130.189975,-39.856565,0.076661,-1.0285799999999998,1.7159689999999999
1104,164.7364,106.01968400000001,-41.382467,0.38513800000000004,-0.9316549999999999,1.973541
1106,203.921569,78.919661,-50.2327,0.512703,-0.972671,1.9194630000000001
1108,220.40131200000002,53.467613,-43.21355,0.152712,-1.241962,0.8155640000000001
1110,169.314107,12.939651,-13.916228,-0.20618000000000003,-1.470603,0.5351640000000001
1112,119.569696,5.676356,12.268253999999999,-0.20630199999999999,-1.707057,0.6030369999999999
1114,66.956588,27.161059,37.354085999999995,-0.31995100000000004,-2.0000310000000003,-1.497459
1116,-167.299916,-126.161593,107.66765900000001,0.191165,-2.0000310000000003,-1.085222
1118,-166.201267,-112.48950900000001,85.51155899999999,0.610849,-0.126223,1.406882
1120,-244.14435,-102.296483,72.816052,0.8155640000000001,0.836316,1.7309830000000002
1122,-215.152209,-79.530022,38.452735,0.816541,-0.314092,1.9212939999999998
1124,-145.02174399999998,-2.380407,11.291675999999999,0.313237,-0.261967,1.9999689999999999
1126,-149.843595,-25.574120999999998,30.701152,-1.093278,-0.275273,0.9799950000000001
1128,-87.342641,-98.57328100000001,31.067369,1.257343,0.0028079999999999997,1.9999689999999999
1130,-53.833829,-33.203632,2.197299,-0.47815699999999994,-0.029297000000000004,1.238911
1132,-23.743038000000002,-37.90341,2.136263,0.481575,0.066285,1.5724120000000001
1134,-17.700464999999998,-14.099336,2.136263,-0.044068,0.008789,1.120378
1136,-20.080873,-12.268253999999999,1.70901,0.066773,0.020752,1.077653
1138,-3.723201,-4.760815,4.21149,0.129152,0.019165,1.049454
1140,-12.63447,-2.197299,5.127031,-0.034058,-0.024537,1.046403
1142,-5.676356,-3.234913,2.990768,0.032593000000000004,0.001709,1.026017
1144,-1.7700470000000001,-2.197299,2.197299,0.010254000000000001,0.032105,0.951675
1146,-13.122759,-7.934691,1.342794,0.005982,-0.001709,1.0118559999999999
1148,-3.90631,-4.8218510000000006,1.159686,0.008789,0.027710000000000002,0.982193
1150,-9.765774,-4.638743,1.586938,0.012206999999999999,0.0037840000000000005,0.989883
1152,-14.221407999999998,-5.127031,0.793469,0.031738999999999996,-0.005371,0.999649
1154,-10.070953999999999,-5.554284,0.671397,0.005493,-0.0035399999999999997,0.996109
1156,-10.742351,-8.728161,-0.244144,0.008545,0.007568000000000001,0.991958
1158,-13.550010999999998,-10.376135000000001,-1.464866,0.033814,-0.005982,0.999283
1160,-11.657893,-10.681315,-2.319371,0.128664,0.011597,0.984512
1162,-13.672084,-9.094377,-2.2583349999999998,0.08630499999999999,-0.030762,1.014176
1164,-15.869383,-6.225681,-0.122072,0.085328,-0.033814,1.009293
1166,-18.616007,-3.418021,2.014191,0.048463,-0.03418,1.006607
1168,-20.447089000000002,-3.967346,2.136263,0.041260000000000005,-0.031983,0.992813
1170,-19.409476,-3.479057,1.8921189999999999,0.021363,-0.127199,1.232441
1172,-18.371862,-1.09865,1.2207219999999999,0.038941,-0.051148,0.946426
1174,-25.818265,-0.549325,0.48828900000000003,0.051026,-0.05005,0.996597
1176,-29.846646999999997,0.427253,-0.6103609999999999,0.055542999999999995,-0.054932,1.002823
1178,-41.199359,-0.366217,-5.127031,0.041016000000000004,-0.11133,0.993301
1180,-36.621653,0.6103609999999999,-1.037613,0.13610999999999998,-0.08618300000000001,0.9873200000000001
1182,-43.579767,1.953155,2.075227,0.038941,-0.112673,1.032975
1184,-37.781338,2.624552,-4.577707,0.030396,-0.11194000000000001,0.9983059999999999
1186,-25.696193,3.173877,-14.099336,-0.046632,-0.048585,1.023575
1188,-42.603189,2.319371,-37.415122,0.042359,-0.067262,0.977798
1190,-26.611734000000002,5.371176,-22.583351999999998,0.220218,-0.26758200000000004,1.048478
1192,-30.029754999999998,18.616007,17.639429,0.081666,-0.010376,0.9643700000000001
1194,-102.601663,25.940337,-0.244144,0.151003,0.24670799999999998,0.909438
1196,-211.42900699999998,0.183108,-3.90631,-0.385382,0.110109,0.294682
1198,-351.262684,-78.98069699999999,-29.114214,-0.324468,0.48511499999999996,1.926909
1200,-686.350805,-244.87678300000002,66.346227,0.013793999999999999,0.026978,0.941421
1202,-899.122606,-221.43892599999998,122.194247,0.741711,-1.399191,1.9999689999999999
1204,-159.426261,5.065995,20.813306,-0.35925799999999997,-1.599145,1.9999689999999999
1206,330.083162,51.880674,-44.495308,-0.46302,1.176532,0.9194479999999999
1208,-21.911955,-45.716029999999996,77.210651,-0.43262399999999995,0.319585,0.127077
1210,127.13817,9.704738,48.462654,-0.072633,0.215335,0.41895200000000005
1212,81.971466,26.428626,33.569848,0.191897,0.386114,0.409308
1214,136.171511,18.005646,6.836042,0.181277,0.408942,0.9344629999999999
1216,165.651942,-0.9155409999999999,-12.939651,0.235843,0.394903,1.4253149999999999
1218,233.03578199999998,19.897765,-36.804761,0.176272,0.22558899999999998,1.5306629999999999
1220,274.601358,37.476158,-45.044633000000005,0.05139199999999999,-0.07434199999999999,1.305684
1222,301.457237,35.706111,-41.870756,0.12854200000000002,-0.170901,1.210224
1224,303.532464,43.21355,-46.143282,0.287846,-0.287114,1.373556
1226,296.269169,55.054551000000004,-66.590372,0.36939,-0.543709,0.99855
1228,246.03646899999998,64.637217,-80.81178,0.365606,-0.5672689999999999,1.207172
1230,225.345235,52.73518000000001,-93.812467,0.194339,-0.536751,1.576562
1232,201.358053,67.505913,-88.990616,-0.050660000000000004,-0.643442,1.9999689999999999
1234,245.731289,84.779126,-66.22415500000001,-0.15259,-0.76527,1.9999689999999999
1236,284.12298799999996,81.971466,-39.673457,0.159915,-0.823011,1.9869689999999998
1238,263.248646,82.70389899999999,-30.640116,0.45142299999999996,-0.794934,1.6225829999999999
1240,242.130159,69.703212,-37.59823,0.48963100000000004,-0.9120010000000001,1.5876709999999998
1242,220.035096,61.34126800000001,-32.043946000000005,0.020874,-1.508812,1.174456
1244,149.538415,57.25185,1.342794,0.310796,-2.0000310000000003,0.87892
1246,108.278019,92.896925,-22.827497,0.8264290000000001,-2.0000310000000003,0.002686
1248,5.249104,53.894865,7.934691,0.150515,-2.0000310000000003,-0.41809700000000005
1250,-42.1149,-82.52079,70.862898,0.000366,-1.072526,0.850355
1252,-199.52697,-74.952316,26.977951,0.303471,-0.42066099999999995,0.575204
1254,-114.56473600000001,-57.49599499999999,1.159686,-0.528695,1.0827799999999999,1.517479
1256,-276.310369,-65.796902,45.777066,-0.34363299999999997,-0.417121,0.15820599999999999
1258,-283.573663,-23.559929999999998,48.767834,1.2256049999999998,-0.171511,1.9999689999999999
1260,-68.299382,20.813306,-15.808347,-0.377691,0.00647,1.9999689999999999
1262,-43.335622,-51.270314,32.410163,-0.631601,-0.17761500000000002,0.77174
1264,-68.48249,-52.613108,25.452049,0.9432520000000001,0.048219,1.7965360000000001
1266,-35.034714,-43.579767,13.611048,-0.47571499999999994,0.0365,0.922499
1268,-48.82887,-45.593957,7.141222,0.35291100000000003,0.12365899999999999,1.3620809999999999
1270,-39.00206,-28.564889,0.854505,-0.119875,0.0448,1.006485
1272,-50.110628000000005,-21.484703,2.990768,0.095583,-0.0043950000000000005,1.28957
1274,-27.161059,-9.82681,-1.037613,0.074952,0.007568000000000001,1.082902
1276,-23.86511,-0.9155409999999999,2.014191,0.0094,0.0058590000000000005,1.0390780000000002
1278,-22.034028,2.014191,2.746624,0.020752,0.028443,1.026749
1280,-27.222095,2.197299,1.037613,0.000488,0.025269,0.9948879999999999
1282,-22.1561,2.624552,-1.037613,0.033448,-0.190555,0.898085
1284,-16.723888,2.746624,1.09865,-0.000366,-0.022827,1.056657
1286,-10.498207,3.051804,1.2207219999999999,-0.022216999999999997,-0.019165,0.999771
1288,-8.911269,1.40383,0.793469,-0.013062,-0.022705,1.0205229999999998
1290,-6.164645,1.525902,1.464866,-0.011231,-0.022705,1.0205229999999998
1292,-5.61532,1.09865,2.075227,-0.017456,-0.022705,0.99379
1294,-9.277485,0.122072,2.075227,-0.018189,-0.013062,0.980728
1296,-11.23064,-1.586938,2.014191,-0.003052,-0.031006,0.993301
1298,-9.582666,-2.746624,2.014191,-0.016846,-0.046998000000000005,1.010758
1300,-6.042573,-3.234913,1.8310830000000002,-0.015625,-0.025635,0.976699
1302,-10.986496,-4.638743,2.075227,0.0063479999999999995,-0.035035000000000004,1.008316
1304,-10.559242999999999,-2.685588,2.2583349999999998,0.018555000000000002,-0.049317,1.0085600000000001
1306,-11.047532,0.793469,3.418021,0.005371,-0.004761,1.004532
1308,-14.282444,1.464866,3.784237,0.006226,-0.051759000000000006,0.997452
1310,-16.174563,2.319371,4.028382,-0.010986,-0.015991,0.949844
1312,-30.334936,1.037613,4.943923000000001,-0.014893,-0.043336,1.006119
1314,-27.466239,0.48828900000000003,4.21149,-0.029419,-0.059815,0.988907
1316,-27.527276,-1.09865,4.699779,0.002441,-0.06775,0.9980620000000001
1318,-27.344167,-1.281758,5.0049589999999995,-0.006958,-0.085328,1.013565
1320,-27.222095,-4.577707,3.90631,0.014405000000000001,-0.06652899999999999,0.985367
1322,-32.043946000000005,-6.164645,0.122072,0.017823,-0.087282,1.0918139999999998
1324,-32.532235,-4.028382,-2.197299,-0.025757,-0.091188,0.9896389999999999
1326,-39.429313,-5.61532,-2.624552,-0.020386,-0.088258,1.009781
1328,-36.438544,-2.746624,-9.52163,-0.001221,-0.161746,0.9587549999999999
1330,-50.904097,-5.0049589999999995,-28.015564,-0.041871,-0.204715,1.047623
1332,-39.429313,2.197299,-27.038987,0.088624,-0.379889,1.047623
1334,-44.983596999999996,-5.0049589999999995,-13.061722999999999,0.05139199999999999,0.023926,0.953384
1336,-112.916762,-5.676356,-17.090104999999998,0.057617999999999996,-0.11096400000000001,0.882704
1338,-107.789731,-5.737392,-12.573433999999999,-0.014893,0.226688,0.7528189999999999
1340,-318.608377,-19.592584,-20.325017000000003,0.15552,0.748302,1.4066379999999998
1342,-573.9833679999999,-99.671931,24.353399,-0.28870100000000004,-0.15149200000000002,1.0842450000000001
1344,-691.050584,-166.872663,52.185855,-0.006714,-0.318486,0.663706
1346,-715.770199,-93.690394,200.198367,-0.6789649999999999,-0.521004,1.9999689999999999
1348,244.20538599999998,-17.578393,-9.82681,-0.330571,0.68043,1.9999689999999999
1350,4.699779,-1.159686,45.288777,-0.453376,0.622202,1.157366
1352,114.259556,7.6905470000000005,37.842374,-0.152224,0.27771399999999996,0.746838
1354,80.018311,-6.71397,34.302281,0.067262,0.30554699999999996,0.678355
1356,136.04943899999998,2.319371,9.82681,0.129152,0.347173,0.770642
1358,152.52918300000002,-3.6011290000000002,-6.2867169999999994,0.046143,0.255985,0.976211
1360,184.08483999999999,-7.263294,-15.442129999999999,-0.067018,0.179202,1.214374
1362,230.045014,-3.1128400000000003,-16.601816,-0.17663800000000002,0.0636,1.550317
1364,276.859693,10.742351,-10.193027,-0.223514,-0.152224,1.519432
1366,305.05836600000004,12.390326,-0.854505,-0.08142200000000001,-0.281498,1.25539
1368,305.729763,11.963073,-7.080186,0.1449,-0.30041999999999996,1.3629360000000001
1370,300.480659,35.217822999999996,-31.372549,0.172122,-0.5103840000000001,0.913588
1372,239.93286,64.148928,-48.645762,0.11902,-0.598642,0.460578
1374,161.806668,55.970092,-53.223468000000004,0.07727200000000001,-0.32092800000000005,1.991241
1376,209.475853,59.876402,-62.195772999999996,0.187503,-0.500984,1.9999689999999999
1378,258.85404700000004,85.755703,-84.290837,0.23743000000000003,-0.6540630000000001,1.539574
1380,229.43465299999997,78.553445,-85.32845,0.219852,-0.769299,1.9999689999999999
1382,242.98466499999998,82.276646,-84.046693,0.324468,-0.7618520000000001,1.615869
1384,238.16281400000003,64.51514499999999,-70.191501,0.170657,-0.886244,1.514061
1386,216.67811099999997,50.110628000000005,-39.246204,-0.193973,-1.223041,1.385031
1388,186.465248,42.786297,5.249104,-0.215946,-1.7212180000000001,0.8250860000000001
1390,109.37666899999999,58.533607999999994,16.540779999999998,0.46533900000000006,-2.0000310000000003,0.451301
1392,46.448463000000004,99.000534,-1.70901,0.349615,-2.0000310000000003,-0.088014
1394,-41.260395,12.817578,51.63653,-0.041505,-1.696681,0.200809
1396,-155.092699,-131.715877,65.491722,1.010391,-1.270893,-0.403082
1398,-100.70954499999999,-49.134051,29.541465999999996,-0.332158,0.867201,1.543725
1400,-222.537575,-94.30075500000001,62.439918000000006,-0.204715,-0.031495,-0.153811
1402,-270.38986800000004,-72.999161,75.257496,1.070573,0.075685,1.9999689999999999
1404,-129.03028899999998,0.366217,2.319371,1.538476,-0.161868,1.9999689999999999
1406,-107.972839,33.69192,-13.733120000000001,-1.359518,-0.211917,1.9999689999999999
1408,-55.115587,-69.459068,41.626612,-0.203861,0.19971,1.0316319999999999
1410,-46.570535,-37.232013,11.291675999999999,0.329961,0.046143,1.562524
1412,-38.513771000000006,-58.10635500000001,11.718929,-0.026489999999999996,0.132692,1.115984
1414,-43.152514000000004,-28.625925,2.563516,-0.000244,-0.041871,1.167498
1416,-21.850919,-26.428626,-1.8310830000000002,0.107179,0.11511400000000001,1.031876
1418,-32.959487,-11.108568,0.9155409999999999,0.012695999999999999,0.045655,1.1101239999999999
1420,-25.146867999999998,-0.854505,2.80766,0.05835,0.043702,1.058244
1422,-19.287404000000002,3.845274,4.760815,0.060548000000000005,0.029541,1.025528
1424,-23.437858,7.9957270000000005,4.272526,0.011719,0.013184,1.034684
1426,-20.630198,6.2867169999999994,2.319371,0.010498,0.032715,1.000504
1428,-14.282444,7.751583,2.50248,0.018799,-0.00647,1.057145
1430,-10.437171000000001,10.437171000000001,3.723201,-0.008667,0.00061,1.013077
1432,-11.108568,8.667124000000001,2.929732,-0.010498,0.0070799999999999995,1.007584
1434,-6.897078,7.751583,1.037613,-0.011840999999999999,-0.013916,1.019425
1436,-5.859464,7.080186,0.549325,-0.017212,-0.000244,1.003555
1438,-4.21149,6.775005999999999,0.854505,-0.017823,-0.01648,1.0207680000000001
1440,-1.281758,5.432212,0.976577,-0.044068,0.028808999999999998,0.9472799999999999
1442,-9.52163,-0.732433,0.183108,-0.039429,0.004273,0.9681540000000001
1444,-9.338521,-2.990768,-0.6103609999999999,-0.028199000000000002,-0.035035000000000004,1.012589
1446,-9.887846000000001,-4.089418,-0.244144,-0.029419,-0.02295,1.009903
1448,-10.131991000000001,-4.333562000000001,0.30518,-0.014159999999999999,-0.012451,1.005264
1450,-11.23064,-1.8310830000000002,0.122072,-0.018555000000000002,-0.011597,0.994034
1452,-16.418708,-3.173877,1.2207219999999999,-0.016846,-0.011597,0.9552149999999999
1454,-22.278172,-5.432212,2.197299,-0.026978,-0.021241,0.977798
1456,-24.414435,-6.042573,3.234913,-0.02002,-0.011597,0.969131
1458,-31.860838,-5.249104,4.943923000000001,-0.003906,-0.053346000000000005,1.026383
1460,-27.893492,-3.784237,3.356985,0.0021969999999999997,-0.021363,1.000992
1462,-33.69192,-4.272526,1.8310830000000002,-0.035279000000000005,-0.028199000000000002,0.976822
1464,-37.842374,-9.155413000000001,-1.281758,-0.073732,-0.037598,0.886244
1466,-53.467613,-11.291675999999999,0.122072,-0.041260000000000005,-0.08142200000000001,1.008682
1468,-50.415808,-1.647974,-0.854505,-0.008911,-0.088746,1.023209
1470,-46.936751,0.427253,-9.216449,-0.035889,-0.129641,0.921401
1472,-61.890593,-1.281758,-30.151827,-0.11816600000000001,-0.136477,1.061051
1474,-55.725947999999995,3.173877,-27.100022999999997,0.167605,-0.413092,1.042618
1476,-48.340581,-4.577707,-22.888533,0.017334,0.033569999999999996,1.000381
1478,-108.5832,-1.464866,-12.207218,0.103395,0.059083000000000004,0.898329
1480,-161.867704,7.2022580000000005,-41.199359,0.20056500000000002,0.833997,1.058732
1482,-549.568933,24.109254999999997,4.028382,-0.088869,0.637705,1.9999689999999999
1484,-676.27985,-5.127031,39.124132,-0.022095,-0.395392,0.984756
1486,-870.191501,-55.115587,106.56900900000001,-0.738537,-1.908843,1.9999689999999999
1488,11.352712,-105.592432,-27.649348,-0.680064,0.157107,1.9999689999999999
1490,25.329976000000002,-77.332723,-2.80766,-0.318608,0.804578,1.9999689999999999
1492,92.04241999999999,-14.343481,33.569848,-0.241215,0.482918,1.4695049999999998
1494,106.69108100000001,-2.868696,20.141909,-0.16199000000000002,0.381231,0.6965439999999999
1496,157.65621399999998,-5.127031,11.963073,-0.065553,0.278935,0.7323109999999999
1498,165.285725,-7.080186,4.21149,0.028321,0.25610700000000003,0.935317
1500,203.73846,-2.4414439999999997,-12.573433999999999,0.075929,0.26001399999999997,1.009659
1502,234.31753999999998,0.0,-25.085832,-0.0070799999999999995,0.138308,1.214862
1504,267.277028,6.042573,-31.494621000000002,-0.099733,-0.013428,1.312886
1506,295.53673599999996,16.235599,-30.029754999999998,-0.126345,-0.151003,1.2954299999999999
1508,304.99733,24.475471,-29.785611,-0.028564999999999997,-0.272221,1.0907149999999999
1510,272.526131,55.420768,-39.30724,0.05127,-0.520882,0.590341
1512,200.44251200000002,63.050278000000006,-43.762875,0.077516,-0.3794,1.371359
1514,211.18486299999998,41.016251000000004,-55.054551000000004,0.17847000000000002,-0.356695,1.9999689999999999
1516,260.440986,76.661326,-74.036774,0.165042,-0.6499119999999999,1.976959
1518,234.80582900000002,70.37460899999999,-70.679789,-0.031983,-0.818372,1.9999689999999999
1520,269.047074,72.083619,-65.247578,0.090211,-0.788586,1.9999689999999999
1522,268.07049700000005,76.661326,-58.289464,0.064942,-0.835584,1.625513
1524,250.492103,56.397344999999994,-46.143282,0.0037840000000000005,-0.921035,1.6036620000000001
1526,234.37857599999998,67.811093,-39.551384999999996,-0.01001,-1.127214,1.235126
1528,187.380789,88.197147,-27.710384,-0.068482,-1.546044,0.790417
1530,115.724422,107.789731,-12.695506,0.146731,-2.0000310000000003,0.544076
1532,56.397344999999994,107.789731,4.150454,0.21911999999999998,-2.0000310000000003,0.215579
1534,-3.6621650000000003,17.395285,40.588998,0.053346000000000005,-1.660548,-0.197879
1536,-237.00312799999998,-208.560311,94.361791,0.7580680000000001,-1.63125,-0.48999799999999993
1538,-96.49805400000001,-146.48661,35.034714,0.055665,1.152728,1.9999689999999999
1540,-223.636225,-125.978485,82.21561,-0.023438,0.08618300000000001,-0.538949
1542,-308.781567,-97.962921,80.018311,1.152239,-0.08105599999999999,1.9999689999999999
1544,-111.207752,-26.062409,4.577707,1.022843,-0.089479,1.8154569999999999
1546,-162.05081299999998,2.868696,17.212177,-1.044083,-0.286625,1.6347909999999999
1548,-109.62081299999998,-85.69466700000001,59.63225799999999,-0.276493,-0.095827,0.9248190000000001
1550,-88.13611,-47.241932,12.512398,0.922744,-0.10852200000000001,1.2843209999999998
1552,-92.896925,-57.434957999999995,18.310826000000002,-0.199466,0.14441099999999998,1.2477
1554,-39.978637,-27.893492,-2.868696,-0.04419,-0.044068,1.314351
1556,-12.817578,-21.118485999999997,-3.723201,0.142336,0.024413999999999998,1.017105
1558,-22.705425,-13.183795000000002,1.40383,0.039673,-0.038452999999999994,1.11342
1560,-19.836728,0.122072,3.234913,0.047852,0.025879000000000003,1.034195
1562,-16.540779999999998,0.122072,3.90631,0.075563,0.020630000000000003,1.0091709999999998
1564,-15.320058,-2.868696,2.80766,0.020386,0.011719,1.001846
1566,-25.452049,-3.418021,-0.854505,0.022827,-0.032715,1.025284
1568,-13.427939000000002,-0.48828900000000003,0.48828900000000003,0.07422000000000001,-0.042725,1.0553139999999999
1570,-8.972305,3.6621650000000003,2.319371,0.040527999999999995,-0.047486,1.025895
1572,-7.6905470000000005,4.5166699999999995,2.380407,0.031617,-0.037232,1.0037989999999999
1574,-9.948882000000001,3.418021,1.342794,0.029664,-0.027344,0.996475
1576,-11.535821,1.464866,0.183108,0.040772,-0.085573,0.958267
1578,-10.620279,0.6103609999999999,0.30518,0.026612,-0.062013,1.013565
1580,-7.2022580000000005,0.0,1.342794,0.005737,-0.037964,1.010513
1582,-6.469825,-2.380407,0.122072,0.015381,-0.039063,0.9991610000000001
1584,-4.8218510000000006,-4.943923000000001,-0.854505,0.01355,-0.024781,0.961563
1586,-12.268253999999999,-6.775005999999999,-1.464866,0.026856,-0.044433999999999994,0.988296
1588,-8.972305,-6.652933999999999,-0.244144,0.050294,-0.032837,1.007584
1590,-14.343481,-3.784237,-0.427253,0.060426,-0.062623,1.029191
1592,-12.573433999999999,-0.854505,0.183108,0.049194999999999996,-0.070924,1.00441
1594,-14.770732999999998,-0.793469,0.244144,0.007568000000000001,-0.084352,1.047501
1596,-10.925460000000001,-2.50248,-0.976577,0.032349,-0.033569999999999996,0.9741360000000001
1598,-16.479744,-2.746624,-1.40383,0.042481,-0.053346000000000005,1.008316
1600,-19.34844,0.854505,2.685588,0.054932,-0.106325,1.0150299999999999
1602,-19.409476,2.624552,5.432212,0.008789,-0.086671,1.006851
1604,-22.522316,-0.366217,1.2207219999999999,0.031617,0.01294,0.95436
1606,-49.439231,-0.732433,-6.530861,0.015015,-0.048585,0.979873
1608,-43.579767,0.366217,-9.460594,0.04004,-0.119753,1.0639809999999998
1610,-37.048905,5.0049589999999995,-13.061722999999999,-0.049561,-0.081788,1.002579
1612,-40.955215,4.272526,-28.625925,0.049073,-0.057617999999999996,1.028458
1614,-27.405203000000004,9.887846000000001,-13.305867000000001,0.22375799999999998,-0.31873,1.034806
1616,-28.137635999999997,22.034028,19.226368,0.020630000000000003,0.023926,0.9896389999999999
1618,-113.282979,30.334936,-0.9155409999999999,-0.000977,0.26978,0.897719
1620,-150.576028,-15.686275,6.591897,-0.221439,0.17541800000000002,0.833875
1622,-374.334325,-23.559929999999998,-47.791257,-0.18677,-0.085939,1.6854509999999998
1624,-598.336767,-190.920882,28.992141999999998,-0.144533,-0.198734,1.031266
1626,-754.5281150000001,-197.512779,72.816052,0.47803500000000004,-0.326909,1.250263
1628,-450.38529000000005,-63.721675,96.742199,-0.629282,-0.330449,1.9999689999999999
1630,356.20660699999996,43.640803000000005,-80.689708,-0.451301,1.156268,1.9999689999999999
1632,28.870069,-21.667811,3.723201,-0.53846,0.43091499999999994,0.143191
1634,100.03814799999999,1.8310830000000002,2.014191,-0.316777,0.008789,0.413214
1636,86.30502800000001,15.869383,3.234913,-0.060303999999999996,0.383917,0.501717
1638,135.561151,24.048219,-11.596857,-0.026123,0.335943,0.98146
1640,159.914549,23.193713,-18.493935,-0.06067,0.345953,1.215595
1642,209.536889,34.607462,-23.620966,-0.12365899999999999,0.132937,1.267842
1644,240.97047400000002,44.007019,-16.113526999999998,-0.104128,-0.001953,1.387472
1646,272.40405899999996,55.420768,-12.695506,0.279057,-0.05139199999999999,1.605615
1648,299.07682900000003,87.891966,-38.513771000000006,0.484382,-0.302007,1.658106
1650,311.345083,93.629358,-59.937438,0.48352799999999996,-0.592538,1.1631040000000001
1652,271.061265,80.81178,-67.811093,0.315923,-0.82594,0.699596
1654,214.90806400000002,52.67414399999999,-65.247578,0.124636,-0.6789649999999999,0.624887
1656,144.350347,33.997101,-51.026169,-0.059327,-0.404547,1.9999689999999999
1658,205.874723,61.280232,-41.199359,-0.159426,-0.5477380000000001,1.9999689999999999
1660,241.947051,96.803235,-21.728847000000002,-0.236942,-0.7479359999999999,1.8921189999999999
1662,230.838483,108.88838,6.591897,-0.05712999999999999,-0.7744260000000001,1.4559549999999999
1664,202.151522,112.12329299999999,24.170291,0.17663800000000002,-0.741711,1.641993
1666,203.18913600000002,94.30075500000001,31.311513,0.272221,-0.960464,1.419944
1668,176.211185,70.130465,29.358358000000003,0.373541,-1.3629360000000001,1.004166
1670,124.20843799999999,76.478218,-7.385367,0.84535,-1.938018,1.175433
1672,123.048753,133.058671,-56.092164000000004,0.471199,-2.0000310000000003,-0.308232
1674,-63.782712,-37.109941,1.7700470000000001,-0.34973699999999996,-1.964141,-2.0000310000000003
1676,-219.119554,-234.256504,49.683375,0.8576790000000001,-1.3351030000000002,0.501839
1678,-116.88410800000001,-92.16449200000001,19.897765,-0.6989850000000001,0.800061,1.9999689999999999
1680,-228.64118399999998,-101.25886899999999,67.444877,-0.178836,-0.123537,-0.05651900000000001
1682,-282.10879700000004,-77.882048,78.919661,1.36611,-0.118898,1.9999689999999999
1684,-130.92240800000002,12.573433999999999,-3.90631,0.9116350000000001,0.02002,1.695216
1686,-180.78889099999998,-23.743038000000002,23.254749,-1.6703139999999999,-0.79823,1.946075
1688,-42.053864000000004,-99.549859,27.344167,1.564355,0.362066,1.9999689999999999
1690,-56.092164000000004,0.793469,-0.366217,-0.776867,-0.10315099999999999,1.0188139999999999
1692,-27.588312,-36.621653,3.784237,0.318975,0.095827,1.241596
1694,-36.682689,-25.757229000000002,-0.30518,-0.07361000000000001,-0.122927,1.18703
1696,-33.813992999999996,-19.287404000000002,-1.2207219999999999,0.056275,0.023194,1.037736
1698,-11.169604,-13.122759,-0.6103609999999999,0.074952,-0.010742,1.034195
1700,-25.879301,-9.155413000000001,1.7700470000000001,-0.007568000000000001,-0.024413999999999998,1.058122
1702,-17.212177,-5.371176,1.342794,0.027832,-0.026733999999999997,1.031998
1704,-10.986496,-4.089418,0.0,0.007812999999999999,-0.019409,1.007706
1706,-15.197985999999998,-5.0049589999999995,-0.549325,0.0043950000000000005,-0.052490999999999996,1.047379
1708,-7.2022580000000005,-2.80766,0.366217,0.035889,-0.053956,1.031266
1710,-2.319371,0.244144,1.2207219999999999,0.02002,-0.026612,1.001968
1712,-6.164645,-0.366217,1.2207219999999999,0.013672,0.002075,0.9549709999999999
1714,-14.465553,-1.2207219999999999,0.793469,0.023438,-0.040894,0.9914700000000001
1716,-15.625238000000001,-0.549325,0.671397,0.022216999999999997,-0.012573,0.979141
1718,-17.639429,0.671397,0.732433,0.026733999999999997,-0.06006,1.023819
1720,-15.014878,0.427253,0.0,0.0037840000000000005,-0.045167,1.0040440000000002
1722,-15.259022,-1.037613,-0.976577,0.003906,-0.038819,0.9785309999999999
1724,-22.1561,-0.6103609999999999,-2.685588,0.033936,-0.077516,1.036027
1726,-14.831769,4.760815,-1.40383,0.046265,-0.092775,1.048844
1728,-8.850233,7.873655,1.037613,0.027222000000000003,-0.092775,1.037736
1730,-5.0049589999999995,8.300908,1.8921189999999999,0.007812999999999999,-0.10461600000000001,1.031388
1732,-0.061036,5.0049589999999995,1.09865,-0.025025,-0.061279999999999994,0.963516
1734,-3.234913,0.976577,0.244144,-0.000366,-0.054077999999999994,0.96791
1736,-11.963073,1.037613,-0.427253,0.015503,-0.056641,1.0000149999999999
1738,-12.939651,3.295949,1.70901,0.021729,-0.084108,1.018082
1740,-10.803388,3.723201,2.4414439999999997,-0.007201999999999999,-0.099611,1.023087
1742,-8.239872,1.953155,2.136263,-0.019287000000000002,-0.095827,0.9984280000000001
1744,-6.652933999999999,-3.234913,0.427253,-0.008179,-0.082643,0.983902
1746,-7.446403,-6.408789,-2.014191,-0.0028079999999999997,-0.084108,0.98854
1748,-7.263294,-6.897078,-2.80766,0.016236,-0.10071000000000001,1.0208899999999999
1750,-5.9205,-4.455634,-1.8310830000000002,0.029541,-0.11718900000000002,1.0483559999999998
1752,-2.80766,-2.136263,-0.732433,0.018677000000000003,-0.091066,1.0095370000000001
1754,-2.990768,-1.342794,-0.122072,0.0,-0.062989,0.965347
1756,-15.869383,0.6103609999999999,1.40383,0.012695999999999999,-0.076173,0.97377
1758,-19.958801,4.150454,3.051804,0.023316,-0.07361000000000001,0.9907379999999999
1760,-26.550697999999997,6.530861,5.9205,0.010498,-0.084352,1.000748
1762,-29.419394,8.239872,6.469825,0.001099,-0.084596,0.9868309999999999
1764,-31.067369,8.850233,0.0,-0.031373000000000005,-0.068605,0.9663229999999999
1766,-38.208591,3.356985,-14.343481,-0.10620299999999999,-0.099001,1.043107
1768,-40.161746,-0.30518,-37.232013,0.029297000000000004,-0.263676,1.116838
1770,-42.664225,-8.056764,-20.386053,0.016358,-0.003052,0.9154190000000001
1772,-83.55840400000001,0.244144,-8.545052,0.054565999999999996,0.038575,0.9049209999999999
1774,-119.447623,-1.7700470000000001,-8.728161,-0.006226,-0.22986199999999998,1.0632489999999999
1776,-179.201953,-5.432212,-11.779964999999999,0.073121,-0.002686,0.9035780000000001
1778,-274.41825,-21.484703,0.732433,-0.029541,-0.328252,1.176776
1780,-312.626841,-87.281605,9.277485,-0.286992,-0.186282,0.8365610000000001
1782,-350.591287,-158.937972,40.10071,0.052735000000000004,0.023316,1.8729529999999999
1784,-260.563058,-93.629358,82.03250200000001,-0.6576029999999999,0.104005,1.9999689999999999
1786,244.20538599999998,40.344854,-24.292363,-0.276738,0.677623,1.012833
1788,31.067369,21.850919,33.630884,-0.296513,-0.025147,0.287236
1790,130.7393,16.540779999999998,31.372549,-0.091066,0.19202,0.5096510000000001
1792,133.60799599999999,1.586938,28.137635999999997,0.09485,0.170047,1.094133
1794,173.403525,23.376822,2.075227,0.15027100000000002,0.150393,1.030411
1796,199.710079,38.574807,-18.616007,0.074464,-0.004028,0.6731060000000001
1798,194.705119,28.564889,-21.972992,-0.105104,-0.213993,0.838758
1800,196.71931,21.850919,-7.507439,-0.264897,-0.382696,1.223163
1802,210.14725,33.569848,10.742351,-0.200076,-0.553475,1.4382540000000001
1804,216.311894,49.622339000000004,25.26894,-0.10852200000000001,-0.734874,1.218891
1806,192.385748,59.571220999999994,39.063096,0.139651,-0.911025,0.898207
1808,151.247425,51.148241,44.068055,0.369268,-0.902358,0.944961
1810,124.87983500000001,34.851606,26.611734000000002,0.5078199999999999,-0.674327,0.792859
1812,82.154574,15.075914000000001,3.6011290000000002,0.338018,-0.570443,1.0057530000000001
1814,62.623026,7.263294,-10.620279,-0.026489999999999996,-0.704967,1.1179370000000002
1816,40.588998,26.184482,-11.596857,-0.21814299999999998,-0.87892,0.607309
1818,-140.077821,-132.265202,44.373236,-0.008301000000000001,-1.3770959999999999,0.39014299999999996
1820,-144.228275,-16.418708,-7.751583,1.2047299999999999,-1.973175,1.9999689999999999
1822,187.07560800000002,39.063096,-48.82887,-0.405524,0.647593,0.140993
1824,-152.895399,-22.644388,20.080873,-0.05285700000000001,0.389532,0.916884
1826,-7.507439,3.173877,-1.2207219999999999,-0.059204999999999994,-0.024291999999999998,1.2749219999999999
1828,-11.108568,-5.371176,-0.183108,-0.069093,0.055787,0.972915
1830,-17.822538,-5.493248,0.671397,-0.031617,0.002686,1.048844
1832,-12.085144999999999,-6.71397,-0.366217,-0.021118,0.016846,1.00502
1834,-6.591897,-4.8218510000000006,-0.427253,-0.008057,0.0043950000000000005,1.036149
1836,-3.540093,-2.4414439999999997,0.061036,-0.014159999999999999,0.025635,1.014176
1838,-5.432212,-2.014191,0.183108,-0.028808999999999998,0.027710000000000002,0.994034
1840,-4.699779,-2.136263,0.366217,-0.018067,0.016968,0.999893
1842,-4.882887,-2.136263,-0.366217,-0.0271,0.009644,0.9939120000000001
1844,-5.127031,-2.50248,0.0,-0.012573,0.010131999999999999,1.0247959999999998
1846,-4.089418,-1.281758,0.0,-0.007201999999999999,0.028199000000000002,0.988418
1848,-3.540093,0.427253,0.30518,-0.045045,0.057862000000000004,1.045182
1850,-8.1178,-0.854505,0.549325,-0.032471,-0.016724,0.9752350000000001
1852,-5.7984279999999995,-2.197299,-0.183108,-0.024537,0.000732,1.000992
1854,-2.624552,-1.8921189999999999,-0.427253,-0.008423,0.009033,1.012833
1856,-0.366217,-0.366217,0.0,-0.015381,-0.0070799999999999995,1.015885
1858,-1.586938,-0.549325,0.122072,-0.015381,0.02002,0.978775
1860,-3.1128400000000003,-1.037613,0.244144,-0.007201999999999999,0.010986,1.003433
1862,-3.784237,-0.6103609999999999,0.427253,-0.025757,0.003906,1.00148
1864,-2.80766,-0.732433,0.122072,-0.02002,-0.002441,1.015763
1866,-0.6103609999999999,-0.549325,0.0,-0.018311,-0.00293,1.013321
1868,-0.122072,-0.9155409999999999,0.0,-0.016968,0.016358,0.977676
1870,-4.943923000000001,-2.746624,-0.30518,-0.024781,0.028564999999999997,0.961074
1872,-8.972305,-3.90631,-0.793469,-0.013062,-0.008911,1.014786
1874,-5.3101400000000005,-3.723201,-0.732433,-0.012329000000000001,-0.008789,1.016373
1876,-3.418021,-3.173877,-0.6103609999999999,-0.01648,-0.0023190000000000003,1.001846
1878,-3.967346,-3.295949,-0.976577,-0.001953,-0.011963,1.022721
1880,-0.976577,-1.464866,-0.732433,0.008179,-0.015747,1.0204010000000001
1882,0.976577,0.671397,0.122072,-0.005737,-0.012695999999999999,1.0037989999999999
1884,1.7700470000000001,1.2207219999999999,0.061036,-0.0023190000000000003,-0.005249,1.013199
1886,3.356985,1.342794,-0.30518,-0.009276999999999999,-0.006836,1.013565
1888,3.90631,1.342794,-0.549325,-0.005249,-0.012573,1.019059
1890,6.164645,2.746624,-0.30518,-0.003296,-0.017578,1.033829
1892,10.864424,4.333562000000001,0.122072,-0.014159999999999999,0.0,1.0048979999999998
1894,10.864424,4.028382,0.0,-0.013916,0.006836,1.00148
1896,10.193027,2.929732,0.122072,-0.021973,0.013062,0.9939120000000001
1898,8.484016,1.525902,-0.122072,-0.030396,0.036988,0.961929
1900,3.234913,0.061036,-0.30518,-0.021851,0.015259,0.997574
1902,3.967346,-0.30518,-0.366217,-0.028808999999999998,0.024413999999999998,0.981827
1904,1.525902,-1.586938,0.122072,-0.025879000000000003,0.027832,0.972671
1906,-0.061036,-2.2583349999999998,0.183108,-0.014527000000000002,0.028443,0.958145
1908,-4.577707,-2.563516,-0.30518,-0.021606999999999998,0.029541,0.98146
1910,2.746624,-0.9155409999999999,-0.6103609999999999,-0.003296,-0.007201999999999999,1.065446
1912,1.281758,-0.6103609999999999,-0.30518,-0.037842,0.054565999999999996,0.9713280000000001
1914,-4.333562000000001,-4.943923000000001,-1.159686,0.01648,0.01355,1.0095370000000001
1916,-0.976577,-1.7700470000000001,0.0,0.005493,-0.029419,1.067887
1918,9.704738,2.746624,0.854505,-0.016846,0.046021,0.979751
1920,7.934691,3.234913,0.48828900000000003,-0.008545,0.029419,0.9969629999999999
1922,-1.8921189999999999,0.427253,0.183108,-0.05005,0.061769000000000004,0.924208
1924,-8.056764,-3.479057,-1.09865,-0.01355,0.053467999999999995,0.9481350000000001
1926,-9.82681,-1.159686,-0.854505,0.019165,-0.0271,1.069841
1928,-5.737392,2.50248,0.793469,-0.013428,-0.016724,1.044694
1930,2.197299,2.80766,-0.427253,0.020508000000000002,0.00647,1.041276
1932,-0.30518,4.5166699999999995,0.427253,-0.009644,0.020263999999999997,1.009659
1934,3.6621650000000003,6.225681,0.732433,-0.059083000000000004,0.073976,0.867201
1936,-11.23064,-2.746624,0.061036,-0.033326,-0.004761,1.000626
1938,-8.789197,-3.723201,-0.122072,0.00293,-0.052369000000000006,1.09572
1940,4.272526,-0.427253,0.0,-0.018067,0.032593000000000004,0.98024
1942,7.2022580000000005,-1.525902,0.0,-0.020630000000000003,0.021729,0.980972
1944,1.40383,-2.380407,0.244144,-0.032837,0.050416,0.931899
1946,-14.282444,-6.2867169999999994,0.0,-0.073732,0.020996,0.9589989999999999
1948,-10.986496,-9.460594,-2.50248,0.000122,-0.0094,1.017472
1950,-6.042573,-5.249104,-1.40383,0.011353,-0.011719,1.036271
1952,-4.8218510000000006,-2.2583349999999998,-0.244144,-0.001221,-0.014771000000000001,1.03151
1954,-2.50248,-1.525902,-0.30518,0.000366,0.021485,0.9803620000000001
1956,-6.164645,-2.197299,0.0,-0.008057,0.015137000000000001,0.979873
1958,-7.446403,-2.746624,-0.183108,-0.001343,-0.007691,1.026139
1960,-5.737392,-3.1128400000000003,-0.976577,-0.006958,0.001221,1.003922
1962,-3.540093,-2.746624,-1.037613,0.003418,-0.011840999999999999,1.0245520000000001
1964,-2.929732,-1.40383,-0.30518,-0.010131999999999999,-0.011231,0.9939120000000001
1966,-4.150454,-2.136263,-0.48828900000000003,-0.006958,0.002075,0.989273
1968,-4.150454,-2.319371,-0.549325,0.00061,-0.0058590000000000005,1.016251
1970,-3.479057,-0.671397,-0.183108,0.000122,-0.005249,1.0164950000000001
1972,-5.0049589999999995,-0.061036,-2.380407,-0.021241,-0.002686,0.983291
1974,-3.90631,-0.9155409999999999,-1.525902,-0.0021969999999999997,-0.019653999999999998,1.008438
1976,-1.70901,-0.427253,-0.671397,-0.0051270000000000005,-0.005615,0.98793
1978,-0.976577,-1.159686,-0.244144,-0.009522,-0.016358,0.9983059999999999
1980,-0.122072,-1.464866,-0.6103609999999999,0.007812999999999999,-0.017945,1.002579
1982,-0.244144,-0.366217,0.244144,0.0070799999999999995,-0.018921,1.0008700000000001
1984,1.70901,1.09865,0.122072,0.010131999999999999,-0.009644,1.010758
1986,1.7700470000000001,1.09865,0.183108,0.007812999999999999,-0.011840999999999999,1.003922
1988,5.249104,2.075227,0.244144,0.000488,-0.011840999999999999,0.999771
1990,5.9205,2.563516,0.671397,0.002564,0.003052,0.978042
1992,1.09865,1.464866,0.671397,-0.005615,-0.000122,0.9914700000000001
1994,-0.244144,0.732433,0.671397,-0.0021969999999999997,-0.003662,0.988785
1996,2.4414439999999997,0.732433,0.732433,0.027955,-0.011597,1.013931
1998,0.244144,0.183108,0.30518,-0.05285700000000001,-0.007201999999999999,1.022599
2000,-0.122072,-1.09865,0.549325,-0.032227,-0.018433,0.9867090000000001
2002,0.732433,-1.159686,-0.183108,-0.008789,-0.008179,0.9973299999999999
2004,-0.671397,-0.854505,-0.30518,-0.00061,0.0,0.9828030000000001
2006,-3.418021,-1.09865,-0.244144,-0.001465,-0.005615,0.992325
2008,-0.9155409999999999,-1.037613,0.061036,-0.001343,-0.0094,1.010636
2010,1.281758,-0.244144,0.244144,0.0015869999999999999,-0.011719,1.009659
2012,0.122072,-0.244144,-0.122072,-0.003906,-0.010131999999999999,1.000626
2014,-0.732433,-0.366217,-0.244144,-0.001465,-0.013184,1.002701
2016,0.976577,-0.244144,0.061036,-0.007201999999999999,-0.011597,0.99379
2018,3.6621650000000003,-0.48828900000000003,1.09865,0.004273,-0.010376,1.007706
2020,2.685588,0.30518,0.793469,-0.00293,-0.009644,0.9986719999999999
2022,0.671397,0.244144,0.061036,0.001221,-0.005249,1.008804
2024,-1.586938,0.061036,-0.183108,0.010498,-0.0037840000000000005,1.009293
2026,-0.366217,0.732433,0.0,-0.007201999999999999,-0.0094,1.000504
2028,2.2583349999999998,0.549325,0.0,-0.002441,0.0035399999999999997,0.9914700000000001
2030,1.342794,0.549325,-0.366217,-0.0035399999999999997,-0.004761,1.005264
2032,-1.464866,0.48828900000000003,-0.48828900000000003,-0.0031739999999999997,-0.005493,1.006241
2034,-2.197299,0.48828900000000003,0.0,-0.0094,-0.007201999999999999,1.00502
2036,0.549325,0.48828900000000003,-0.30518,-0.012818000000000001,-0.008179,1.001358
2038,2.014191,0.0,-0.366217,-0.002441,-0.012329000000000001,1.0078280000000002
2040,0.30518,0.122072,-0.122072,-0.005249,-0.009522,0.996109
2042,-0.48828900000000003,-0.30518,-0.30518,0.005249,0.01294,0.968032
2044,-3.173877,0.732433,-2.075227,-0.02002,-0.018555000000000002,1.029191
2046,-0.671397,0.122072,-0.427253,-0.007324,-0.008179,1.0196690000000002
2048,0.0,0.122072,-0.48828900000000003,-0.003052,-0.005371,0.99855
