Packet number,Gyroscope X (deg/s),Gyroscope Y (deg/s),Gyroscope Z (deg/s),Accelerometer X (g),Accelerometer Y (g),Accelerometer Z (g)
0,-0.488289,-0.244144,0.000000,0.000610,0.009033,1.004776
1,-0.366217,-0.183108,0.000000,-0.000610,0.004761,0.995865
2,-0.427253,-0.183108,0.061036,-0.004150,0.009766,0.996109
3,-0.366217,-0.305180,-0.122072,-0.002564,0.001831,1.006973
4,-0.183108,-0.366217,-0.183108,-0.000610,0.000610,1.006729
5,-0.305180,-0.427253,0.000000,-0.006592,0.000977,1.005386
6,0.244144,-0.305180,0.000000,-0.006470,0.006226,0.996353
7,0.427253,0.000000,-0.122072,-0.002197,0.004761,0.991592
8,-0.427253,-0.366217,0.000000,-0.003174,0.001343,0.997574
9,0.488289,-0.244144,-0.183108,0.002686,0.011841,0.987442
10,-0.915541,-0.488289,0.000000,-0.008545,0.007691,0.990372
11,-0.854505,-0.488289,-0.183108,-0.001465,0.008179,1.003311
12,-1.403830,-0.549325,-0.122072,-0.002197,0.010010,0.995377
13,-0.854505,-0.549325,0.000000,-0.001343,0.003052,1.006973
14,-0.976577,-0.549325,0.000000,-0.003906,0.006470,1.002335
15,-0.671397,-0.366217,0.000000,-0.003784,0.004273,1.005020
16,-0.488289,-0.427253,0.000000,0.000244,0.005005,1.004776
17,0.000000,-0.183108,-0.122072,-0.001099,0.008057,0.996475
18,-0.610361,-0.488289,0.000000,-0.003906,0.006348,0.995865
19,-0.305180,-0.366217,-0.122072,-0.003540,0.000977,0.998550
20,-0.366217,-0.488289,0.000000,-0.002930,0.010742,0.992203
21,-0.305180,-0.427253,-0.183108,-0.003418,0.003418,0.996841
22,-0.366217,-0.488289,-0.122072,0.001099,0.005859,0.991836
23,-0.854505,-0.549325,-0.122072,-0.003540,0.009277,0.991592
24,-1.464866,-0.610361,0.000000,-0.004761,0.005371,0.994400
25,-1.586938,-0.610361,0.000000,-0.001709,0.000366,1.007095
26,-0.610361,-0.366217,0.000000,-0.003418,0.005005,0.998672
27,-1.220722,-0.244144,0.000000,-0.004150,0.003784,1.000870
28,-0.549325,-0.244144,0.000000,0.000732,0.001953,1.000870
29,-0.610361,-0.183108,0.000000,-0.000977,0.006592,0.995865
30,-0.549325,-0.244144,0.000000,-0.003662,0.000855,1.001480
31,0.000000,0.000000,-0.122072,-0.000488,0.009644,1.008194
32,0.000000,0.000000,0.000000,-0.001831,0.006104,0.997574
33,-0.122072,-0.183108,0.000000,-0.002686,0.003662,0.999527
34,-0.366217,-0.427253,-0.122072,0.000122,0.004639,1.003555
35,0.244144,-0.183108,0.000000,-0.002808,0.007935,1.000137
36,-0.427253,-0.366217,0.000000,0.000488,0.005249,1.000381
37,-0.061036,-0.183108,0.000000,-0.005249,0.006958,1.005020
38,-0.305180,-0.305180,0.000000,-0.000855,0.005493,0.997330
39,0.122072,-0.183108,0.000000,-0.004639,0.006470,0.997574
40,-0.671397,-0.427253,0.000000,-0.006714,0.009766,1.000137
41,-0.366217,-0.366217,0.000000,-0.004517,-0.001709,1.004898
42,0.000000,-0.366217,0.061036,-0.000122,0.000855,1.007340
43,0.183108,-0.244144,0.122072,-0.005737,-0.000855,1.005631
44,0.854505,-0.366217,0.061036,-0.005371,0.003418,1.005875
45,0.976577,-0.244144,0.122072,0.005127,-0.003906,1.015274
46,2.685588,0.671397,-0.671397,-0.004395,-0.017823,1.029313
47,4.638743,-0.122072,0.000000,-0.003296,0.021973,0.999649
48,1.953155,-0.549325,0.122072,-0.000610,-0.002564,0.990372
49,4.150454,-0.427253,-0.183108,-0.004761,0.008179,1.002457
50,3.356985,-0.610361,0.000000,-0.007691,0.006104,0.998184
51,3.540093,-0.488289,-0.183108,0.021118,0.019043,1.018936
52,3.234913,0.854505,-0.671397,-0.010132,0.000244,0.999283
53,3.418021,0.671397,-0.793469,0.008667,-0.010376,1.020279
54,4.760815,1.586938,-0.366217,0.002075,0.006714,1.001846
55,6.286717,1.647974,-0.366217,-0.032349,0.011597,0.973159
56,2.929732,-0.305180,0.000000,-0.015015,0.023926,0.969009
57,2.380407,-1.098650,0.000000,-0.000244,0.018433,0.988907
58,2.075227,-1.464866,-0.122072,-0.013428,0.017212,0.993423
59,2.441444,-2.136263,-0.244144,-0.001709,0.016602,0.991714
60,2.197299,-2.014191,-0.305180,0.001587,0.015747,0.997452
61,1.647974,-1.770047,-0.122072,0.006348,0.006470,1.021988
62,3.173877,-0.976577,-0.244144,0.004639,0.013672,1.018082
63,3.540093,-0.610361,-0.183108,-0.000855,0.013550,1.018204
64,4.516670,-0.122072,-0.122072,0.007935,0.021973,1.013565
65,5.127031,0.427253,0.000000,-0.009033,0.022827,0.994034
66,5.920500,0.122072,-0.183108,-0.013062,0.036133,0.960342
67,2.258335,-1.220722,-0.122072,-0.018189,0.033204,0.966812
68,1.037613,-1.953155,-0.183108,-0.002075,0.023926,0.978286
69,-0.061036,-2.014191,-0.366217,-0.004150,0.015991,0.978653
70,0.244144,-2.197299,0.000000,0.005737,0.030884,0.996719
71,-0.061036,-1.586938,0.000000,0.009400,0.023804,1.002823
72,0.366217,-0.915541,-0.183108,0.007691,0.020630,1.011734
73,0.854505,-0.244144,-0.183108,0.009888,0.025879,0.999649
74,0.427253,0.244144,0.000000,-0.000977,0.010986,1.003677
75,0.793469,0.671397,0.305180,0.008789,0.015015,1.003922
76,2.014191,1.159686,0.427253,-0.007691,0.026368,0.987198
77,0.671397,0.427253,0.793469,-0.010742,0.024903,0.991714
78,1.586938,-0.244144,0.793469,-0.015625,0.027222,0.975113
79,0.244144,-1.281758,1.220722,-0.010132,0.019165,0.976333
80,0.427253,-2.197299,1.220722,-0.009644,0.027588,0.976089
81,-0.549325,-2.929732,1.525902,-0.012085,0.037354,0.961929
82,-2.075227,-4.272526,2.136263,-0.016114,0.024781,0.975601
83,-2.685588,-5.004959,1.892119,0.007202,0.011475,0.993545
84,-1.342794,-4.699779,1.709010,-0.005982,0.029664,0.954116
85,-3.845274,-5.676356,2.014191,-0.009033,0.036988,0.951797
86,-7.995727,-6.347753,2.685588,0.006470,0.008423,1.015274
87,-4.516670,-5.737392,2.319371,0.007446,0.008667,1.009781
88,-2.807660,-5.737392,2.075227,0.003784,0.027955,0.985122
89,-5.920500,-6.530861,2.136263,0.009644,0.019043,0.999283
90,-5.615320,-6.775006,2.014191,0.012085,0.000122,1.022477
91,-2.563516,-6.408789,1.647974,0.011353,0.011109,0.992935
92,-2.136263,-6.591897,1.220722,-0.003052,0.022950,0.974014
93,-5.127031,-7.812619,1.220722,0.017823,0.013916,1.008194
94,-3.234913,-7.751583,0.915541,0.011475,0.000855,1.019303
95,-0.732433,-7.568475,0.305180,0.023926,0.028565,0.966079
96,-4.211490,-7.873655,0.183108,0.012207,0.035889,0.985000
97,-4.943923,-7.446403,0.244144,0.035889,0.043702,0.990738
98,-6.713970,-6.469825,-0.305180,0.032227,0.024781,1.007950
99,-8.422980,-5.065995,0.244144,0.031739,-0.016846,1.068742
100,-2.685588,-2.563516,0.305180,0.040162,0.009400,1.029557
101,-3.173877,-1.220722,0.549325,0.019043,0.026490,0.995743
102,-5.188067,-1.464866,0.915541,0.011475,0.019654,0.994644
103,-5.310140,-1.709010,0.793469,0.015137,0.015503,0.993301
104,-5.615320,-2.380407,0.427253,0.012818,0.025757,0.976822
105,-8.239872,-3.112840,0.061036,0.005615,0.007691,0.993179
106,-8.239872,-3.540093,-0.122072,0.035401,-0.005737,1.018570
107,-5.432212,-2.319371,-0.427253,0.038819,0.006470,1.004532
108,-7.019150,-1.342794,-0.488289,0.038941,0.003296,1.015885
109,-6.225681,-0.061036,-0.305180,0.039185,-0.004395,1.023697
110,-5.065995,1.098650,0.000000,0.034668,0.003174,1.000259
111,-5.737392,2.319371,0.000000,0.037110,-0.000488,1.001480
112,-5.859464,3.051804,0.183108,0.030152,-0.001099,1.006119
113,-5.615320,3.845274,0.488289,0.025025,-0.005859,1.013077
114,-4.638743,4.516670,0.671397,0.022461,-0.011597,1.016617
115,-3.356985,4.882887,0.671397,0.017700,-0.000244,0.995987
116,-3.601129,4.638743,0.488289,0.014160,0.011841,0.982925
117,-6.408789,4.272526,0.183108,0.013428,-0.000366,1.003189
118,-5.432212,4.516670,0.061036,0.008667,-0.016968,1.013321
119,-4.028382,4.699779,0.183108,0.006836,-0.019654,1.016495
120,-1.831083,4.699779,0.305180,0.006104,-0.010132,1.003189
121,-1.464866,4.638743,0.122072,0.012818,-0.000732,0.987320
122,-3.173877,3.967346,0.305180,0.004028,0.000244,0.974990
123,-3.540093,3.173877,0.305180,0.000977,0.012573,0.957412
124,-7.934691,1.709010,0.671397,0.005982,-0.009644,0.986099
125,-6.286717,1.159686,0.488289,0.001587,-0.012696,0.989883
126,-6.775006,0.427253,0.366217,-0.001099,-0.004639,0.968154
127,-8.117800,-0.488289,0.183108,0.001831,-0.006348,0.990616
128,-8.361944,-1.159686,0.061036,0.010620,-0.009155,0.999405
129,-9.033341,-1.159686,0.000000,0.016480,-0.016602,1.001724
130,-8.422980,-1.342794,0.122072,0.007324,-0.017212,1.002945
131,-8.667124,-1.464866,0.183108,0.006592,-0.018067,0.987808
132,-9.094377,-1.525902,0.305180,0.018555,-0.025879,1.001724
133,-7.995727,-0.671397,0.488289,0.010864,-0.030396,0.999039
134,-8.178836,0.000000,0.976577,0.021241,-0.025269,0.999039
135,-8.361944,0.427253,1.342794,0.013306,-0.030884,0.995865
136,-10.254063,0.488289,1.709010,0.019409,-0.010620,0.955581
137,-12.146181,0.305180,2.014191,0.015137,-0.003174,0.977310
138,-15.564202,0.305180,2.136263,-0.008301,-0.022827,0.968521
139,-16.845960,-0.244144,2.380407,0.010254,-0.025635,0.984756
140,-16.845960,0.915541,2.563516,0.015625,-0.026001,1.012833
141,-17.883574,1.586938,2.929732,0.012940,-0.034913,0.997452
142,-16.662852,1.953155,3.051804,-0.000488,-0.016114,0.961563
143,-22.827497,0.793469,3.601129,0.015991,-0.016968,0.980484
144,-25.329976,0.000000,3.906310,-0.006348,-0.043702,0.978531
145,-26.428626,-1.709010,3.234913,0.000488,-0.035401,0.949599
146,-33.630884,-3.601129,3.356985,0.013428,-0.061158,0.997330
147,-32.166018,-2.746624,2.807660,0.052247,-0.060548,1.024918
148,-29.175250,0.061036,1.037613,0.031128,-0.051148,1.009537
149,-33.325704,1.647974,2.014191,0.021729,-0.067384,1.036759
150,-30.945296,2.380407,2.197299,0.001221,-0.061769,1.010147
151,-27.710384,4.089418,1.098650,0.016724,-0.050660,0.991592
152,-31.921874,3.173877,0.854505,-0.043091,-0.063600,0.961929
153,-31.189441,1.586938,2.014191,-0.018677,-0.046265,0.964126
154,-36.926833,1.159686,0.427253,-0.001953,-0.079835,0.975113
155,-36.316472,-0.061036,0.000000,-0.031617,-0.063966,1.010269
156,-34.241245,-0.488289,-4.028382,-0.032715,-0.073854,1.027359
157,-36.438544,-1.098650,-4.333562,-0.024903,-0.102785,0.989761
158,-35.828183,-1.159686,-4.821851,-0.033082,-0.096803,1.012589
159,-28.870069,-1.342794,-8.850233,0.013916,-0.094484,1.062760
160,-35.278859,-1.281758,-26.611734,-0.029786,-0.131960,0.961563
161,-42.481117,-1.281758,-24.170291,0.039796,-0.097047,1.053239
162,-51.575494,5.615320,-25.940337,0.071534,-0.170047,1.072160
163,-43.579767,6.836042,-9.948882,0.053223,-0.160159,1.079606
164,-46.875715,1.586938,-5.737392,0.004517,-0.139162,1.027237
165,-45.410849,-0.061036,-7.507439,0.031983,-0.077638,0.978531
166,-58.289464,3.967346,-8.789197,0.059449,-0.058350,0.948501
167,-63.904784,4.516670,-7.568475,0.057252,0.062257,0.906874
168,-92.042420,4.882887,-9.338521,0.033082,0.182132,0.912001
169,-152.773327,8.972305,-6.469825,0.078614,0.146120,0.954116
170,-219.546807,19.592584,2.319371,0.183230,0.173587,1.148577
171,-264.896620,54.932479,-17.273213,0.296269,0.146731,1.248310
172,-328.923476,75.196460,-18.432898,-0.036744,0.037110,1.641382
173,-374.334325,111.390860,-36.804761,0.547860,0.318486,1.999969
174,-411.688411,177.615015,-50.782025,0.449714,0.330327,1.650782
175,-505.256733,224.368658,-40.955215,0.214847,-0.098268,1.254292
176,-519.172961,231.265736,10.620279,-0.149050,-0.988418,1.489158
177,-600.411994,214.053559,63.538567,-2.000031,-0.006592,1.999969
178,-289.799344,41.565576,-59.510185,-1.471458,-1.753567,1.999969
179,145.082780,16.662852,0.854505,-1.188617,0.312016,1.999969
180,76.478218,-10.864424,28.564889,-0.430671,0.762707,1.426902
181,-61.463340,-40.100710,89.051652,-0.076295,0.606821,0.976944
182,1.464866,-31.738766,73.243305,0.356329,0.408331,0.816297
183,53.589685,-10.009918,31.006332,0.500008,0.613291,0.560311
184,13.122759,-2.075227,11.963073,0.574716,0.605844,0.678843
185,18.066682,4.699779,-9.826810,0.424811,0.477546,0.854505
186,54.993515,-3.356985,-28.320745,0.298100,0.510750,0.825940
187,66.773480,-29.053178,-35.523003,0.178225,0.486091,0.822278
188,84.962234,-55.970092,-38.879988,0.118044,0.433967,0.847425
189,106.019684,-74.402991,-42.847333,0.084840,0.445197,0.934218
190,118.165866,-79.102770,-47.486076,0.037232,0.432380,1.135515
191,136.110475,-71.656367,-51.819638,-0.073365,0.363409,1.370504
192,163.759823,-59.937438,-53.650721,-0.223758,0.270634,1.427390
193,188.296330,-52.063783,-49.622339,-0.353521,0.154055,1.317525
194,206.546120,-48.767834,-41.138323,-0.431403,0.058839,1.166522
195,218.936446,-46.204318,-31.128405,-0.422126,-0.006836,0.991958
196,221.499962,-42.114900,-22.034028,-0.375860,-0.026246,0.905287
197,220.035096,-35.523003,-15.747311,-0.287968,-0.034668,0.913100
198,217.349508,-28.686961,-12.329290,-0.240360,-0.034668,0.990982
199,216.189822,-24.658579,-10.131991,-0.208743,-0.026734,1.149676
200,218.387121,-18.799115,-10.193027,-0.167117,-0.045289,1.292378
201,221.499962,-9.460594,-11.963073,-0.115236,-0.102785,1.282124
202,220.706493,1.647974,-16.235599,-0.048463,-0.153933,1.275166
203,214.847028,9.948882,-21.606775,0.013306,-0.168338,1.340475
204,207.888914,15.197986,-27.771420,0.036866,-0.174807,1.493797
205,205.813687,19.409476,-34.302281,0.055787,-0.194949,1.714748
206,210.635538,28.076600,-40.222782,0.057008,-0.228641,1.847196
207,215.701534,34.668498,-44.861524,0.048829,-0.277592,1.832670
208,221.377890,34.180209,-48.767834,0.031128,-0.329595,1.773220
209,223.514153,29.663539,-52.002747,0.015991,-0.387701,1.718898
210,224.063478,25.268940,-54.200046,-0.010010,-0.408209,1.717433
211,224.551766,20.874342,-56.214237,-0.024292,-0.428351,1.760403
212,226.626993,22.278172,-58.411536,-0.029786,-0.426520,1.800320
213,226.199741,28.992142,-60.242618,-0.044190,-0.432136,1.929961
214,229.129473,37.598230,-60.181582,-0.048585,-0.500008,1.920806
215,236.148623,44.678416,-59.327077,-0.018311,-0.581308,1.624537
216,228.336004,46.997787,-55.970092,0.015259,-0.612924,1.449241
217,215.030137,43.884947,-51.880674,0.061769,-0.675792,1.381247
218,205.935760,38.757916,-48.706798,0.080812,-0.731334,1.311543
219,192.446784,37.109941,-44.312200,0.030030,-0.835584,1.171527
220,174.013886,34.302281,-37.232013,-0.047242,-0.988785,0.978897
221,148.928054,28.992142,-29.175250,-0.093507,-1.217182,0.805554
222,118.959335,26.306554,-23.376822,-0.043458,-1.493797,0.705699
223,86.976425,36.011292,-22.400244,0.144533,-1.747463,0.758801
224,59.815366,54.627298,-28.381781,0.272587,-1.904936,0.848280
225,45.899138,71.534295,-32.959487,0.226444,-1.971588,0.775158
226,39.795529,63.416495,-24.109255,0.081178,-1.814969,0.348760
227,14.648661,23.254749,-2.563516,-0.045289,-1.516136,0.100587
228,-51.026169,-46.875715,20.874342,-0.184207,-1.764431,-0.976699
229,-122.255283,-142.214084,51.819638,0.149783,-1.356832,0.052369
230,-166.506447,-144.655528,57.007706,0.520394,-1.532860,0.627451
231,-199.160754,-85.389487,47.486076,0.010376,-1.361349,0.447639
232,-115.419242,-70.801862,35.950256,0.074098,0.017700,0.950088
233,-150.026703,-73.304341,37.415122,0.246342,0.810803,1.984771
234,-212.527657,-64.148928,44.373236,0.347539,0.385016,1.408591
235,-218.692302,-65.918975,36.316472,0.371221,-0.164187,1.104509
236,-208.804456,-43.274586,31.189441,0.349859,-0.152224,1.884306
237,-194.827192,-36.133364,25.513085,0.336553,-0.224613,1.999969
238,-122.560464,-24.048219,16.662852,0.082643,-0.225345,1.999969
239,-40.466926,-6.469825,6.958114,-0.153811,-0.067140,1.403464
240,-65.735866,-20.325017,19.958801,-0.510140,0.152590,0.839612
241,-105.287251,-65.308614,42.481117,-0.294316,-0.070924,1.134905
242,-72.388800,-85.938811,38.025483,0.459846,0.256840,1.729641
243,-81.055924,-65.369650,21.057450,1.218769,0.085451,1.999969
244,-45.899138,-4.760815,6.286717,0.084962,-0.080690,1.207782
245,-49.805447,-10.803388,7.263294,-0.584237,0.017090,1.169818
246,-54.383154,-37.720302,9.521630,0.214359,-0.050050,1.223041
247,-23.682002,-18.188754,0.732433,0.285527,0.051759,1.253071
248,-34.668498,-7.385367,4.089418,-0.077272,0.028077,1.060441
249,-26.123445,-9.399557,3.723201,0.025147,0.026368,1.099260
250,-16.113527,-6.591897,1.403830,0.025879,0.074464,1.006973
251,-25.268940,-6.897078,1.709010,0.024781,-0.008301,1.018814
252,-13.427939,-8.545052,1.709010,0.017456,0.006104,1.012955
253,-15.259022,-9.399557,1.342794,0.005982,0.047120,0.945205
254,-20.141909,-10.864424,2.258335,0.001709,0.002808,1.015152
255,-16.968032,-10.742351,0.671397,0.098878,-0.089113,0.803967
256,-15.991455,-11.657893,0.915541,0.043702,-0.015137,1.025162
257,-19.897765,-11.841001,2.502480,0.035157,-0.000366,1.028214
258,-14.648661,-10.742351,2.014191,0.018433,0.031983,1.041764
259,-12.512398,-11.169604,1.647974,0.010254,0.044312,1.001724
260,-15.320058,-11.779965,1.464866,0.009888,0.033570,1.050309
261,-12.390326,-10.681315,1.220722,0.047730,-0.038941,1.012589
262,-7.995727,-8.361944,0.671397,0.041505,-0.007813,0.959731
263,-9.826810,-7.629511,1.464866,0.039796,0.029908,1.012100
264,-11.657893,-6.530861,1.220722,0.020386,0.031739,1.026871
265,-8.545052,-6.225681,1.464866,0.042237,0.064820,1.039078
266,-8.972305,-5.371176,1.403830,0.034791,0.032471,1.028946
267,-9.216449,-4.760815,1.342794,0.048219,-0.019409,0.985611
268,-7.019150,-4.333562,0.915541,0.032715,-0.017212,0.987564
269,-8.422980,-4.455634,0.976577,0.023682,-0.000366,0.993301
270,-8.056764,-5.127031,0.549325,0.012085,0.020020,0.973892
271,-10.131991,-6.591897,0.549325,0.024537,0.024170,0.994766
272,-10.315099,-6.591897,0.183108,0.028809,-0.009400,0.987320
273,-10.070954,-6.530861,0.183108,0.037232,-0.007935,0.991226
274,-11.169604,-6.408789,0.366217,0.035889,-0.008911,1.001236
275,-10.803388,-6.286717,0.305180,0.052979,-0.029053,1.032975
276,-8.972305,-5.188067,0.488289,0.062379,-0.042115,1.031144
277,-5.981537,-4.150454,0.488289,0.050172,-0.031373,1.016251
278,-4.699779,-3.112840,0.305180,0.061524,-0.056397,0.982681
279,-3.479057,-2.624552,0.549325,0.050660,-0.015137,0.998672
280,-3.662165,-2.441444,0.732433,0.037598,0.005982,0.967300
281,-6.775006,-2.685588,0.793469,0.037354,-0.004028,0.971206
282,-7.873655,-2.868696,1.220722,0.034791,0.025513,1.006729
283,-10.193027,-3.418021,1.464866,0.043702,0.001953,0.975723
284,-13.611048,-4.089418,1.403830,0.041627,-0.011719,0.963882
285,-13.855192,-4.638743,1.159686,0.043091,-0.012207,0.993668
286,-15.259022,-5.004959,0.793469,0.038209,-0.024781,0.992569
287,-15.075914,-5.554284,0.305180,0.032959,-0.016846,0.994644
288,-15.869383,-6.225681,0.000000,0.031006,-0.021363,0.989273
289,-17.029068,-7.202258,-0.305180,0.036988,-0.006592,0.959121
290,-19.226368,-8.606088,-0.671397,0.033692,-0.010986,0.947280
291,-21.850919,-9.765774,-0.183108,0.057008,-0.020508,0.969131
292,-25.268940,-9.399557,0.793469,0.069947,-0.033448,0.945693
293,-24.902724,-8.117800,1.892119,0.087037,-0.035523,1.064836
294,-27.710384,-3.112840,1.892119,0.062135,-0.050904,0.994400
295,-28.381781,-2.502480,2.380407,0.052125,-0.025879,1.033463
296,-27.832456,-2.075227,0.488289,0.013428,0.005371,1.011368
297,-32.593271,-2.807660,-0.976577,0.060426,-0.001221,0.974502
298,-29.602502,0.244144,-3.234913,0.116945,0.015503,0.869764
299,-54.871443,2.319371,-2.563516,-0.040528,0.051026,0.968887
300,-62.500954,2.075227,-6.286717,0.095094,-0.057008,0.973892
301,-62.989242,7.446403,-11.169604,-0.016236,-0.110964,1.081559
302,-64.026856,8.178836,-16.418708,-0.122194,-0.094484,1.014908
303,-69.520104,8.545052,-25.024796,-0.049683,-0.086427,1.080705
304,-79.835203,4.760815,-37.293050,0.152956,-0.281987,1.113542
305,-52.735180,6.530861,-18.371862,0.316289,-0.269902,1.095109
306,-39.490349,12.451362,12.085145,0.245243,-0.114260,1.097185
307,-55.909056,24.841688,16.968032,-0.005982,0.266361,0.841199
308,-112.672618,30.884260,0.671397,0.003174,0.292119,0.803601
309,-171.694514,28.931106,2.380407,-0.034668,0.264897,0.627939
310,-183.474479,-2.014191,24.475471,-0.256840,0.414435,0.870619
311,-216.617075,-33.142596,4.394598,-0.335332,0.804089,0.973281
312,-312.565805,-59.998474,-23.743038,-0.263920,0.284428,1.848417
313,-493.659876,-142.397192,-4.211490,-0.684459,-0.296513,1.368917
314,-604.623484,-220.767529,36.133364,0.095583,0.076295,1.216571
315,-700.328069,-212.649729,45.288777,0.470954,-0.212528,1.255634
316,-746.166171,-178.103304,63.660639,0.420539,-0.115724,0.856825
317,-853.955901,-156.374456,85.023270,1.497704,-1.603174,1.999969
318,-666.819257,0.061036,110.658427,-0.125612,0.166018,1.999969
319,-21.118486,44.922560,-91.737240,0.226810,0.173098,1.999969
320,210.635538,57.801175,-115.236133,-0.288334,0.996963,1.999969
321,89.234760,31.067369,-125.795377,-0.369757,0.823865,1.999969
322,4.516670,-33.813993,-34.790570,-0.554696,0.758190,1.825589
323,41.992828,-38.879988,-22.705425,-0.424201,0.282231,1.504906
324,166.140230,-5.493248,-24.292363,-0.507698,0.244633,1.107439
325,176.638437,5.127031,-12.024109,-0.433234,0.301030,0.709850
326,142.030976,8.850233,3.479057,-0.474617,0.147951,0.777844
327,158.266575,20.386053,14.343481,-0.434455,0.026246,0.805432
328,183.962768,33.569848,21.179522,-0.335454,0.063478,0.715953
329,180.361639,40.039673,28.564889,-0.218265,0.067750,0.706065
330,182.803082,44.251164,32.349126,-0.104616,0.081910,0.793835
331,195.559625,47.119860,30.579080,0.029664,0.144045,1.038224
332,205.203326,48.462654,26.001373,0.115114,0.130617,1.210101
333,222.476539,47.119860,20.752270,0.169314,0.071412,1.300679
334,240.787366,49.317159,11.718929,0.198123,0.042359,1.460349
335,260.440986,58.106355,4.333562,0.248539,-0.015259,1.297871
336,273.197528,58.899825,-3.234913,0.269902,-0.015747,1.270039
337,275.516899,54.322118,-9.216449,0.314946,-0.034180,1.478538
338,283.756771,53.101396,-15.381094,0.324956,-0.123049,1.640650
339,300.968948,55.542840,-22.461280,0.357183,-0.217288,1.557519
340,309.330892,63.172351,-30.823224,0.371099,-0.324712,1.307271
341,297.917144,72.999161,-37.964446,0.402960,-0.463996,1.011978
342,276.737621,82.398718,-43.518730,0.457527,-0.467781,0.996353
343,253.543908,81.422141,-49.683375,0.502205,-0.428107,1.096696
344,235.782406,70.557717,-59.143969,0.611704,-0.383307,1.225116
345,221.316854,60.791943,-72.083619,0.649912,-0.309941,1.604517
346,207.400626,54.810407,-84.596017,0.566537,-0.350225,1.947417
347,210.269322,51.941711,-95.765621,0.417731,-0.445686,1.999969
348,220.096132,54.322118,-102.967880,0.259403,-0.577646,1.999969
349,231.876097,66.407263,-102.174411,0.059083,-0.707164,1.999969
350,240.299077,74.341955,-91.126879,-0.113161,-0.800061,1.999969
351,250.064851,75.257496,-73.121233,-0.204105,-0.903090,1.999969
352,256.412604,72.632944,-51.514458,-0.221195,-0.989761,1.787381
353,248.661021,67.139696,-30.151827,-0.134157,-1.031510,1.521141
354,232.181277,65.735866,-14.892805,-0.029419,-1.105486,1.392966
355,216.433967,70.862898,-5.249104,0.034913,-1.219867,1.300801
356,197.940032,79.774166,0.183108,0.067750,-1.390524,1.118303
357,171.267262,86.793317,6.958114,0.181155,-1.628077,0.985000
358,140.810254,85.877775,14.404517,0.347539,-1.962554,0.928725
359,113.344015,79.163806,17.212177,0.602548,-2.000031,0.798352
360,101.014725,72.693980,9.521630,0.712169,-2.000031,0.420783
361,88.563363,65.125505,7.141222,0.687877,-2.000031,-0.053590
362,43.396658,40.405890,19.226368,0.517342,-2.000031,-0.271000
363,-8.667124,-6.958114,38.025483,0.324712,-1.754421,-0.038819
364,-37.109941,-48.584726,54.566262,0.178347,-1.407980,0.626108
365,-44.617380,-63.843748,64.454108,0.121462,-1.527123,-0.932021
366,-179.751278,-45.899138,63.477531,0.254032,-1.037491,-0.289067
367,-187.014572,-79.407950,44.129091,-0.015381,-0.849012,0.354376
368,-96.131838,-43.945983,26.916915,0.094240,0.721202,1.089616
369,-180.239567,-53.955901,36.743725,0.012818,1.026017,0.893202
370,-312.504768,-86.976425,52.918288,0.168948,0.030640,0.734997
371,-303.776608,-67.505913,52.552071,0.379400,-0.541512,1.456443
372,-250.858320,-38.330663,42.603189,0.920180,-0.216678,1.999969
373,-231.631952,-24.414435,21.850919,1.125994,-0.199100,1.999969
374,-156.923781,14.343481,-2.319371,0.198367,-0.405035,1.999969
375,-120.912490,-11.352712,11.535821,-1.135027,-0.243656,1.999969
376,-104.249638,-50.843061,33.875029,-0.739025,-0.450080,1.608301
377,-37.964446,-87.159533,25.146868,0.864515,0.184207,1.999969
378,-47.425040,-34.790570,10.742351,0.943374,0.060060,1.550072
379,-42.664225,0.366217,8.056764,-0.355596,0.022705,1.204852
380,-46.082246,-27.649348,12.756542,-0.365606,-0.034058,1.124773
381,-18.921187,-35.400931,2.929732,0.350469,0.112062,1.239643
382,-27.893492,-16.968032,1.342794,0.093751,0.074342,1.025772
383,-40.955215,-16.357671,4.577707,-0.080201,-0.020386,1.299214
384,-12.817578,-16.479744,-0.549325,0.048707,-0.036378,1.110979
385,-5.676356,-10.009918,-2.563516,0.085206,0.064942,1.000748
386,-22.400244,-8.178836,0.183108,-0.017945,-0.029786,1.103899
387,-2.868696,-6.164645,-1.831083,0.046754,0.011597,1.004166
388,-9.399557,-1.831083,-0.854505,0.085328,0.070314,0.946181
389,-21.911955,0.732433,1.709010,0.007202,-0.017456,1.039078
390,-13.611048,2.319371,2.563516,0.053590,-0.010498,1.038590
391,-13.672084,3.479057,4.394598,0.012329,0.018067,0.952163
392,-17.517357,1.159686,5.371176,-0.009644,0.009644,0.998672
393,-16.113527,-2.136263,3.784237,-0.026001,-0.000610,0.992203
394,-14.770733,-4.882887,2.563516,0.002808,-0.000366,1.011612
395,-14.709697,-6.103609,1.647974,-0.008545,-0.019654,1.029191
396,-9.277485,-6.530861,-0.305180,-0.013916,-0.007813,1.012222
397,-8.545052,-6.775006,0.976577,-0.008789,0.025879,1.027237
398,-9.887846,-7.507439,1.770047,0.014160,0.009522,1.029557
399,-7.995727,-7.080186,1.525902,0.005615,-0.013672,0.988540
400,-9.216449,-7.690547,1.464866,0.017090,-0.011109,1.010147
401,-8.728161,-7.141222,1.892119,0.024414,0.003662,1.036271
402,-7.080186,-6.042573,1.464866,0.011475,0.009644,1.012467
403,-8.972305,-6.286717,1.770047,0.023682,0.000366,1.004044
404,-8.056764,-5.859464,1.342794,0.007813,0.005127,1.013809
405,-9.704738,-6.530861,1.342794,0.017578,-0.016358,1.002213
406,-9.887846,-6.652934,0.976577,0.008911,-0.016236,1.015763
407,-8.484016,-5.676356,0.549325,0.019532,-0.037598,0.967422
408,-8.789197,-5.493248,0.976577,0.029175,0.014282,0.987076
409,-12.512398,-6.469825,1.342794,0.024781,-0.019287,1.017227
410,-10.315099,-5.554284,1.037613,0.031495,-0.032349,1.000015
411,-10.254063,-5.188067,0.488289,0.024781,-0.024048,0.979019
412,-12.146181,-5.004959,0.732433,0.027588,-0.027710,0.999039
413,-12.939651,-5.371176,0.488289,0.023926,-0.031250,0.982071
414,-12.573434,-5.798428,0.244144,0.030152,-0.023316,0.991470
415,-14.953841,-5.737392,0.549325,0.038575,-0.042725,1.007218
416,-14.709697,-4.943923,0.793469,0.052125,-0.057008,1.021866
417,-13.061723,-3.051804,1.220722,0.053956,-0.049195,1.007584
418,-15.381094,-1.525902,2.014191,0.049439,-0.049439,1.007706
419,-17.029068,-0.610361,2.685588,0.037842,-0.051270,0.988174
420,-16.968032,0.061036,2.685588,0.022583,-0.039673,0.974746
421,-19.714656,-0.671397,2.380407,0.026612,-0.031617,0.978286
422,-20.752270,-0.793469,2.014191,0.015869,-0.035157,1.024308
423,-21.667811,-1.892119,1.647974,0.019532,-0.048463,0.976455
424,-24.414435,-2.502480,1.709010,0.043580,-0.042359,0.961563
425,-27.405203,-2.868696,1.342794,-0.010010,-0.028931,0.960342
426,-30.457008,-5.310140,0.976577,0.020020,-0.048463,0.970352
427,-32.715343,-5.798428,1.159686,0.043702,-0.065553,0.970352
428,-34.058137,-6.958114,2.014191,0.051392,-0.039063,1.021378
429,-33.936065,-1.770047,4.028382,0.080812,-0.037964,1.031144
430,-47.425040,1.281758,6.103609,0.045533,-0.092653,1.026261
431,-42.969406,2.624552,5.371176,0.008423,-0.096803,1.007462
432,-38.513771,2.746624,3.418021,0.020874,-0.065553,1.019303
433,-46.814679,1.525902,2.563516,-0.014160,-0.111940,0.969497
434,-47.364004,-0.183108,-0.915541,-0.014160,-0.093141,1.043107
435,-44.373236,-1.586938,-7.812619,-0.038453,-0.120607,0.978531
436,-42.053864,-3.723201,-13.000687,-0.018311,-0.100465,1.019913
437,-50.843061,-2.197299,-29.236286,0.033204,-0.125978,0.953384
438,-66.834516,7.507439,-39.917601,0.084474,-0.226566,1.060075
439,-55.603876,10.803388,-27.710384,0.164187,-0.322881,1.045060
440,-26.306554,7.202258,-7.690547,0.137819,-0.309087,1.003677
441,-18.860151,2.929732,-0.610361,0.036744,-0.014771,1.009049
442,-41.748684,4.028382,-4.455634,-0.038697,0.220584,0.854017
443,-90.577554,4.089418,-15.625238,0.080934,0.263676,0.857191
444,-141.908904,8.422980,-10.986496,0.112795,0.139406,0.761120
445,-153.139544,2.380407,4.394598,-0.069459,0.182498,0.814710
446,-162.600137,-22.095064,6.591897,-0.079469,0.625254,1.081682
447,-336.003662,-24.719615,-20.263981,0.023316,0.889784,1.560815
448,-531.929503,-39.551385,12.207218,-0.362676,0.077394,1.330953
449,-640.817884,-100.404364,52.796216,-0.153323,0.010376,1.180926
450,-731.456474,-125.123980,69.764248,0.164431,-0.092409,1.278828
451,-789.440757,-120.607309,63.721675,0.126833,-0.169192,0.815686
452,-917.250324,-126.344701,90.455482,1.276387,-2.000031,1.999969
453,-747.875181,-36.926833,158.754864,-0.959121,-0.581308,1.999969
454,39.795529,-14.099336,-59.327077,-0.046387,-0.285039,1.999969
455,279.972534,28.320745,-63.477531,-0.420661,0.872938,1.999969
456,99.855039,25.452049,-74.525063,-0.407233,0.779309,1.999969
457,-1.831083,-30.579080,27.649348,-0.641489,0.663951,1.455833
458,28.992142,-49.805447,44.129091,-0.258671,0.377081,1.076677
459,150.270848,-34.180209,20.447089,-0.282109,0.284916,0.954116
460,167.666133,-32.471199,20.935378,-0.131228,0.422370,0.583993
461,128.786145,-31.799802,21.240558,-0.056275,0.330205,0.653086
462,143.739986,-17.883574,13.305867,0.020020,0.251102,0.758312
463,170.046540,-5.188067,1.525902,0.099733,0.284794,0.615488
464,164.248112,-4.028382,-8.667124,0.094972,0.310674,0.815076
465,170.412757,-8.056764,-16.723888,0.129397,0.300908,0.975967
466,195.986877,-6.775006,-27.893492,0.106691,0.297612,1.094255
467,211.856260,-4.821851,-37.109941,0.085695,0.277958,1.251484
468,227.298390,2.685588,-44.617380,0.044434,0.192996,1.427390
469,252.445258,14.892805,-50.843061,-0.007446,0.102052,1.525658
470,274.723430,25.452049,-53.101396,-0.041871,0.021241,1.539208
471,292.179751,28.625925,-51.758602,-0.086427,-0.070680,1.553735
472,310.490578,25.024796,-47.730220,-0.113161,-0.160037,1.506249
473,325.505455,21.484703,-43.640803,-0.085206,-0.234623,1.421164
474,333.745327,21.606775,-41.077287,-0.027955,-0.319585,1.172381
475,328.068971,25.024796,-43.274586,-0.032227,-0.475715,0.831800
476,303.044175,41.260395,-44.312200,0.034546,-0.606088,0.609262
477,263.431754,65.247578,-43.884947,0.088746,-0.560067,0.691661
478,223.636225,66.956588,-46.631571,0.269291,-0.403449,1.105241
479,208.987564,69.764248,-57.801175,0.353521,-0.256718,1.769192
480,199.099718,79.713130,-66.834516,0.291630,-0.220951,1.999969
481,209.781033,93.446250,-69.825284,0.113893,-0.465339,1.999969
482,262.760357,103.639277,-67.566949,-0.033570,-0.747448,1.999969
483,281.071183,102.418555,-54.444190,-0.115724,-0.800305,1.999969
484,259.525444,86.121920,-34.119173,-0.114626,-0.876234,1.999969
485,275.333791,74.708171,-20.019837,0.057984,-0.941543,1.999969
486,302.800031,79.163806,-15.930419,0.383429,-0.934218,1.999969
487,300.602731,91.371023,-18.554971,0.532235,-0.991592,1.876371
488,286.198215,92.713817,-21.606775,0.513680,-1.105730,1.608179
489,274.967575,81.605249,-23.193713,0.489143,-1.234516,1.454246
490,254.642557,67.872129,-22.339208,0.397345,-1.423117,1.418845
491,234.988937,60.914015,-18.310826,0.329839,-1.682155,1.294697
492,210.635538,60.975052,-15.930419,0.377813,-2.000031,1.067765
493,176.516365,67.933165,-19.348440,0.594491,-2.000031,0.757580
494,133.546960,86.060884,-35.217823,0.796765,-2.000031,0.351324
495,95.399405,114.869917,-54.505226,0.600839,-2.000031,-0.067872
496,52.368963,119.203479,-47.180896,0.242557,-2.000031,-0.361944
497,-5.737392,74.586099,-16.357671,-0.342535,-2.000031,-0.350225
498,-111.573968,-50.293736,38.330663,-0.260990,-2.000031,-1.449241
499,-250.797284,-180.727855,84.473945,0.577279,-2.000031,-0.255497
500,-221.011673,-140.383001,71.839475,0.694835,-0.744640,1.652247
501,-97.169451,-56.580453,34.912642,0.125368,0.705577,1.999969
502,-131.288624,-56.153201,44.495308,0.069337,1.160540,1.199725
503,-269.596399,-99.305715,53.284504,0.348760,0.123537,0.208988
504,-291.325246,-74.097810,57.190814,0.239750,-0.489509,0.781628
505,-271.183337,-61.280232,58.777752,0.557504,-0.175051,1.999969
506,-252.018006,-25.940337,47.364004,1.077531,-0.136843,1.999969
507,-168.032349,19.104295,15.075914,0.597421,-0.345098,1.883696
508,-122.987716,13.244831,11.963073,-0.642710,0.226932,1.999969
509,-181.216144,-50.720989,35.156786,-1.152605,-0.853162,1.799100
510,-50.659953,-104.615854,32.104982,0.244388,-0.122194,1.999969
511,-49.011978,-94.605936,12.756542,1.458518,0.141726,1.999969
512,-39.368276,-25.818265,7.568475,0.167239,0.064454,1.064591
513,-59.693294,-32.288090,7.263294,-0.572519,-0.098878,1.156756
514,-49.134051,-56.946670,8.361944,0.349004,-0.022339,1.240742
515,-28.931106,-34.119173,-0.305180,0.299687,0.104860,1.330709
516,-47.302968,-22.949569,2.807660,-0.056764,-0.108644,1.187274
517,-16.906996,-23.804074,-1.220722,0.022827,-0.001465,1.069474
518,-16.906996,-22.217136,-3.173877,0.096437,0.059815,1.016983
519,-31.006332,-18.554971,-0.610361,0.016602,-0.059693,1.147967
520,-10.559243,-13.366903,-1.709010,0.112184,-0.021118,1.116350
521,-9.643702,-6.164645,-1.098650,0.081300,-0.000488,1.075090
522,-13.000687,-1.647974,1.220722,0.066651,-0.029541,1.042130
523,-5.371176,0.915541,1.831083,0.064088,0.013550,1.009537
524,-10.193027,0.976577,2.990768,0.012329,-0.007324,0.964248
525,-9.521630,-1.342794,3.356985,0.024781,-0.015381,0.960952
526,-8.422980,-2.685588,2.807660,0.051637,-0.009400,0.940810
527,-10.620279,-3.479057,2.014191,0.003906,-0.003174,0.990372
528,-12.329290,-5.981537,1.770047,0.001465,-0.009522,1.023819
529,-8.850233,-6.347753,1.098650,0.019409,-0.013306,1.009293
530,-8.361944,-6.530861,1.403830,0.016846,0.050416,1.060197
531,-6.103609,-5.859464,1.464866,0.053468,-0.041138,0.953628
532,-6.530861,-5.065995,1.831083,0.039796,-0.032959,1.008438
533,-7.019150,-4.089418,1.770047,0.053346,0.027588,1.009049
534,-7.751583,-3.723201,2.014191,0.052857,-0.039063,0.966934
535,-7.080186,-3.051804,1.464866,0.042237,-0.007202,1.000137
536,-9.643702,-3.173877,1.709010,0.030030,0.029053,1.028458
537,-7.568475,-3.051804,1.892119,0.034791,0.025147,1.031144
538,-7.507439,-2.746624,1.403830,0.043458,-0.064088,0.926650
539,-10.498207,-3.723201,1.159686,0.028199,-0.025757,0.963882
540,-12.146181,-4.333562,1.342794,0.021729,0.017212,0.950088
541,-15.808347,-5.676356,1.220722,0.042359,0.007691,0.985245
542,-14.709697,-5.310140,0.671397,0.045167,-0.013550,1.041764
543,-12.756542,-4.577707,0.671397,0.043702,-0.033692,1.002090
544,-13.183795,-5.004959,0.122072,0.034424,-0.018433,0.991104
545,-14.343481,-5.188067,0.000000,0.044556,-0.028321,0.996475
546,-14.465553,-5.310140,-0.183108,0.053346,-0.034913,0.995621
547,-15.991455,-5.371176,0.122072,0.063355,-0.036866,1.015640
548,-13.794156,-5.004959,0.183108,0.048463,-0.047730,0.991104
549,-15.014878,-4.699779,0.671397,0.064454,-0.041016,1.020768
550,-15.930419,-3.601129,1.220722,0.064332,-0.040650,0.984878
551,-16.418708,-3.112840,1.525902,0.063966,-0.043336,0.973404
552,-19.470512,-2.319371,2.014191,0.053712,-0.030152,0.966812
553,-22.278172,-2.563516,2.441444,0.047730,-0.022095,0.936294
554,-29.358358,-3.112840,2.807660,0.058595,-0.033814,0.975479
555,-31.494621,-4.394598,3.356985,0.049439,-0.001343,1.024308
556,-32.715343,-3.723201,3.112840,0.066407,-0.066041,0.978775
557,-33.325704,-2.685588,3.234913,0.067262,-0.070436,1.075212
558,-28.992142,-0.427253,2.685588,0.032105,-0.073976,1.027115
559,-33.569848,-0.061036,3.601129,0.056153,-0.099123,1.008194
560,-30.945296,0.976577,4.699779,0.048951,-0.124269,1.020279
561,-25.696193,1.953155,5.371176,0.130861,-0.008301,0.969497
562,-44.678416,4.638743,5.554284,-0.006470,-0.035889,0.982559
563,-48.157473,1.709010,3.234913,0.048951,-0.068971,1.034440
564,-40.222782,2.136263,-1.342794,0.014405,-0.056641,0.989517
565,-45.593957,0.671397,-3.845274,0.012818,-0.045899,1.009049
566,-48.218509,-1.770047,-9.826810,-0.030152,-0.084230,0.987076
567,-51.209277,-3.356985,-16.357671,0.007935,-0.173953,1.065202
568,-67.933165,5.493248,-31.433585,0.037964,-0.058350,0.978897
569,-69.642176,9.765774,-42.114900,0.144778,-0.334600,0.950088
570,-47.791257,4.516670,-23.865110,0.193362,-0.345953,1.085710
571,-29.785611,3.662165,-1.342794,0.188113,-0.288579,1.109148
572,-22.827497,10.009918,6.042573,0.016358,0.079347,0.948501
573,-55.603876,12.817578,-11.779965,0.044923,0.229129,0.943374
574,-121.522850,25.452049,-23.559930,0.086427,0.328618,0.894423
575,-201.541161,29.175250,-17.395285,-0.152468,0.253666,0.745495
576,-185.183490,-24.109255,6.469825,-0.280888,0.303960,0.817639
577,-272.281987,-44.190127,-6.164645,0.092897,0.689952,0.901381
578,-503.303578,-60.547799,-28.870069,-0.194949,0.008911,1.107439
579,-640.939956,-148.439765,40.650034,-0.105348,0.005493,1.276509
580,-789.868010,-188.845655,80.018311,0.269169,-0.083131,0.921523
581,-889.600977,-174.074922,119.203479,0.354498,-0.189456,1.547753
582,-1137.834745,-192.874037,178.469520,-0.486946,-2.000031,1.999969
583,-345.037003,-65.796902,47.180896,-0.734386,-1.886259,1.999969
584,372.259098,-0.305180,-55.054551,-0.452888,1.201190,1.999969
585,294.438087,40.527962,-81.177996,0.226200,1.112200,1.508690
586,74.891279,16.113527,7.812619,-0.856947,0.881849,0.489754
587,-65.980011,-54.810407,55.298695,-0.426764,0.462287,0.529549
588,0.183108,-31.921874,48.706798,-0.243290,0.233158,0.523568
589,102.845808,-5.065995,27.710384,-0.144167,0.434211,0.419928
590,66.651408,1.098650,27.161059,0.035157,0.546761,0.557626
591,51.636530,7.568475,21.545739,0.028687,0.402472,0.871107
592,103.089952,14.953841,8.911269,0.051270,0.441535,0.960464
593,125.673304,12.756542,2.014191,0.066163,0.502693,0.969253
594,136.354620,6.164645,-2.136263,0.059815,0.449470,1.099260
595,168.886854,4.760815,-9.399557,0.074098,0.408087,1.187762
596,196.047913,9.033341,-16.540780,0.067994,0.376349,1.240620
597,213.748379,17.212177,-22.705425,0.060426,0.292729,1.381857
598,237.064164,29.175250,-27.771420,0.046265,0.170169,1.468528
599,265.873198,37.109941,-31.067369,0.016480,0.043946,1.380880
600,288.456550,37.903410,-31.128405,0.004150,-0.073610,1.186175
601,299.565118,33.020523,-28.870069,0.025391,-0.134157,1.024308
602,300.785840,26.794842,-28.137636,0.103761,-0.153567,1.004044
603,297.611963,23.498894,-30.945296,0.189334,-0.136110,1.157244
604,295.414664,25.696193,-38.452735,0.272831,-0.152224,1.311055
605,296.574350,35.400931,-48.828870,0.288945,-0.212894,1.330343
606,291.569390,47.119860,-59.876402,0.299565,-0.358648,1.213397
607,284.855421,64.698253,-68.787671,0.312871,-0.446906,0.984756
608,261.722744,73.792630,-76.356146,0.277836,-0.436652,0.969863
609,235.111009,75.501640,-81.788357,0.269169,-0.363165,1.253559
610,210.208286,77.576867,-84.046693,0.152712,-0.290288,1.990021
611,203.433280,78.980697,-81.300069,0.052979,-0.387457,1.999969
612,236.087587,85.999847,-76.600290,0.034668,-0.618540,1.999969
613,275.272755,92.103456,-71.961547,0.055177,-0.664073,1.999969
614,264.347295,90.516518,-61.341268,0.062623,-0.685313,1.999969
615,261.783780,84.534981,-50.110628,0.097780,-0.807507,1.999969
616,290.714885,83.070115,-44.190127,0.226810,-0.888563,1.999969
617,300.846876,91.309987,-39.856565,0.327520,-0.986221,1.999969
618,288.456550,97.413596,-33.142596,0.274540,-1.163348,1.753201
619,271.732662,92.957961,-22.827497,0.211063,-1.325093,1.605249
620,252.689403,79.896239,-9.582666,0.163577,-1.541527,1.526513
621,231.448844,69.275959,3.662165,0.091798,-1.902617,1.396384
622,203.860533,65.796902,24.353399,0.174807,-2.000031,1.098161
623,158.083467,62.989242,28.809033,0.600107,-2.000031,0.763439
624,126.283665,75.135424,13.183795,1.039445,-2.000031,0.181643
625,104.066529,105.531395,-15.747311,0.993912,-2.000031,-0.400031
626,56.702525,111.879149,-19.958801,0.505379,-2.000031,-0.720104
627,-32.715343,48.340581,11.047532,0.082277,-2.000031,-0.339849
628,-69.764248,-38.696880,49.561303,-0.120607,-1.815091,0.459724
629,-112.794690,-131.471733,53.955901,0.336431,-2.000031,-1.131975
630,-222.659648,-157.961395,63.843748,0.820691,0.105837,1.218158
631,-147.219043,-87.220569,24.109255,0.259159,0.118654,1.256245
632,-106.019684,-61.951629,10.620279,-0.223880,1.131243,1.286519
633,-237.674525,-104.676890,43.091478,-0.125856,0.432013,-0.021851
634,-329.777981,-94.666972,58.472572,0.041260,-0.559701,0.210452
635,-313.237202,-83.619440,61.280232,0.587900,-0.329961,1.999969
636,-288.151370,-42.298009,50.049592,1.378683,-0.238529,1.999969
637,-196.597238,8.850233,12.939651,0.769787,-0.472908,1.999969
638,-132.387274,-7.019150,10.193027,-0.810681,-0.041505,1.999969
639,-133.485924,-64.148928,39.124132,-0.995987,-0.608042,1.999969
640,-29.663539,-107.911803,21.240558,0.711437,-0.032471,1.941436
641,-34.729534,-61.158160,10.498207,1.319356,0.374884,1.674464
642,-62.561990,-3.601129,11.291676,-0.133303,0.018921,1.255512
643,-57.740139,-20.325017,11.535821,-0.445686,-0.109621,1.248920
644,-23.926146,-37.659266,1.403830,0.347662,0.080201,1.128069
645,-35.217823,-19.836728,-0.732433,0.257816,0.164187,1.237568
646,-46.936751,-13.305867,2.990768,-0.135988,-0.115724,1.154437
647,-9.826810,-17.273213,-1.342794,0.092042,0.054444,1.047990
648,-24.963760,-11.108568,1.159686,0.074708,0.052247,0.955581
649,-29.724575,-9.460594,2.990768,-0.000244,-0.005371,1.046403
650,-23.254749,-5.920500,0.183108,0.155764,-0.118410,0.848890
651,-28.076600,-2.990768,3.356985,0.097658,-0.036744,1.041276
652,-28.076600,-0.305180,4.882887,0.047974,-0.012940,1.027970
653,-26.184482,1.281758,5.004959,0.056397,-0.006836,1.041032
654,-25.452049,3.540093,0.732433,-0.003906,-0.285039,0.923476
655,-24.170291,1.953155,2.807660,0.029297,0.004028,1.081559
656,-26.245518,1.281758,4.394598,0.021729,-0.014282,1.005753
657,-21.545739,1.159686,2.136263,0.007935,-0.024537,0.999771
658,-23.132677,0.122072,1.831083,-0.060060,0.034424,1.156023
659,-17.334249,-0.976577,3.051804,0.082155,-0.008057,0.956435
660,-17.090105,0.183108,1.892119,0.015137,-0.043946,0.973404
661,-15.686275,-0.427253,1.159686,0.017945,-0.038819,1.009537
662,-16.174563,-1.525902,1.464866,0.014771,-0.034424,1.014298
663,-16.357671,-2.380407,1.159686,0.008057,-0.023926,1.004532
664,-17.212177,-3.112840,1.159686,0.011597,-0.043946,1.005753
665,-15.930419,-3.234913,0.671397,0.023316,-0.032715,1.013809
666,-15.442130,-3.051804,0.122072,0.009155,-0.044678,1.008682
667,-14.648661,-3.112840,0.000000,0.026978,-0.054810,1.012222
668,-13.244831,-3.051804,0.122072,0.029053,-0.068849,1.001358
669,-11.230640,-1.709010,-1.831083,0.087526,-0.252079,0.768688
670,-7.629511,-3.173877,-0.732433,0.025635,-0.047974,1.010636
671,-8.484016,-5.249104,0.305180,0.016358,-0.056886,1.020279
672,-5.371176,-5.920500,-0.183108,0.008789,-0.051514,0.982925
673,-6.164645,-7.080186,-0.732433,0.020264,-0.060548,0.965347
674,-7.507439,-7.812619,-0.915541,0.010864,-0.019043,0.962173
675,-10.986496,-8.789197,-0.549325,0.044434,-0.054566,0.968521
676,-12.451362,-8.300908,-0.732433,0.022583,-0.035401,0.994034
677,-15.320058,-8.484016,0.000000,0.062867,-0.065919,1.001358
678,-15.564202,-6.469825,0.244144,0.039551,-0.060792,1.012833
679,-14.526589,-6.164645,0.915541,0.056153,-0.069825,0.991348
680,-16.540780,-4.699779,1.342794,0.046387,-0.063355,1.011734
681,-17.700465,-3.601129,2.319371,0.050904,-0.085206,1.031510
682,-14.648661,-1.831083,2.990768,0.056641,-0.072267,1.008316
683,-17.151141,-1.647974,3.479057,0.024659,-0.052369,0.993179
684,-17.700465,-1.892119,3.601129,0.041138,-0.053956,0.986221
685,-18.249790,-2.075227,2.807660,0.008667,-0.033692,0.944594
686,-21.484703,-5.615320,3.112840,0.025513,0.013672,0.972061
687,-25.635157,-5.188067,1.342794,0.029175,-0.006226,0.869032
688,-44.800488,-3.112840,4.699779,0.087526,-0.067140,1.061051
689,-48.035401,1.281758,7.141222,0.024414,-0.158450,1.057389
690,-36.194400,3.479057,9.826810,0.090211,-0.134157,1.016007
691,-39.429313,6.775006,12.085145,0.038697,-0.122194,0.979019
692,-39.490349,5.737392,11.596857,-0.021607,-0.087892,1.027726
693,-35.400931,3.845274,3.479057,-0.025391,-0.067872,0.989639
694,-36.865797,-0.061036,-3.051804,-0.061646,-0.053590,0.989883
695,-39.368276,-3.418021,-9.155413,0.002930,-0.112306,1.004044
696,-46.082246,-3.234913,-20.874342,-0.025635,-0.110597,1.051530
697,-69.947356,3.967346,-34.851606,0.067750,-0.219364,1.017960
698,-54.261082,5.554284,-28.381781,0.103029,-0.362799,1.098283
699,-27.649348,1.525902,-12.573434,0.092287,-0.309209,1.064103
700,-15.136950,-1.098650,-4.211490,0.080201,-0.114137,1.025284
701,-29.541466,0.610361,-5.249104,0.046265,0.049683,1.022843
702,-62.378882,6.775006,-14.831769,0.065431,0.170535,0.939345
703,-115.175097,13.122759,-23.315785,0.075074,0.319585,0.910048
704,-147.890440,13.916228,-20.019837,-0.109743,0.367193,0.573617
705,-190.859846,-11.474784,-32.898451,-0.230838,0.414435,0.912490
706,-312.443732,-20.996414,-50.171664,0.220584,1.250141,1.103410
707,-562.325475,-20.874342,-65.796902,-0.320562,0.204837,1.754910
708,-709.910735,-77.393759,-2.563516,-0.401251,0.006714,1.220722
709,-800.061036,-122.987716,27.649348,0.043214,-0.064210,1.115496
710,-868.177310,-152.529183,36.316472,0.187503,-0.827649,1.195209
711,-1079.728389,-169.375143,151.735714,-0.850599,-0.831800,1.999969
712,-350.164035,-92.957961,7.263294,-0.896620,-1.431296,1.999969
713,259.769589,-22.034028,-68.848707,-0.477180,0.855238,1.999969
714,245.059892,14.953841,-69.764248,-0.565316,1.316304,1.994049
715,50.232700,14.404517,-35.706111,-0.738170,0.615244,1.451926
716,-50.232700,-37.232013,30.945296,-0.586801,0.440192,0.979141
717,18.921187,-29.846647,39.795529,-0.328130,0.340459,0.712657
718,121.156634,-15.442130,18.677043,-0.310552,0.382940,0.636851
719,106.996262,-17.334249,23.926146,-0.166384,0.476204,0.604990
720,80.689708,-18.005646,29.358358,-0.134401,0.351202,0.917739
721,122.133211,-10.009918,24.292363,-0.078370,0.333745,1.106950
722,160.341802,-4.150454,18.188754,-0.030274,0.381476,1.062150
723,169.924468,-4.943923,14.160372,0.023682,0.348638,1.022721
724,190.127413,-0.793469,7.507439,0.049073,0.356817,1.014298
725,207.400626,9.033341,-3.845274,0.083253,0.299687,0.995499
726,216.189822,19.958801,-12.268254,0.065919,0.244511,1.063615
727,227.603571,27.405203,-18.493935,0.026978,0.174319,1.139178
728,245.487144,34.729534,-22.217136,-0.003296,0.110109,1.204242
729,259.281300,39.795529,-22.644388,-0.016236,0.065064,1.302022
730,272.159915,41.870756,-20.996414,-0.002930,0.026734,1.463035
731,289.005875,40.711070,-19.165332,0.053834,-0.013306,1.559838
732,310.490578,38.696880,-21.118486,0.164431,-0.052857,1.578759
733,325.017166,40.772107,-26.855879,0.263676,-0.128298,1.397848
734,328.679332,49.561303,-37.048905,0.320439,-0.288701,1.068986
735,312.993057,66.590372,-48.401617,0.403693,-0.468025,0.707774
736,281.498436,81.788357,-56.458381,0.452033,-0.460700,0.736217
737,246.646830,80.262455,-62.500954,0.360723,-0.390021,0.915541
738,232.425422,64.637217,-68.604562,0.286625,-0.270390,1.305928
739,211.917296,56.641489,-71.046006,0.239384,-0.168826,1.999969
740,201.541161,64.271000,-70.313573,0.129885,-0.300786,1.999969
741,238.467994,78.126192,-70.862898,0.057496,-0.569100,1.999969
742,280.949111,91.554131,-65.980011,-0.007691,-0.615732,1.999969
743,275.761044,88.136110,-54.566262,-0.054444,-0.712413,1.999969
744,284.550240,80.689708,-43.274586,0.025147,-0.832166,1.999969
745,304.325933,83.192187,-38.941024,0.234989,-0.865614,1.999969
746,299.870298,96.192874,-38.941024,0.376715,-0.913466,1.999969
747,284.916457,105.409323,-41.748684,0.445319,-1.015518,1.814481
748,270.939193,106.141756,-45.227741,0.436164,-1.137224,1.706691
749,251.224537,99.244678,-44.617380,0.326299,-1.370382,1.692653
750,232.974746,92.225528,-38.879988,0.266850,-1.742947,1.633204
751,206.973373,90.638590,-27.222095,0.382696,-2.000031,1.448020
752,171.999695,98.390173,-27.283131,0.640635,-2.000031,1.140642
753,141.786831,129.091325,-40.772107,0.779797,-2.000031,0.545174
754,137.758450,163.454643,-50.659953,0.599619,-2.000031,-0.395392
755,98.634318,141.481651,-33.020523,0.270390,-2.000031,-1.371969
756,-6.591897,34.302281,13.855192,0.005371,-2.000031,-1.217182
757,-88.441291,-89.662013,63.111315,0.072999,-1.889921,0.030396
758,-94.666972,-151.552605,88.258183,0.257206,-1.317647,1.218036
759,-121.217670,-187.869078,54.749371,1.208515,-0.869154,-0.176638
760,-151.430533,-102.662699,49.378195,0.296269,0.898085,1.565209
761,-124.086366,-97.657740,25.635157,-0.180789,0.766979,1.293721
762,-75.684749,-91.737240,13.977264,-0.473884,1.083146,0.434455
763,-237.674525,-84.351873,45.960174,-0.501228,0.230350,-0.814343
764,-337.895781,-74.525063,73.914702,0.084596,-0.483650,-0.036133
765,-344.304570,-79.591058,81.788357,1.292256,-0.254520,1.999969
766,-266.422522,-37.598230,46.692607,1.594141,-0.302129,1.999969
767,-115.419242,-7.812619,-2.502480,0.760754,-0.343145,1.999969
768,-82.581827,-5.371176,-7.141222,-1.066423,-0.043580,1.999969
769,-79.713130,-28.381781,33.081559,-1.253925,-0.642466,0.932387
770,-53.650721,-63.843748,41.504540,0.343633,0.208133,0.716442
771,-93.446250,-53.589685,40.588998,1.331075,0.462531,1.733303
772,-81.300069,-13.488975,17.395285,0.331914,-0.456062,1.746853
773,-39.673457,-14.465553,13.733120,-0.922866,-0.118898,0.986099
774,-46.204318,-58.960861,17.761501,0.057618,0.214969,1.167376
775,-55.115587,-46.570535,11.047532,0.702281,0.143435,1.459373
776,-51.575494,-11.352712,10.193027,-0.195071,0.029175,1.101213
777,-54.261082,-21.301595,10.376135,-0.202518,-0.021241,1.070329
778,-42.664225,-26.184482,4.882887,0.227787,0.034058,1.213519
779,-41.016251,-12.085145,3.906310,0.073854,0.054932,1.080461
780,-41.931792,-10.070954,5.127031,-0.045533,0.009766,1.178119
781,-26.245518,-8.300908,2.563516,0.125490,-0.000977,1.150774
782,-18.799115,0.183108,1.586938,0.021729,0.054810,1.021256
783,-24.597543,1.281758,3.601129,0.018677,0.019532,1.072038
784,-16.784924,3.845274,1.342794,0.029908,0.016968,1.073014
785,-17.273213,6.408789,1.403830,-0.004883,0.019043,0.998672
786,-16.968032,6.958114,1.403830,-0.019898,0.013672,0.994156
787,-17.456321,6.103609,1.586938,-0.036744,0.024781,0.971328
788,-19.836728,4.333562,2.380407,-0.028199,0.007935,0.972915
789,-20.691234,2.380407,2.807660,-0.038697,0.010620,0.979629
790,-21.484703,0.061036,3.051804,-0.024292,0.011109,0.978531
791,-22.400244,-0.854505,3.540093,-0.016724,-0.003662,1.006973
792,-22.034028,-1.709010,3.540093,-0.028443,-0.014038,1.021134
793,-20.325017,-2.258335,2.746624,-0.007813,-0.024170,0.979019
794,-20.263981,-2.685588,2.441444,-0.024537,-0.002564,0.988785
795,-22.461280,-4.028382,2.685588,-0.010254,-0.020630,1.001480
796,-20.813306,-3.662165,1.342794,-0.005005,0.016480,1.037247
797,-21.423667,-4.272526,1.037613,-0.035523,-0.005493,1.035904
798,-24.536507,-5.737392,1.403830,0.006714,-0.039796,0.979019
799,-22.217136,-4.943923,0.976577,-0.014405,-0.037964,1.024430
800,-20.263981,-4.638743,0.671397,-0.000732,-0.053223,1.025772
801,-20.019837,-4.211490,1.037613,-0.008057,-0.064210,1.039933
802,-16.601816,-3.601129,0.976577,-0.005493,-0.071168,1.040543
803,-12.939651,-2.685588,0.793469,0.001709,-0.077028,1.032120
804,-9.399557,-1.342794,0.976577,-0.009522,-0.082887,1.012100
805,-6.652934,-1.525902,0.732433,-0.030152,-0.065064,0.951186
806,-8.178836,-4.150454,0.732433,-0.018189,0.046387,0.933364
807,-13.061723,-4.760815,0.671397,-0.006226,-0.045899,0.967178
808,-15.625238,-5.615320,0.305180,-0.023560,-0.049439,0.970962
809,-15.686275,-5.981537,0.427253,0.001831,0.003174,0.967910
810,-23.682002,-7.019150,2.441444,-0.003784,-0.065675,0.958145
811,-25.268940,-7.812619,2.868696,-0.023682,-0.054078,0.969131
812,-26.977951,-9.033341,1.892119,-0.008179,-0.070680,1.002579
813,-27.954528,-9.704738,3.723201,0.010620,-0.073610,1.009415
814,-28.992142,-8.911269,2.746624,0.002441,-0.045777,0.997574
815,-30.579080,-9.948882,1.037613,-0.026856,-0.018555,0.951186
816,-37.537194,-11.352712,0.000000,-0.012329,-0.023194,0.982925
817,-42.236973,-12.451362,-1.037613,-0.036011,-0.054932,0.948013
818,-44.434272,-13.977264,0.000000,0.014282,-0.072511,0.978164
819,-49.988556,-13.061723,0.000000,0.010498,-0.089845,0.990005
820,-51.697566,-11.718929,2.441444,0.093019,-0.101930,1.201923
821,-48.218509,-3.967346,2.136263,0.031373,-0.176028,1.031144
822,-41.870756,-2.136263,3.356985,-0.010742,-0.153567,1.034806
823,-37.476158,-1.647974,1.525902,-0.012696,-0.129885,1.075578
824,-30.823224,-2.380407,-3.662165,-0.070924,-0.150149,0.971572
825,-26.123445,-4.516670,-4.394598,-0.029664,-0.121950,1.000870
826,-37.415122,-3.845274,-19.592584,-0.100343,-0.029664,1.066667
827,-67.872129,2.441444,-42.053864,-0.017823,-0.210330,1.013687
828,-60.608835,3.723201,-36.194400,0.110597,-0.386969,1.134783
829,-24.475471,-0.671397,-9.948882,0.138918,-0.358160,1.042374
830,-10.315099,-2.502480,-1.586938,-0.049683,-0.112673,1.011734
831,-29.236286,-8.911269,-7.080186,0.008423,0.010986,1.002457
832,-52.735180,-6.286717,-15.442130,0.019532,0.131716,0.896742
833,-86.243992,-2.380407,-22.034028,0.113893,0.126345,0.892836
834,-121.339742,-5.798428,-18.616007,-0.046387,0.287480,0.665782
835,-140.016785,-21.484703,-21.606775,0.139773,0.444953,0.627817
836,-218.692302,-28.564889,-35.400931,0.022339,0.577890,1.300069
837,-449.591821,-20.752270,-41.565576,0.387701,0.847181,0.909438
838,-691.050584,-27.710384,-8.300908,-0.458747,0.449836,1.848173
839,-797.924773,-102.540627,48.157473,-0.118532,-0.031250,1.206073
840,-888.563363,-135.866331,62.806134,-0.116457,-0.392096,0.555184
841,-928.175784,-199.404898,71.046006,0.809583,-2.000031,1.752834
842,-1023.331045,-189.700160,218.081941,-0.464729,-0.888441,1.999969
843,-136.842908,-187.197681,-30.945296,-0.177859,-1.616358,1.999969
844,245.731289,-150.209812,-35.217823,-0.011353,0.970840,1.999969
845,139.284352,-96.925307,-54.077974,0.350591,1.684230,1.999969
846,8.667124,-50.293736,-7.629511,-0.346563,1.117571,1.999969
847,16.601816,-26.489662,-6.652934,-0.248905,0.490608,1.652003
848,157.351034,23.865110,-27.771420,-0.414191,0.272099,0.943252
849,192.202640,25.879301,-23.193713,-0.363287,0.369879,0.332280
850,135.255970,4.577707,-6.103609,-0.365118,0.291264,0.340337
851,130.495155,-11.718929,4.394598,-0.329107,0.122805,0.573617
852,174.196994,-15.503166,6.164645,-0.286259,0.169314,0.719615
853,181.033036,-21.972992,11.169604,-0.210941,0.269047,0.993790
854,188.601511,-25.818265,12.085145,-0.117067,0.238285,1.345480
855,228.030823,-19.775692,4.760815,-0.065309,0.227909,1.548486
856,264.103151,-8.850233,-4.272526,-0.073487,0.225223,1.536889
857,285.954070,5.065995,-13.061723,-0.108522,0.035523,1.324361
858,306.279088,20.263981,-18.249790,-0.171878,-0.079957,1.156268
859,315.434501,28.870069,-18.493935,-0.193118,-0.160891,1.109514
860,321.355001,31.494621,-15.808347,-0.204227,-0.224735,1.167254
861,329.167620,28.259709,-12.573434,-0.155764,-0.256962,1.310201
862,338.628214,25.146868,-11.413748,-0.083742,-0.264164,1.461326
863,348.088808,30.579080,-15.991455,-0.032349,-0.378180,1.362570
864,346.868086,50.904097,-24.475471,0.024781,-0.656260,0.939223
865,327.702754,86.976425,-28.625925,0.114748,-0.733288,0.646006
866,283.268483,103.944457,-28.992142,0.162600,-0.630503,0.779919
867,254.825666,88.319219,-33.142596,0.273808,-0.524544,1.118181
868,247.074083,69.520104,-41.992828,0.307866,-0.401495,1.538964
869,229.861906,59.449149,-46.936751,0.321782,-0.424933,1.998322
870,234.073396,58.838788,-52.979324,0.320195,-0.449958,1.999969
871,248.783093,57.312886,-61.402304,0.287968,-0.499641,1.999969
872,258.548867,60.425727,-66.041047,0.252323,-0.563851,1.999969
873,275.700008,65.613794,-70.313573,0.266239,-0.718151,1.999969
874,291.020066,76.234073,-74.952316,0.317144,-0.788464,1.999969
875,288.334478,82.642863,-76.661326,0.356329,-0.818494,1.993805
876,283.085374,83.741512,-78.614481,0.441413,-0.818860,1.861112
877,276.127260,82.520790,-82.642863,0.514046,-0.811536,1.798367
878,264.408331,82.520790,-88.746471,0.556161,-0.875624,1.718410
879,252.445258,89.051652,-96.437018,0.500374,-1.025528,1.600488
880,235.049973,104.676890,-100.404364,0.360235,-1.262959,1.357076
881,207.644770,122.743572,-97.901884,0.205081,-1.567285,1.168597
882,169.497215,134.218357,-82.642863,0.087648,-1.974640,1.166522
883,134.401465,139.711604,-58.228428,0.161990,-2.000031,1.069596
884,101.441978,136.659800,-32.898451,0.273564,-2.000031,0.874525
885,85.267414,126.955062,-11.352712,0.332036,-2.000031,0.283696
886,85.023270,102.479591,4.760815,0.349248,-2.000031,-0.469123
887,28.564889,46.326390,29.419394,0.292485,-2.000031,-0.925673
888,-116.700999,-72.205692,59.449149,0.171145,-2.000031,-2.000031
889,-311.467155,-229.373617,110.231174,1.019791,-1.690089,-0.384649
890,-159.243153,-196.108949,70.923934,1.014054,-0.160281,1.999969
891,-76.539254,-90.272374,38.635843,0.076417,1.471336,1.999969
892,-142.641337,-92.774853,54.077974,-0.441657,0.837415,-0.093385
893,-302.250706,-130.678264,80.750744,-0.036744,-0.356573,-0.968276
894,-356.694896,-119.264515,101.075761,0.704356,-0.437751,1.626368
895,-335.515373,-80.445563,93.324178,1.681910,-0.177615,1.999969
896,-191.653315,-42.236973,45.593957,1.924224,-0.055787,1.999969
897,-90.333410,2.014191,-7.263294,0.986221,0.076295,1.688502
898,-141.908904,-5.432212,-7.202258,-0.861097,-0.209476,1.999969
899,-120.668345,-34.729534,26.916915,-2.000031,-0.726085,1.476707
900,-65.796902,-102.357519,62.317845,-1.107439,-0.272709,0.808362
901,-84.107729,-143.495842,61.951629,1.830838,0.671275,1.999969
902,-54.383154,-59.449149,6.958114,1.751247,-0.036866,1.305440
903,-50.720989,-1.159686,-7.080186,-0.768688,0.146120,1.262226
904,-64.393072,-50.232700,5.493248,-0.482673,-0.206546,1.271626
905,-19.897765,-61.524376,-3.906310,0.809216,0.110964,1.417136
906,-32.776379,-19.592584,-4.455634,0.248295,0.094118,1.033341
907,-35.278859,-13.611048,-4.089418,-0.244266,-0.065797,1.081926
908,-26.001373,-29.541466,1.342794,0.084596,0.002075,1.022721
909,-17.639429,-21.484703,-0.610361,0.268681,0.065064,1.122698
910,-22.217136,-8.972305,1.709010,0.118288,-0.103395,1.023819
911,-10.193027,-4.699779,4.089418,0.086915,0.019654,1.032853
912,-8.972305,-1.342794,5.065995,0.112062,0.091798,0.975113
913,-17.883574,1.342794,5.615320,0.035035,0.044800,1.019425
914,-16.418708,0.793469,5.127031,0.013428,0.037476,0.968276
915,-18.005646,-0.671397,4.272526,0.058473,0.066773,0.963638
916,-21.423667,-0.549325,3.540093,0.056519,0.074342,0.971084
917,-24.719615,-2.624552,3.234913,-0.027588,0.121950,1.017838
918,-27.283131,-7.080186,3.906310,0.027710,-0.013062,0.912123
919,-26.062409,-8.300908,2.990768,0.033326,0.031250,0.955337
920,-31.982910,-10.254063,3.356985,0.033448,0.030396,0.967056
921,-34.363317,-10.620279,3.418021,0.046143,-0.021973,1.076677
922,-27.832456,-8.728161,2.502480,0.058961,-0.023438,1.011978
923,-25.635157,-8.484016,2.014191,0.058473,0.005982,1.033585
924,-25.452049,-7.385367,1.709010,0.057130,-0.004883,1.007584
925,-23.376822,-7.141222,1.037613,0.067750,-0.022217,1.029923
926,-21.545739,-6.347753,-0.244144,0.080812,-0.062013,1.049821
927,-20.202945,-5.737392,-1.281758,0.064454,-0.031983,1.291646
928,-13.733120,-6.286717,0.732433,0.140261,-0.026978,1.031266
929,-14.953841,-4.028382,0.488289,-0.012085,0.006836,0.924575
930,-19.348440,-6.469825,0.183108,0.080446,0.012940,0.988663
931,-23.559930,-5.249104,-0.244144,0.051514,-0.042603,0.998428
932,-18.982223,-5.737392,-0.244144,0.063966,-0.017578,1.010758
933,-19.592584,-5.127031,-0.305180,0.061524,-0.015259,0.978531
934,-23.682002,-5.432212,-0.671397,0.068849,-0.033448,0.999771
935,-21.667811,-5.310140,-0.305180,0.076051,-0.039918,1.003189
936,-22.583352,-4.882887,0.000000,0.079225,-0.033204,0.989029
937,-26.428626,-2.929732,-0.305180,0.098756,-0.070314,1.069108
938,-22.461280,-1.525902,0.366217,0.071901,-0.078737,1.019303
939,-21.728847,1.647974,1.770047,0.150759,0.094728,0.885145
940,-23.804074,-0.915541,1.586938,0.091310,-0.044923,1.001358
941,-19.470512,-0.854505,1.403830,0.094362,-0.052979,0.994156
942,-24.475471,0.793469,0.793469,0.065187,-0.043580,0.985855
943,-27.893492,1.586938,0.366217,0.070680,-0.041993,1.015518
944,-36.316472,4.333562,-0.854505,0.074586,-0.051637,1.014298
945,-40.527962,4.760815,-0.183108,0.054932,-0.087282,0.990005
946,-39.734493,3.845274,-0.732433,0.036011,-0.087648,1.023697
947,-40.772107,4.028382,-0.732433,0.078004,-0.094606,1.008682
948,-42.725261,5.310140,1.586938,0.070069,-0.111818,1.005264
949,-37.903410,7.995727,7.385367,0.168704,-0.114626,1.033463
950,-49.683375,12.024109,8.484016,0.026368,-0.134768,1.024918
951,-38.025483,11.657893,8.056764,0.042237,-0.118898,0.983413
952,-32.043946,9.460594,3.540093,0.022339,-0.044923,1.024674
953,-38.452735,8.545052,-2.563516,0.001099,-0.081056,1.007828
954,-39.856565,8.422980,-14.587625,-0.054688,-0.115236,0.938369
955,-38.818952,5.188067,-23.987182,-0.005615,-0.093263,1.043595
956,-45.777066,9.338521,-41.748684,0.068605,-0.188479,0.958145
957,-38.879988,7.080186,-42.359045,0.187991,-0.361822,1.032242
958,-13.794156,5.554284,-14.831769,0.299687,-0.311650,1.153948
959,-3.967346,11.535821,17.456321,0.159060,-0.036255,1.015763
960,-42.053864,27.344167,11.535821,0.016602,0.281010,0.953140
961,-113.099870,39.673457,0.427253,0.037476,0.340459,0.835828
962,-170.046540,38.452735,-1.770047,-0.215213,0.564462,0.655650
963,-202.517739,-14.160372,-7.873655,-0.715587,0.107057,0.577768
964,-240.177005,-55.481804,-20.630198,-0.063233,0.390265,1.054093
965,-431.830320,-132.204166,-24.353399,-0.294438,0.236088,1.102312
966,-664.011597,-261.844816,45.838102,-0.397223,0.271000,1.691676
967,-797.375448,-296.391241,74.097810,-0.010864,0.043336,1.414694
968,-893.202106,-237.308309,101.930266,0.549569,-0.248539,1.191547
969,-1135.454337,-223.025864,200.320439,-0.213870,-1.342428,1.999969
970,-434.271763,-9.887846,88.929580,-0.875624,-0.912856,1.999969
971,278.751812,63.172351,-76.600290,-0.087526,0.992691,1.999969
972,304.020752,75.318532,-85.267414,-0.383429,1.671168,1.999969
973,125.185016,38.086519,-71.229114,-0.651865,0.583505,1.302876
974,-7.080186,-30.823224,13.550011,-0.443000,0.437018,0.408576
975,-7.202258,-31.433585,35.095750,-0.150637,0.264775,0.362799
976,84.657053,1.831083,9.826810,-0.216800,0.161501,0.618906
977,103.089952,13.855192,10.620279,-0.062135,0.387701,0.466682
978,66.651408,9.033341,16.174563,-0.002930,0.377325,0.670420
979,83.131151,3.601129,13.061723,0.072267,0.353277,0.868910
980,121.400778,3.662165,3.723201,0.135988,0.457527,0.948379
981,128.603037,1.647974,-3.051804,0.186893,0.502937,1.101213
982,142.397192,2.441444,-12.451362,0.183719,0.433845,1.233539
983,178.164340,10.498207,-24.048219,0.174197,0.430549,1.231464
984,199.160754,20.386053,-34.119173,0.132937,0.390997,1.221088
985,212.405585,29.968719,-41.260395,0.107179,0.283085,1.244160
986,232.303349,38.574807,-46.143282,0.082277,0.199710,1.318257
987,251.529717,41.687648,-48.279545,0.081300,0.122805,1.395895
988,271.976806,41.321431,-49.317159,0.082643,0.033814,1.371969
989,291.813535,40.283818,-50.843061,0.126101,-0.001343,1.355489
990,302.800031,41.199359,-53.528649,0.176638,-0.023194,1.416037
991,307.316701,45.105669,-57.740139,0.208743,-0.130495,1.453147
992,309.147784,57.129778,-63.233387,0.149172,-0.330816,1.259419
993,308.659495,87.464714,-70.069429,0.187869,-0.696300,0.542367
994,285.465782,109.315633,-65.796902,0.208255,-0.583871,0.188602
995,226.016632,84.473945,-63.416495,0.287236,-0.432013,0.336797
996,190.432593,57.007706,-65.064469,0.385382,-0.245365,1.245258
997,161.196307,49.744411,-70.740826,0.478035,-0.093629,1.999969
998,170.412757,67.139696,-80.262455,0.431403,-0.349859,1.999969
999,266.849775,99.183642,-91.920348,0.286625,-0.672862,1.999969
1000,303.715572,119.386587,-95.521477,0.171756,-0.812634,1.726955
1001,242.801556,106.446937,-79.896239,0.078859,-0.880385,1.834134
1002,228.763256,85.938811,-65.308614,0.116457,-0.912856,1.999969
1003,267.277028,85.145342,-58.533608,0.191897,-0.930312,1.999969
1004,300.053407,103.028916,-54.016938,0.404913,-0.935439,1.999969
1005,295.353628,117.738613,-52.307927,0.544686,-0.981582,1.696071
1006,276.188296,119.996948,-51.758602,0.636606,-1.061295,1.456931
1007,257.328145,113.893339,-53.223468,0.634043,-1.130266,1.464012
1008,236.881056,108.461128,-53.223468,0.524422,-1.321920,1.550927
1009,220.950637,110.780499,-47.364004,0.343633,-1.636866,1.547143
1010,199.282826,114.808881,-32.288090,0.155154,-2.000031,1.352316
1011,168.703746,118.043793,-10.559243,0.208988,-2.000031,0.897475
1012,130.495155,126.405737,3.112840,0.380011,-2.000031,0.406256
1013,102.601663,142.702373,5.615320,0.571420,-2.000031,-0.430426
1014,70.740826,122.072175,21.301595,0.645762,-2.000031,-1.160418
1015,-21.118486,31.494621,53.894865,0.603647,-2.000031,-0.938125
1016,-96.131838,-65.980011,89.112688,0.499397,-1.944610,0.382940
1017,-159.060044,-168.825818,64.271000,1.103655,-0.927993,0.344244
1018,-118.532082,-128.480964,58.350500,0.747936,0.988418,1.999969
1019,-108.766308,-60.852979,34.424353,-0.231571,1.357443,1.760525
1020,-108.583200,-71.717403,15.747311,-0.815564,0.933242,-0.033936
1021,-295.109483,-105.287251,61.768521,-0.914687,-0.315068,-0.717906
1022,-357.488365,-94.239719,106.935225,0.117556,-0.791516,0.773083
1023,-310.063325,-64.637217,108.705272,1.590845,-0.141360,1.999969
1024,-264.896620,-42.908370,61.219196,1.999969,-0.010498,1.999969
1025,-203.677424,-9.826810,17.883574,1.018448,-0.320439,1.999969
1026,-150.881209,-13.305867,13.733120,-1.032975,-0.162234,1.999969
1027,-121.217670,-49.805447,38.635843,-1.658228,-0.586557,1.562646
1028,-50.171664,-108.094911,51.270314,0.173098,0.193973,1.351095
1029,-82.215610,-105.043107,37.293050,1.728542,0.224002,1.769924
1030,-61.707485,-32.043946,3.906310,0.539071,-0.071168,1.643824
1031,-49.073014,-36.255436,7.812619,-0.846693,-0.186404,1.058122
1032,-43.335622,-80.872816,14.343481,0.340093,0.165042,1.472313
1033,-35.828183,-53.040360,3.234913,0.609873,0.101686,1.136126
1034,-53.284504,-29.175250,6.591897,-0.127565,0.136110,1.224872
1035,-54.566262,-35.584039,2.868696,-0.150881,-0.122194,1.092180
1036,-26.611734,-38.452735,-2.929732,0.165286,0.049195,1.129900
1037,-41.260395,-28.992142,2.258335,0.175174,0.042237,1.260883
1038,-26.977951,-20.141909,2.746624,0.060182,-0.072999,1.162127
1039,-11.474784,-14.160372,3.234913,0.115969,0.030274,1.009781
1040,-20.996414,-10.131991,5.920500,0.063478,0.049073,0.973648
1041,-25.635157,-8.728161,7.385367,0.072145,0.009277,0.987686
1042,-27.283131,-7.568475,7.629511,0.056153,0.013916,0.978653
1043,-30.029755,-7.263294,7.507439,0.051759,-0.002686,0.983536
1044,-28.137636,-7.751583,5.249104,0.053468,-0.045777,1.055558
1045,-21.179522,-7.141222,3.356985,0.041505,-0.060060,1.024552
1046,-17.517357,-7.019150,2.380407,0.060670,-0.038819,1.010147
1047,-16.113527,-6.103609,1.770047,0.042603,-0.050294,0.992447
1048,-12.451362,-6.225681,0.244144,-0.025513,-0.076905,1.032364
1049,-15.869383,-3.601129,1.342794,0.037476,-0.204349,0.932753
1050,-12.390326,-2.685588,1.709010,0.059815,-0.019532,0.976944
1051,-14.038300,-5.127031,1.586938,0.044678,-0.018799,0.955703
1052,-19.470512,-5.615320,0.793469,0.073243,-0.027710,0.992691
1053,-18.249790,-5.615320,0.000000,0.043580,-0.034913,0.991348
1054,-18.799115,-5.737392,-0.854505,0.078492,-0.067750,0.976699
1055,-18.616007,-4.638743,-1.403830,0.048707,-0.023926,1.021866
1056,-21.362631,-5.004959,-0.671397,0.077150,-0.058595,0.976211
1057,-20.141909,-4.272526,-0.427253,0.078737,-0.054810,0.993668
1058,-21.118486,-4.211490,0.549325,0.077760,-0.044556,0.989273
1059,-23.071641,-3.906310,1.098650,0.056641,-0.075929,1.007950
1060,-16.845960,-4.638743,2.014191,0.071046,-0.072877,1.052018
1061,-13.611048,-4.516670,1.892119,0.068116,-0.071778,0.998672
1062,-14.709697,-1.709010,0.671397,0.088136,-0.100465,0.998795
1063,-12.939651,-1.647974,0.976577,0.069093,-0.068238,1.002579
1064,-11.474784,-1.586938,1.220722,0.078004,-0.052735,1.011002
1065,-14.160372,-1.220722,1.342794,0.069093,-0.060914,1.017227
1066,-12.573434,-0.061036,1.464866,0.090455,-0.063966,1.013443
1067,-14.831769,0.976577,1.709010,0.082033,-0.053468,0.990249
1068,-16.601816,1.953155,1.770047,0.073854,-0.062745,0.986465
1069,-19.897765,4.028382,2.075227,0.166873,0.058473,0.851453
1070,-24.597543,2.990768,1.220722,0.085939,-0.042603,0.987442
1071,-20.508125,3.173877,0.366217,0.049073,-0.044190,0.930556
1072,-29.114214,1.831083,-1.525902,0.049195,-0.054932,0.989639
1073,-30.762188,1.342794,-3.173877,0.054566,-0.094972,1.000137
1074,-30.334936,0.732433,-3.845274,0.035035,-0.108278,0.999161
1075,-32.776379,1.281758,-3.723201,0.073365,-0.097658,0.983291
1076,-35.584039,2.319371,-1.037613,0.096681,-0.099001,0.983780
1077,-31.799802,5.310140,4.577707,0.080812,-0.097658,1.007462
1078,-41.809720,5.737392,7.385367,0.071412,-0.114748,0.991348
1079,-37.598230,6.775006,8.484016,0.076051,-0.143435,1.039322
1080,-30.945296,6.897078,8.484016,0.033814,-0.115602,1.022843
1081,-29.785611,6.897078,6.225681,0.057008,-0.093141,0.960098
1082,-28.931106,4.943923,1.098650,-0.042725,-0.129641,0.966812
1083,-27.222095,2.624552,-6.591897,-0.012451,-0.152102,0.983291
1084,-34.119173,3.967346,-12.512398,-0.011353,-0.076905,1.148577
1085,-45.105669,8.422980,-32.288090,-0.012085,-0.114260,1.125139
1086,-42.786297,10.437171,-39.490349,0.116335,-0.292241,1.127337
1087,-17.029068,11.657893,-24.292363,0.199222,-0.443732,1.100114
1088,8.239872,13.733120,5.798428,0.175051,-0.212528,1.041886
1089,11.413748,16.845960,19.653620,0.024903,0.103151,0.940688
1090,-29.602502,23.987182,4.394598,-0.041505,0.239750,0.895033
1091,-95.948730,28.503853,-4.699779,0.081178,0.208133,0.901015
1092,-151.735714,30.823224,15.686275,-0.053468,0.476081,0.776989
1093,-215.274281,13.794156,2.685588,-0.199588,0.468513,-0.081056
1094,-214.785992,-30.884260,23.743038,0.043458,1.018326,1.410544
1095,-486.152438,-24.841688,-50.659953,0.367437,0.658091,1.316304
1096,-688.487068,-65.552758,9.033341,-0.494514,0.151614,1.911650
1097,-767.711910,-136.110475,26.245518,-0.165652,-0.156252,1.378561
1098,-862.623026,-137.758450,49.439231,0.182864,-0.398077,0.992935
1099,-1072.465095,-147.829404,159.853513,-0.417243,-1.422507,1.999969
1100,-516.731518,-35.339895,92.774853,-1.423239,-0.645640,1.999969
1101,211.245899,17.090105,-72.632944,-0.402960,0.724376,1.999969
1102,225.345235,40.466926,-82.215610,-0.415167,1.404074,1.399435
1103,5.798428,28.809033,-47.791257,-0.752453,0.589487,1.471336
1104,-138.735027,-51.697566,34.546426,-0.508919,0.477424,1.229389
1105,-70.679789,-47.547112,39.734493,-0.289677,0.274052,1.315084
1106,102.174411,-20.813306,10.742351,-0.305791,0.401617,0.964614
1107,93.690394,-20.813306,13.977264,-0.183352,0.565438,0.640635
1108,46.265354,-28.809033,21.972992,-0.170413,0.426032,0.859144
1109,85.267414,-26.733806,19.226368,-0.128298,0.388434,1.045792
1110,132.326238,-27.038987,12.939651,-0.086793,0.478889,1.008927
1111,139.406424,-34.973678,11.596857,-0.063844,0.461311,1.066789
1112,158.937972,-34.790570,4.760815,-0.019409,0.400153,1.210224
1113,191.958495,-20.569162,-5.432212,-0.002686,0.365728,1.197528
1114,211.429007,-2.502480,-13.794156,-0.038453,0.338750,1.211078
1115,224.734875,11.841001,-20.386053,-0.064332,0.189456,1.187762
1116,247.745480,20.996414,-24.048219,-0.104616,0.071412,1.185321
1117,264.591440,22.949569,-24.353399,-0.120241,-0.005249,1.155413
1118,276.066224,21.911955,-22.278172,-0.107912,-0.063966,1.224140
1119,288.151370,20.019837,-20.813306,-0.090089,-0.099489,1.378073
1120,299.626154,20.263981,-20.019837,-0.068605,-0.104005,1.700099
1121,314.641032,26.916915,-21.240558,-0.018067,-0.215213,1.757473
1122,339.238575,36.743725,-25.268940,0.025025,-0.309697,1.515038
1123,343.999390,45.716030,-31.494621,0.070436,-0.463020,1.002213
1124,324.773022,60.791943,-39.307240,0.174441,-0.603403,0.542367
1125,286.381323,89.539940,-46.875715,0.257816,-0.633555,0.460700
1126,230.777447,98.207065,-48.523690,0.226566,-0.474617,0.754162
1127,208.133059,82.642863,-52.674144,0.215335,-0.361700,1.376364
1128,193.789578,69.275959,-54.016938,0.181399,-0.246830,1.999969
1129,198.062104,71.412222,-54.627298,0.147097,-0.370489,1.999969
1130,253.421836,90.760662,-57.679103,0.180423,-0.658946,1.999969
1131,279.850462,109.376669,-60.059510,0.176638,-0.707164,1.999969
1132,248.966201,104.798962,-53.162432,0.145022,-0.779797,1.999969
1133,254.764630,90.516518,-47.791257,0.232059,-0.879408,1.999969
1134,280.643931,87.098497,-49.805447,0.390021,-0.861952,1.999969
1135,279.789426,88.990616,-53.223468,0.526741,-0.863905,1.999969
1136,277.775235,90.760662,-59.449149,0.583749,-0.888075,1.771633
1137,271.671626,86.366064,-66.956588,0.560433,-0.908217,1.609766
1138,256.229496,78.858625,-72.022583,0.464240,-1.000381,1.556054
1139,243.167773,74.830243,-73.975738,0.312871,-1.165179,1.521508
1140,228.946365,74.464027,-70.984970,0.140261,-1.438621,1.391623
1141,210.025177,75.806821,-60.547799,0.036378,-1.816678,1.148455
1142,181.155108,83.619440,-43.945983,0.132448,-2.000031,0.888319
1143,136.659800,96.498054,-31.067369,0.312627,-2.000031,0.552987
1144,99.977111,118.776226,-22.949569,0.420294,-2.000031,-0.036988
1145,75.501640,125.917449,-18.188754,0.284550,-2.000031,-0.555306
1146,20.141909,78.553445,10.193027,0.074708,-2.000031,-0.797375
1147,-55.481804,-11.963073,50.659953,0.030030,-1.851469,-0.245853
1148,-85.267414,-86.060884,78.309300,0.092164,-1.459861,0.641611
1149,-86.121920,-110.658427,87.891966,0.386847,-1.346090,-2.000031
1150,-187.747005,-144.960708,66.834516,0.442512,-0.016114,0.759533
1151,-155.642023,-156.008240,56.763561,0.047486,-0.214969,1.712551
1152,-66.224155,-90.150301,61.585412,-0.306889,1.238178,0.736950
1153,-185.305562,-129.823758,78.492409,-0.145632,0.569955,-0.889906
1154,-359.258412,-147.280079,104.310674,0.835340,-0.270268,-0.347051
1155,-389.776455,-114.137484,96.131838,1.455711,-0.438727,1.999969
1156,-304.325933,-79.591058,65.186542,1.791287,-0.447272,1.999969
1157,-137.331197,-31.311513,13.061723,1.234760,-0.299443,1.999969
1158,-122.499428,-10.803388,-4.943923,-0.209964,0.022095,1.662501
1159,-162.233921,-12.146181,29.785611,-1.410666,-0.164309,1.999969
1160,-131.960021,-65.491722,53.223468,-0.953384,-0.570809,1.209125
1161,-80.689708,-110.353246,50.782025,0.834974,0.290532,1.999969
1162,-84.901198,-74.830243,20.813306,1.710231,0.046265,1.976837
1163,-51.514458,-11.047532,-3.418021,-0.099733,0.166384,1.279072
1164,-65.064469,-37.964446,4.211490,-0.732677,-0.181155,1.365133
1165,-39.856565,-70.008392,8.728161,0.549935,-0.006348,1.315694
1166,-24.170291,-33.752956,-1.281758,0.455573,0.118410,1.462913
1167,-38.391699,-13.977264,0.549325,-0.125856,-0.131594,1.168841
1168,-1.892119,-17.822538,-0.183108,0.042603,0.037232,1.112688
1169,-8.178836,-15.503166,-2.685588,0.088991,0.066896,0.938857
1170,-19.775692,-12.146181,0.427253,0.026856,0.046021,0.990249
1171,-17.700465,-9.277485,0.427253,0.108278,0.041993,1.010025
1172,-21.545739,-1.709010,2.014191,0.116579,0.021241,1.024796
1173,-21.179522,5.188067,3.234913,0.096559,-0.009522,1.073747
1174,-16.906996,8.117800,5.065995,0.078126,0.035035,1.046403
1175,-16.235599,8.117800,4.882887,-0.005493,0.016968,0.998917
1176,-16.601816,5.188067,3.906310,0.004883,-0.047852,0.909560
1177,-15.564202,1.098650,4.577707,0.063478,0.146853,1.093523
1178,-16.601816,0.488289,4.333562,0.015137,0.045411,0.976944
1179,-16.235599,-1.647974,2.014191,-0.043702,0.023194,0.984878
1180,-15.197986,-5.493248,1.586938,0.067262,0.083375,1.050309
1181,-12.573434,-4.516670,2.380407,0.041871,0.002564,1.033829
1182,-11.963073,-2.014191,1.586938,0.041016,-0.017334,0.996597
1183,-10.315099,-1.281758,2.014191,0.046509,-0.073976,0.945083
1184,-9.277485,-1.281758,2.685588,0.051148,0.092775,1.091691
1185,-8.606088,-0.854505,3.418021,0.055543,0.022705,1.033585
1186,-7.507439,-0.488289,3.112840,0.012818,-0.000244,0.999771
1187,-6.591897,-0.732433,1.342794,0.026856,0.017456,0.976211
1188,-7.751583,-1.464866,1.342794,0.027100,-0.003296,0.980362
1189,-8.178836,-2.868696,1.220722,0.015625,-0.002197,0.954726
1190,-11.596857,-4.638743,1.525902,0.007568,0.029297,0.971939
1191,-10.437171,-6.225681,0.671397,0.018677,0.019409,0.988052
1192,-12.634470,-8.117800,0.854505,0.033570,0.004395,1.010391
1193,-10.986496,-7.385367,-1.037613,0.047974,-0.065187,0.972305
1194,-10.498207,-7.934691,-0.488289,0.045655,-0.021729,1.015885
1195,-10.376135,-8.300908,-0.610361,0.041627,0.022950,1.004044
1196,-10.864424,-7.690547,-0.854505,0.049683,-0.014282,0.982193
1197,-11.963073,-7.690547,-1.403830,0.067750,-0.077760,0.961807
1198,-10.925460,-6.836042,-0.915541,0.060304,-0.050416,1.000626
1199,-13.122759,-6.469825,-0.122072,0.043214,-0.009888,0.991470
1200,-16.418708,-6.591897,0.793469,0.055055,-0.002441,0.991836
1201,-17.334249,-5.798428,0.732433,0.064698,-0.037964,0.958755
1202,-20.080873,-5.676356,1.464866,0.065064,-0.015137,0.990860
1203,-22.461280,-4.943923,1.159686,0.074952,-0.037964,0.991592
1204,-24.292363,-3.845274,1.098650,0.070680,-0.057740,0.919570
1205,-22.522316,-2.929732,0.793469,0.068605,-0.036500,0.986343
1206,-28.259709,-3.234913,1.647974,0.062501,-0.051637,0.985611
1207,-28.076600,-3.662165,2.014191,0.019898,-0.041627,0.948501
1208,-29.785611,-5.371176,2.746624,0.078859,0.016724,1.044083
1209,-38.574807,-0.305180,3.234913,0.064698,-0.051637,0.963272
1210,-42.481117,0.305180,4.882887,0.057862,-0.117189,1.035904
1211,-37.170977,1.403830,6.286717,0.032715,-0.110842,1.029923
1212,-32.593271,1.709010,6.591897,0.080446,0.028199,0.976822
1213,-44.861524,7.873655,5.371176,0.013184,0.016480,0.932876
1214,-64.576181,1.464866,4.394598,0.033814,-0.087892,1.027726
1215,-49.500267,3.418021,-0.427253,0.016236,-0.071901,0.996597
1216,-45.105669,0.183108,-7.568475,0.005982,-0.067384,1.047745
1217,-53.223468,-1.342794,-17.029068,-0.035157,-0.124636,1.013443
1218,-66.895552,5.615320,-29.297322,-0.011963,-0.061524,1.116106
1219,-77.027543,9.460594,-48.279545,0.024781,-0.255619,1.113176
1220,-48.462654,0.793469,-36.499580,0.215335,-0.405768,1.091814
1221,-7.080186,-1.159686,-9.338521,0.223148,-0.344488,1.170916
1222,-10.009918,7.751583,9.033341,0.139284,0.016236,1.060929
1223,-52.613108,23.132677,-6.225681,0.108888,0.284672,0.911635
1224,-113.282979,37.048905,-16.662852,0.058961,0.424445,0.718517
1225,-193.850614,41.748684,-24.902724,-0.195071,0.790417,0.652598
1226,-241.153582,-7.629511,-21.362631,-0.484382,0.039307,0.908217
1227,-268.497749,-55.909056,4.577707,-0.218631,0.930434,1.461448
1228,-497.566186,-112.123293,-53.894865,-0.537728,0.165042,0.902480
1229,-682.993820,-244.754711,52.491035,-0.274784,0.102907,1.603174
1230,-841.626612,-320.744640,94.972152,-0.039551,0.016968,0.973770
1231,-956.679637,-281.010147,136.415656,0.574960,-1.086809,1.794461
1232,-1226.947433,-263.859007,282.475013,-0.710216,-1.065934,1.999969
1233,-245.853361,-72.938125,55.481804,-0.418708,-1.583398,1.999969
1234,385.809110,48.584726,-39.917601,-0.167605,0.851698,1.999969
1235,275.455863,96.864271,-58.045319,-0.048585,1.272236,1.497581
1236,65.857939,55.542840,7.263294,-0.821546,0.733654,0.925673
1237,-62.745098,-30.151827,77.576867,-0.422736,0.418952,0.460456
1238,-12.512398,-25.696193,95.338369,-0.214969,0.421027,0.510994
1239,112.489509,-4.028382,57.312886,-0.113283,0.254765,0.612070
1240,126.039521,6.713970,50.293736,0.116335,0.483650,0.397467
1241,79.041733,8.728161,47.119860,0.207156,0.472419,0.656260
1242,95.277333,12.268254,34.424353,0.210697,0.411261,0.934829
1243,146.791791,7.934691,18.249790,0.204349,0.475715,1.057389
1244,166.140230,-8.606088,6.836042,0.262699,0.505257,1.151141
1245,184.573129,-16.235599,-6.897078,0.288579,0.446662,1.310689
1246,216.983291,-6.836042,-24.719615,0.278325,0.375616,1.410910
1247,243.900206,10.864424,-41.016251,0.227298,0.271122,1.394797
1248,262.455177,27.405203,-51.331350,0.162112,0.146609,1.389792
1249,281.437400,37.048905,-56.763561,0.073487,0.002075,1.408957
1250,301.884489,39.185168,-55.786984,0.036500,-0.092531,1.454002
1251,321.538109,39.185168,-52.613108,0.075441,-0.159548,1.457053
1252,336.919203,40.894179,-50.110628,0.152346,-0.190799,1.426780
1253,342.534524,46.204318,-51.331350,0.238895,-0.258183,1.445823
1254,340.459297,57.312886,-58.228428,0.373175,-0.495613,1.062516
1255,327.153429,74.586099,-72.083619,0.454353,-0.820447,0.499153
1256,298.100252,95.704585,-78.614481,0.519051,-0.725963,0.300664
1257,236.453803,75.867857,-86.182956,0.465339,-0.568490,0.596689
1258,206.607156,53.345541,-92.652781,0.354131,-0.416388,1.392233
1259,187.930114,49.439231,-97.108415,0.259892,-0.367315,1.999969
1260,192.935073,70.130465,-97.047379,0.140017,-0.584482,1.999969
1261,259.403372,97.779812,-99.122606,0.046143,-0.920180,1.999969
1262,279.545281,119.325551,-92.896925,-0.081910,-1.002579,1.741360
1263,228.030823,115.480278,-71.595331,-0.146731,-1.132952,1.723171
1264,207.705806,99.488823,-47.547112,-0.030762,-1.183978,1.999969
1265,230.106050,88.502327,-32.410163,0.214603,-1.122332,1.999969
1266,267.887388,90.150301,-27.466239,0.535897,-0.994522,1.999969
1267,275.333791,93.141070,-29.358358,0.718395,-0.929824,1.729030
1268,260.013733,84.596017,-31.799802,0.712657,-0.972183,1.421775
1269,251.651789,63.965820,-35.645075,0.571664,-1.025040,1.335714
1270,236.575875,43.396658,-37.476158,0.333745,-1.162860,1.344015
1271,222.964828,36.865797,-36.072328,0.037964,-1.412985,1.254292
1272,208.865492,48.157473,-29.419394,-0.218509,-1.687160,0.988174
1273,181.155108,65.857939,-16.052491,-0.323125,-1.968780,0.672129
1274,138.918135,85.511559,2.685588,-0.232303,-2.000031,0.404425
1275,92.591745,107.118334,20.874342,-0.105470,-2.000031,0.090822
1276,52.552071,127.870604,31.677729,-0.083131,-2.000031,-0.184817
1277,5.920500,114.686809,55.909056,-0.112184,-2.000031,-0.240848
1278,-56.153201,59.632258,88.380255,-0.133181,-2.000031,-2.000031
1279,-206.729229,-93.324178,136.537728,0.574228,-1.987945,-1.059831
1280,-278.385595,-172.854200,122.987716,1.541161,-1.418357,0.673228
1281,-129.030289,-88.014038,46.692607,0.837903,0.477790,1.999969
1282,-137.819486,-101.319905,34.607462,0.560311,1.396994,1.999969
1283,-205.203326,-108.461128,35.523003,0.884535,0.543587,1.080095
1284,-220.523384,-66.590372,13.427939,0.508186,-0.479011,-0.094850
1285,-237.735561,-55.542840,18.860151,-0.011719,-0.135256,1.496727
1286,-258.487831,-23.498894,31.372549,0.147951,-0.133547,1.999969
1287,-179.690242,1.037613,22.339208,0.198856,-0.428351,1.999969
1288,-101.625086,11.108568,15.197986,-0.178470,-0.092775,1.286519
1289,-159.548333,-26.123445,34.424353,-0.800183,-0.283574,1.684962
1290,-108.278019,-61.829557,39.002060,-0.492195,-0.412604,1.282124
1291,-73.304341,-89.356832,30.640116,0.923476,0.236576,1.999969
1292,-51.880674,-50.598917,8.239872,0.938125,-0.107424,1.999969
1293,-13.916228,-11.169604,-3.662165,-0.373297,0.120241,1.098405
1294,-49.256123,-34.302281,12.634470,-0.174929,0.058473,0.826673
1295,-49.378195,-32.959487,8.056764,0.525032,0.100099,1.575708
1296,-37.476158,-3.418021,0.671397,0.108644,-0.003418,1.165179
1297,-36.682689,-0.061036,4.028382,-0.214725,-0.013550,0.994400
1298,-34.973678,-7.446403,6.164645,0.111574,0.025513,1.259052
1299,-24.231327,-0.610361,5.371176,0.100832,0.020996,1.066300
1300,-23.132677,3.967346,5.615320,-0.010010,0.038087,1.026871
1301,-26.123445,3.845274,6.958114,0.027832,-0.000610,1.078141
1302,-19.165332,5.981537,5.615320,0.002564,0.016724,1.037858
1303,-20.325017,5.859464,5.798428,0.016236,0.013428,1.055436
1304,-17.517357,7.202258,4.211490,0.016602,0.006470,1.017716
1305,-15.991455,7.995727,4.028382,0.022217,0.019043,1.012100
1306,-16.845960,8.667124,3.906310,-0.015625,0.016114,0.981949
1307,-17.944610,8.300908,3.723201,-0.012940,0.024170,0.996841
1308,-19.226368,7.629511,4.821851,-0.035157,0.009522,0.947646
1309,-19.714656,4.943923,4.760815,-0.083131,0.002686,0.957656
1310,-21.545739,0.976577,4.455634,-0.032227,-0.013794,1.018326
1311,-20.019837,0.122072,3.234913,-0.027100,0.004517,1.025406
1312,-18.921187,-0.427253,1.892119,-0.043091,-0.009155,0.991348
1313,-20.569162,-2.746624,1.403830,-0.047974,0.004028,1.027848
1314,-20.019837,-3.356985,0.976577,-0.021729,-0.030152,1.004410
1315,-15.808347,-3.051804,0.183108,-0.050050,-0.018799,1.002457
1316,-16.662852,-1.709010,-1.159686,0.096681,-0.187137,0.786877
1317,-10.925460,-1.403830,-1.098650,-0.086305,0.007568,1.090227
1318,-17.151141,-2.929732,1.342794,0.000000,-0.034180,1.004288
1319,-12.207218,-0.244144,1.464866,-0.019654,-0.051148,1.028336
1320,-10.193027,0.671397,2.197299,-0.021363,-0.042725,1.050309
1321,-9.399557,1.159686,2.807660,-0.025147,-0.052735,1.039567
1322,-4.882887,0.671397,2.441444,-0.031739,-0.057862,1.003311
1323,-1.770047,-0.366217,2.075227,-0.041016,-0.041016,0.976577
1324,-1.770047,-2.319371,1.892119,-0.050782,-0.029297,0.973281
1325,-2.807660,-5.065995,1.525902,-0.056275,-0.013672,0.969497
1326,-4.699779,-7.324331,0.488289,-0.043458,-0.014527,0.975967
1327,-7.751583,-9.033341,0.366217,-0.070069,-0.017456,1.072526
1328,-2.380407,-10.070954,0.671397,0.013062,0.023072,0.843275
1329,-8.422980,-10.742351,-0.610361,0.002808,-0.045289,0.960220
1330,-10.009918,-9.826810,-0.488289,-0.000855,-0.049928,1.074235
1331,-3.601129,-7.324331,-0.976577,0.005127,-0.054322,1.016983
1332,-5.371176,-5.859464,-0.183108,-0.015991,-0.055421,1.009171
1333,-2.624552,-5.188067,0.061036,-0.015869,-0.062257,0.991958
1334,-2.746624,-4.821851,0.183108,-0.011353,-0.043336,0.960952
1335,-1.281758,-6.897078,-0.976577,-0.061891,0.036866,0.925063
1336,-8.361944,-7.019150,-1.342794,-0.047242,-0.025025,0.945083
1337,-16.418708,-9.643702,0.305180,-0.018067,-0.025269,0.977554
1338,-16.479744,-10.986496,-0.671397,-0.024781,-0.026368,0.928969
1339,-21.850919,-13.488975,-0.122072,-0.024903,0.002686,0.939712
1340,-28.076600,-15.869383,-0.366217,-0.020874,-0.005493,0.968887
1341,-38.879988,-15.869383,1.220722,0.049073,-0.044190,1.035782
1342,-41.809720,-13.183795,2.014191,-0.006958,-0.083864,1.011978
1343,-38.391699,-11.413748,2.197299,-0.014527,-0.056764,0.989273
1344,-40.527962,-10.620279,2.502480,0.023682,-0.034302,1.005264
1345,-48.218509,-9.460594,2.807660,-0.005493,-0.077028,1.012711
1346,-45.838102,-9.948882,1.525902,-0.007935,-0.077516,0.970962
1347,-43.579767,-10.742351,-1.464866,-0.003906,-0.058717,0.957290
1348,-43.579767,-11.718929,0.183108,-0.005249,-0.076417,1.002945
1349,-45.166705,-12.573434,-0.427253,-0.056153,-0.081910,0.982193
1350,-46.875715,-11.169604,-5.127031,0.053346,-0.119631,1.006729
1351,-44.739452,-4.150454,-17.944610,-0.002197,-0.104616,0.901259
1352,-67.078660,-4.150454,-36.804761,0.026001,-0.080079,0.907118
1353,-69.031815,3.479057,-38.025483,0.130129,-0.283452,1.044816
1354,-52.796216,-1.647974,-15.930419,0.108034,-0.318120,1.029679
1355,-42.847333,-9.887846,-0.427253,-0.031861,0.019165,0.971328
1356,-78.065156,-9.216449,-13.794156,0.038941,0.066163,0.937270
1357,-100.099184,-4.699779,-22.095064,0.035889,0.103883,0.878798
1358,-126.710918,-8.361944,-21.240558,0.116335,0.035279,0.945693
1359,-139.528496,-20.935378,-15.503166,0.007080,0.377691,0.777111
1360,-196.475166,-12.085145,-32.471199,0.298589,0.734264,1.061173
1361,-331.853208,-10.131991,-58.228428,0.070192,0.958877,1.251850
1362,-582.833600,-10.131991,-22.339208,-0.360113,0.723156,1.999969
1363,-712.108034,-70.252537,26.489662,-0.641855,-0.323735,1.310445
1364,-810.498207,-107.911803,63.843748,0.020996,-0.193362,1.018326
1365,-848.523690,-145.937285,57.068742,-0.110353,-0.601938,0.911879
1366,-1105.607691,-213.809415,164.065003,-0.685801,-1.078508,1.999969
1367,-499.458305,-178.591592,98.634318,-1.324361,-1.234272,1.999969
1368,213.687343,-143.251698,-26.977951,-0.203738,0.841199,1.999969
1369,360.173953,-68.726635,-11.230640,-0.358404,1.463767,1.999969
1370,174.135958,-15.747311,-37.659266,-0.180789,0.665049,1.705226
1371,83.009079,-4.394598,31.433585,-0.496956,0.617075,0.446662
1372,92.591745,11.596857,30.090791,-0.222049,0.142214,0.095338
1373,142.336156,31.616693,15.197986,-0.219852,0.123659,-0.137331
1374,118.410010,27.466239,18.432898,-0.111940,0.238163,-0.129397
1375,86.488136,15.686275,22.766461,-0.063722,0.174807,0.208255
1376,105.714504,0.671397,20.691234,-0.014649,0.264775,0.544076
1377,125.551232,-17.090105,15.197986,0.042725,0.360357,0.760998
1378,138.735027,-26.977951,7.812619,0.122927,0.413825,1.016251
1379,160.402838,-21.179522,-4.821851,0.181521,0.412848,1.234028
1380,185.915923,-6.591897,-19.409476,0.136599,0.371099,1.426902
1381,210.635538,5.920500,-30.640116,0.051881,0.295903,1.504295
1382,238.406958,16.784924,-40.161746,-0.013672,0.151614,1.570581
1383,269.230182,27.832456,-43.579767,-0.094606,-0.007568,1.587060
1384,295.963989,36.682689,-41.931792,-0.182864,-0.183963,1.521508
1385,315.922789,46.570535,-35.278859,-0.225589,-0.320806,1.390158
1386,328.313115,54.505226,-25.757229,-0.218021,-0.410163,1.195087
1387,330.510414,52.857252,-15.381094,-0.176028,-0.467414,1.040543
1388,324.284733,41.992828,-6.836042,-0.065431,-0.509163,0.888441
1389,309.086748,36.560616,-6.347753,0.094606,-0.653696,0.596811
1390,281.010147,50.232700,-12.268254,0.307256,-0.645640,0.595712
1391,241.275654,66.468299,-20.813306,0.362432,-0.477668,0.911757
1392,215.640497,66.590372,-34.729534,0.435676,-0.417365,1.177508
1393,207.095445,58.838788,-47.913329,0.405768,-0.266850,1.978302
1394,196.292058,51.087205,-57.679103,0.371832,-0.284428,1.999969
1395,230.655375,56.031128,-68.238346,0.305913,-0.515755,1.999969
1396,280.704967,69.275959,-78.736553,0.218753,-0.621469,1.999969
1397,279.423209,72.693980,-77.576867,0.093874,-0.680674,1.999969
1398,281.681544,59.510185,-72.999161,0.086671,-0.800061,1.999969
1399,305.180438,54.505226,-74.952316,0.237552,-0.872206,1.956939
1400,297.367819,70.130465,-82.825971,0.408942,-0.862562,1.567285
1401,255.924315,82.581827,-89.539940,0.399786,-0.843519,1.805814
1402,249.332418,80.811780,-95.887694,0.375982,-0.907485,1.999969
1403,261.966888,75.318532,-103.578241,0.381842,-0.983291,1.840970
1404,250.064851,81.116960,-107.728695,0.326665,-1.172747,1.525170
1405,226.749065,94.728008,-106.019684,0.144167,-1.488792,1.207416
1406,196.780346,106.263828,-94.728008,-0.035889,-1.906889,0.988785
1407,156.130312,113.160906,-70.984970,0.016358,-2.000031,0.990616
1408,108.216983,115.846494,-39.368276,0.216312,-2.000031,0.956802
1409,83.802548,126.039521,-17.700465,0.342535,-2.000031,0.419196
1410,109.193561,127.382315,-7.751583,0.319463,-2.000031,-0.584848
1411,56.031128,86.427100,17.395285,0.175540,-2.000031,-1.227070
1412,-63.294423,-0.854505,60.425727,0.024170,-1.929107,-0.604379
1413,-184.512093,-130.678264,82.398718,0.286992,-2.000031,-1.388327
1414,-244.205386,-215.518425,98.695354,0.782971,-0.287602,1.716213
1415,-109.681849,-141.847868,52.979324,0.343877,0.368658,1.999969
1416,-58.716716,-91.309987,41.687648,-0.424933,1.311788,1.318013
1417,-181.887541,-128.603037,75.867857,-0.058717,0.439582,-1.090959
1418,-327.458610,-143.739986,88.502327,0.686168,-0.389410,-0.343145
1419,-363.958190,-100.343328,89.356832,1.234638,-0.290410,1.999969
1420,-286.991684,-63.416495,58.594644,1.835721,-0.316533,1.999969
1421,-150.881209,2.075227,2.380407,1.224018,-0.238041,1.980133
1422,-169.741360,3.662165,7.507439,-1.066178,0.111452,1.999969
1423,-189.333944,-65.369650,53.406577,-1.631128,-1.120012,1.999969
1424,-50.476844,-131.349660,34.302281,0.488655,-0.109255,1.999969
1425,-46.875715,-93.873503,18.432898,1.975494,0.387213,1.973785
1426,-68.360418,-10.009918,15.564202,0.098268,0.168093,1.021378
1427,-88.929580,-23.743038,12.939651,-0.810193,-0.221195,1.269184
1428,-52.552071,-59.632258,9.948882,0.277836,-0.088991,1.238422
1429,-23.254749,-35.828183,-2.136263,0.470222,0.218265,1.391135
1430,-55.909056,-23.987182,3.906310,-0.112795,-0.082765,1.136858
1431,-17.639429,-28.076600,-1.037613,0.001831,-0.061280,1.152605
1432,-4.699779,-26.977951,-3.479057,0.125490,0.093874,0.914321
1433,-34.668498,-22.034028,-0.244144,0.061524,-0.022095,1.147112
1434,-14.709697,-20.019837,-0.610361,0.010864,-0.069581,1.110369
1435,-2.502480,-16.601816,-0.122072,0.143679,0.054078,1.016373
1436,-16.906996,-10.742351,1.647974,0.071534,-0.029175,1.079973
1437,-4.089418,-6.713970,3.784237,0.077638,-0.022950,1.093278
1438,-0.549325,-2.685588,4.028382,0.060304,0.033448,0.945937
1439,-8.239872,-2.014191,3.906310,-0.030396,0.065064,1.021256
1440,-10.864424,-4.516670,4.821851,0.036378,0.066041,1.012589
1441,-7.629511,-3.051804,2.685588,0.015015,0.059693,0.886000
1442,-20.813306,-6.347753,1.709010,-0.023438,-0.001343,0.991592
1443,-15.747311,-7.324331,0.854505,0.071778,-0.040284,1.007828
1444,-10.803388,-5.798428,0.549325,0.047852,-0.008179,1.026139
1445,-11.718929,-4.760815,1.098650,0.070314,-0.027832,1.062638
1446,-5.920500,-1.220722,1.342794,0.066285,-0.020752,1.044327
1447,-4.211490,1.525902,1.586938,0.054200,0.007080,0.982925
1448,-9.765774,3.479057,1.709010,0.028321,0.043336,0.966690
1449,-11.596857,4.516670,1.159686,0.035279,0.036744,0.980240
1450,-17.822538,4.516670,0.671397,0.035889,-0.000977,0.961318
1451,-18.982223,5.859464,-0.488289,0.103883,-0.030396,0.905287
1452,-18.921187,6.652934,-0.976577,0.052003,-0.048585,1.008316
1453,-18.127718,6.408789,-0.671397,0.034180,-0.032105,1.034806
1454,-15.991455,7.751583,-0.488289,0.052735,-0.045655,1.044327
1455,-11.596857,8.850233,-0.366217,0.027222,-0.047364,1.020401
1456,-9.643702,8.789197,-0.671397,0.026734,-0.036866,0.986221
1457,-9.704738,6.408789,-0.549325,0.000000,0.015137,1.035294
1458,-9.460594,4.638743,0.488289,-0.024170,0.004761,0.965225
1459,-13.366903,0.793469,0.183108,-0.001343,-0.028687,0.965957
1460,-13.977264,-1.403830,-0.183108,0.017456,-0.027710,0.968887
1461,-15.503166,-2.990768,0.000000,0.018311,-0.040894,0.985733
1462,-15.625238,-3.662165,-0.122072,0.031495,-0.042969,1.012955
1463,-16.357671,-2.929732,0.427253,0.055177,-0.067262,1.053849
1464,-12.207218,-0.915541,0.915541,0.059693,-0.082033,1.062150
1465,-7.751583,1.342794,2.014191,0.041749,-0.075807,1.035416
1466,-4.577707,2.380407,2.685588,0.021851,-0.041993,0.991470
1467,-6.652934,1.953155,2.685588,0.015747,-0.041749,0.973648
1468,-8.361944,0.610361,2.380407,-0.001953,-0.048463,0.986831
1469,-7.446403,-1.098650,1.709010,0.012451,-0.040772,0.971328
1470,-10.376135,-2.502480,1.464866,0.011597,-0.027100,0.975113
1471,-13.550011,-3.662165,1.098650,0.015259,-0.023072,0.958022
1472,-16.296635,-4.760815,0.488289,0.011963,-0.010986,0.941787
1473,-22.827497,-6.164645,0.122072,0.012329,-0.022339,0.955215
1474,-26.733806,-6.836042,0.244144,0.048951,-0.036866,1.017594
1475,-26.916915,-5.554284,1.098650,0.042481,-0.051270,0.997696
1476,-29.358358,-5.188067,2.014191,0.065431,-0.082399,0.997452
1477,-29.358358,-4.150454,4.089418,0.035645,-0.082887,1.051041
1478,-25.696193,-2.807660,5.371176,0.035279,-0.101320,1.004288
1479,-22.766461,-1.831083,6.225681,0.025513,-0.079469,1.035294
1480,-22.034028,-0.305180,6.713970,0.059815,0.006592,0.956802
1481,-39.368276,-0.671397,4.699779,-0.012940,-0.035035,0.971695
1482,-39.429313,-2.258335,2.563516,0.027344,-0.053834,1.007584
1483,-40.772107,-1.709010,0.122072,0.016968,-0.064332,1.006729
1484,-49.622339,-1.586938,-0.366217,0.009766,-0.090455,1.017960
1485,-47.852293,-0.427253,-1.037613,0.028687,-0.106447,1.009415
1486,-43.884947,0.610361,-3.784237,-0.017212,-0.089967,1.057389
1487,-44.373236,-0.427253,-11.596857,0.002197,-0.126589,0.971572
1488,-44.007019,1.709010,-16.845960,0.015259,-0.169802,1.060441
1489,-65.247578,8.850233,-35.461967,0.001465,-0.173587,1.136858
1490,-56.458381,11.657893,-37.293050,0.129885,-0.389410,0.984512
1491,-25.452049,2.197299,-13.855192,0.197147,-0.289677,1.075700
1492,-18.188754,5.065995,-0.122072,0.031495,0.116213,0.950576
1493,-60.975052,9.338521,-16.113527,0.016602,0.321416,0.860121
1494,-125.429160,15.564202,-29.236286,0.140139,0.126345,0.804822
1495,-154.909590,15.930419,-10.498207,-0.063478,0.164431,0.872206
1496,-173.281453,-10.864424,-18.982223,-0.208621,0.302495,0.744030
1497,-240.482185,-23.804074,-23.071641,-0.018799,1.090959,0.925429
1498,-457.404440,-22.034028,-51.087205,-0.020630,-0.030030,1.279805
1499,-592.538338,-87.342641,22.034028,-0.555062,-0.072389,1.508812
1500,-644.724193,-184.267948,49.073014,-0.261845,-0.405035,0.687266
1501,-710.337987,-218.570230,72.877089,0.055177,-0.172854,0.844739
1502,-774.181735,-239.749752,86.793317,0.558602,-1.228779,1.999969
1503,-917.433433,-235.538262,197.390707,-0.833021,-0.278813,1.999969
1504,-239.871824,-148.683909,39.246204,-0.208988,-0.658824,1.999969
1505,292.668040,-25.146868,-39.063096,-0.068971,0.903456,1.999969
1506,299.382010,34.912642,-54.566262,-0.124025,1.486595,1.778958
1507,149.965667,41.077287,-39.368276,-0.574105,0.518563,0.869886
1508,41.077287,-1.342794,9.826810,-0.481819,0.256229,0.235721
1509,75.013352,5.493248,21.240558,-0.286015,0.060670,0.008911
1510,145.082780,13.733120,10.070954,-0.302251,0.215091,0.128420
1511,121.400778,8.056764,15.320058,-0.128908,0.369512,0.230228
1512,96.620127,3.906310,16.540780,-0.031250,0.314946,0.661997
1513,128.847181,10.864424,8.300908,0.073121,0.402716,1.047623
1514,159.609369,17.639429,-2.624552,0.157351,0.466072,1.248920
1515,178.286412,20.141909,-14.221408,0.337163,0.364752,1.250019
1516,202.761883,28.564889,-35.278859,0.414801,0.243900,1.434104
1517,235.294118,46.875715,-56.031128,0.427253,0.113771,1.290547
1518,254.459449,55.542840,-73.853666,0.383185,-0.063722,1.204486
1519,260.990311,61.219196,-85.145342,0.260258,-0.295293,1.072282
1520,268.131533,61.341268,-90.089265,0.117678,-0.486458,1.000137
1521,271.061265,57.618067,-87.220569,0.004883,-0.572274,0.992203
1522,265.568017,52.124819,-78.980697,-0.028077,-0.622568,1.088396
1523,257.328145,50.110628,-69.764248,0.026123,-0.665049,1.267597
1524,251.956970,53.162432,-62.623026,0.026612,-0.751232,1.419577
1525,252.933547,59.449149,-54.200046,-0.045167,-0.818982,1.474876
1526,257.816434,64.698253,-44.983597,-0.051148,-0.846448,1.428244
1527,251.102464,69.398032,-34.546426,0.033448,-0.844129,1.367575
1528,241.092546,78.248264,-25.696193,0.063966,-0.896620,1.335103
1529,229.800870,88.258183,-18.677043,0.124392,-0.879286,1.158221
1530,216.311894,89.234760,-12.756542,0.199466,-0.836072,1.151263
1531,194.766155,85.511559,-7.446403,0.215702,-0.790906,1.243915
1532,184.512093,72.144656,-5.065995,0.269291,-0.737438,1.412741
1533,182.558938,61.280232,-6.713970,0.308843,-0.677623,1.513939
1534,179.018845,55.786984,-9.948882,0.306157,-0.639048,1.614771
1535,182.558938,53.284504,-14.465553,0.273075,-0.627573,1.609644
1536,183.169299,50.843061,-18.554971,0.222904,-0.626596,1.547875
1537,178.713664,49.866484,-21.057450,0.147463,-0.639658,1.499168
1538,175.417716,53.589685,-21.423667,0.038697,-0.662730,1.436301
1539,168.276493,59.937438,-18.005646,-0.078370,-0.692271,1.343893
1540,157.473106,66.712444,-10.193027,-0.196658,-0.754284,1.254536
1541,146.364538,73.975738,0.671397,-0.275273,-0.820569,1.152361
1542,130.922408,82.093538,13.427939,-0.324712,-0.898085,1.088762
1543,110.597391,86.793317,29.968719,-0.353155,-0.939223,1.232807
1544,102.784772,88.380255,45.838102,-0.088258,-0.970230,1.413352
1545,109.987030,111.390860,60.364691,0.143679,-0.959487,1.533104
1546,92.957961,115.968566,77.637903,0.209232,-1.245747,1.486107
1547,103.761349,102.235447,91.004807,0.339239,-1.563745,1.377096
1548,106.446937,86.182956,97.108415,0.539193,-1.964752,1.118303
1549,100.221256,83.131151,90.882734,0.728405,-2.000031,0.596811
1550,76.112001,76.173037,62.378882,0.585214,-2.000031,-2.000031
1551,-48.767834,-9.948882,63.172351,0.735851,-2.000031,-2.000031
1552,-164.614328,-82.215610,55.237659,1.045670,-1.997467,-1.824247
1553,-99.305715,-79.346914,22.827497,0.762585,0.211917,0.565194
1554,-119.386587,-98.756390,-2.685588,0.130129,1.411276,1.999969
1555,-198.001068,-100.648508,14.099336,-0.105470,1.140276,1.999969
1556,-249.088273,-95.033188,18.249790,-0.275151,-0.337163,0.752819
1557,-180.910964,-71.412222,17.700465,-0.354620,-0.567880,0.038331
1558,-199.404898,-67.200732,29.602502,0.150759,0.097780,1.150042
1559,-261.661707,-67.444877,36.865797,0.526497,-0.070436,1.999969
1560,-195.742733,-46.509499,23.926146,-0.017212,-0.598276,1.396506
1561,-190.676738,-92.835889,51.026169,-0.996475,-0.116457,1.999969
1562,-194.827192,-128.480964,35.584039,0.972427,-0.228275,1.999969
1563,-20.630198,-49.256123,5.920500,1.699855,-0.450813,1.999969
1564,67.627985,29.724575,-24.170291,-0.347417,0.332525,1.041764
1565,-53.772793,-10.315099,17.761501,-0.360601,0.185061,0.794079
1566,-52.429999,-15.930419,17.212177,0.416632,0.040894,1.411154
1567,-4.089418,10.437171,2.502480,0.081544,0.042237,1.021378
1568,-31.494621,4.821851,6.591897,-0.197147,0.104250,0.812757
1569,-32.959487,-6.713970,3.234913,-0.053590,0.069215,0.933852
1570,-44.739452,-11.657893,3.723201,-0.017456,-0.050538,0.994888
1571,-33.630884,-15.930419,1.220722,-0.094240,-0.057862,1.023697
1572,-21.545739,-21.606775,-2.136263,0.023804,0.048951,1.028336
1573,-34.485389,-20.202945,-2.258335,0.109743,-0.033814,1.084001
1574,-28.320745,-15.075914,-3.173877,0.030396,-0.070680,1.091325
1575,-18.188754,-14.160372,-3.234913,0.058350,-0.042847,1.071916
1576,-16.540780,-11.657893,-2.868696,0.080812,-0.037232,1.027481
1577,-17.212177,-8.545052,-1.159686,0.038209,-0.040650,1.024063
1578,-15.320058,-7.019150,0.000000,0.023194,-0.016480,0.999039
1579,-17.151141,-7.019150,0.183108,0.018799,-0.035889,0.998550
1580,-16.235599,-7.812619,0.000000,0.006470,-0.050294,1.019425
1581,-12.451362,-8.850233,0.000000,0.005615,-0.031617,1.002701
1582,-13.427939,-10.009918,-0.610361,0.013672,-0.032837,1.020768
1583,-13.000687,-9.948882,-0.976577,0.041749,-0.060426,1.052995
1584,-8.239872,-7.995727,-0.915541,0.041627,-0.048463,1.047257
1585,-7.385367,-6.591897,-0.305180,0.036500,-0.049928,0.998428
1586,-7.568475,-5.432212,0.000000,0.040406,-0.054688,1.015763
1587,-6.836042,-4.089418,0.061036,0.049805,-0.057984,1.028458
1588,-4.394598,-2.990768,0.427253,0.025391,-0.048585,1.009415
1589,-4.211490,-3.356985,0.183108,0.025269,-0.042237,1.006851
1590,-4.394598,-3.479057,-0.122072,0.040284,-0.033692,1.012100
1591,-4.943923,-2.807660,0.366217,0.030762,-0.052857,1.008804
1592,-3.173877,-2.075227,0.244144,0.038697,-0.057008,0.997452
1593,-3.662165,-2.136263,0.549325,0.031250,-0.032837,0.994766
1594,-6.225681,-2.624552,0.366217,0.033082,-0.032471,0.991348
1595,-5.554284,-2.563516,0.183108,0.025879,-0.045167,0.985367
1596,-7.507439,-3.173877,-0.244144,0.035889,-0.041505,0.983413
1597,-8.789197,-2.929732,-0.427253,0.033570,-0.049683,1.006607
1598,-8.728161,-2.502480,-0.488289,0.040284,-0.062989,1.011246
1599,-7.141222,-1.770047,-0.488289,0.039429,-0.064576,1.016983
1600,-6.164645,-1.403830,-0.488289,0.041016,-0.064088,1.007462
1601,-4.882887,-1.159686,-0.366217,0.036866,-0.064942,1.001236
1602,-4.821851,-1.647974,-0.366217,0.021851,-0.058473,0.986954
1603,-4.455634,-2.258335,-0.366217,0.022705,-0.034913,0.965957
1604,-8.728161,-3.295949,-0.732433,0.022217,-0.046998,0.987686
1605,-10.070954,-3.906310,-1.037613,0.029664,-0.068482,0.995377
1606,-7.385367,-3.845274,-1.159686,0.049195,-0.060792,1.004654
1607,-9.582666,-3.112840,-0.732433,0.052003,-0.073976,1.025895
1608,-7.446403,-1.831083,-0.671397,0.039185,-0.079591,1.027237
1609,-6.836042,-1.098650,-0.122072,0.049195,-0.079347,1.015885
1610,-5.249104,0.000000,0.244144,0.043336,-0.083986,1.027237
1611,-3.112840,0.488289,0.427253,0.027222,-0.064454,1.020035
1612,-4.333562,0.122072,-0.244144,0.043458,-0.071656,1.010025
1613,-3.906310,0.366217,-0.976577,0.033936,-0.081910,1.027970
1614,-1.831083,0.244144,-1.342794,0.044190,-0.079591,1.007584
1615,-0.732433,0.061036,-1.709010,0.037110,-0.073610,1.006729
1616,-0.305180,0.244144,-1.953155,0.052613,-0.075441,0.995865
1617,-1.220722,0.610361,-1.464866,0.057130,-0.071168,1.016251
1618,-0.244144,1.770047,-1.037613,0.051881,-0.093507,1.012589
1619,2.136263,2.746624,-0.549325,0.059205,-0.091554,1.034806
1620,4.028382,3.906310,0.061036,0.052735,-0.098146,1.054215
1621,7.812619,5.249104,0.854505,0.049561,-0.094606,1.041764
1622,12.268254,5.615320,1.342794,0.025513,-0.078737,1.015885
1623,13.427939,5.798428,0.915541,0.031006,-0.056031,0.965957
1624,11.841001,4.760815,0.732433,-0.004639,-0.011597,0.909560
1625,3.418021,2.136263,0.671397,0.008789,-0.006470,0.923232
1626,-3.295949,0.305180,0.122072,0.022095,-0.049439,0.968521
1627,-2.136263,-0.183108,0.061036,0.032349,-0.052491,0.996841
1628,-3.723201,-0.305180,0.000000,0.046876,-0.062135,1.000626
1629,-3.356985,0.488289,-0.244144,0.016480,-0.046143,0.989517
1630,-4.150454,0.183108,-0.305180,0.044800,-0.060792,1.009659
1631,-3.662165,0.427253,-0.183108,0.032593,-0.060670,1.010269
1632,-2.929732,0.610361,-0.305180,0.034791,-0.061524,1.004532
1633,-5.065995,0.732433,-0.671397,0.023804,-0.075319,0.990494
1634,-3.234913,0.610361,-0.854505,0.028565,-0.062867,0.992325
1635,-3.295949,0.427253,-0.976577,0.014771,-0.059937,0.998917
1636,-4.516670,0.000000,-1.281758,0.024048,-0.073365,0.999405
1637,-2.258335,-0.061036,-1.342794,0.029053,-0.083253,0.996475
1638,-1.464866,0.122072,-1.342794,0.033448,-0.074220,1.008682
1639,-0.793469,0.488289,-1.037613,0.037110,-0.094972,1.014054
1640,1.403830,0.976577,-0.610361,0.039307,-0.087404,1.019669
1641,4.028382,1.647974,0.000000,0.041138,-0.070558,1.012955
1642,3.540093,1.831083,0.305180,0.031250,-0.073732,1.011856
1643,4.699779,2.075227,0.366217,0.030396,-0.068971,1.007095
1644,5.249104,2.197299,0.427253,0.032593,-0.075807,1.016007
1645,6.042573,2.380407,0.427253,0.032837,-0.082887,1.029557
1646,8.728161,2.929732,0.488289,0.037476,-0.085206,1.026139
1647,11.169604,3.540093,0.427253,0.031617,-0.080934,1.030900
1648,13.672084,4.028382,0.427253,0.033082,-0.073121,1.017105
1649,15.014878,4.333562,-0.305180,0.024903,-0.047364,0.985122
1650,14.648661,2.868696,-0.366217,-0.018555,-0.012696,0.890272
1651,6.469825,0.671397,-0.854505,0.012696,0.011475,0.933608
1652,-3.051804,-0.732433,-1.220722,0.018555,-0.053101,0.996353
1653,1.281758,-0.549325,-1.281758,0.045045,-0.063111,1.021988
1654,2.380407,0.976577,-1.159686,0.034546,-0.051514,1.018448
1655,1.770047,2.014191,-0.915541,0.039796,-0.061524,1.026017
1656,4.760815,3.234913,-0.793469,0.035523,-0.056275,1.012955
1657,4.821851,3.723201,-0.427253,0.035035,-0.055787,1.011246
1658,5.249104,4.394598,-0.305180,0.029053,-0.066529,1.014298
1659,7.812619,4.760815,0.244144,0.031617,-0.047852,0.995743
1660,6.836042,4.821851,0.305180,0.010376,-0.044923,0.998795
1661,6.103609,4.028382,0.793469,0.029664,-0.054810,1.005142
1662,7.934691,4.150454,0.854505,0.027100,-0.051514,1.002457
1663,8.606088,4.272526,0.793469,0.008911,-0.048341,1.018204
1664,9.826810,4.089418,0.671397,0.012451,-0.064210,1.029801
1665,11.291676,4.089418,0.671397,0.020020,-0.050294,1.008682
1666,13.061723,3.723201,0.427253,0.020508,-0.059815,0.998062
1667,14.831769,3.234913,0.000000,0.016724,-0.042237,1.010391
1668,14.648661,2.990768,-0.732433,0.029053,-0.041260,1.008438
1669,15.625238,3.356985,-1.159686,0.032105,-0.036988,1.025528
1670,17.578393,4.272526,-1.098650,0.025147,-0.040284,1.037613
1671,19.592584,5.676356,-0.793469,0.022827,-0.019287,0.999283
1672,19.714656,6.225681,-0.366217,-0.021973,0.026490,0.889052
1673,10.193027,3.601129,0.488289,-0.049073,0.048707,0.826673
1674,-2.197299,-0.671397,1.159686,-0.028077,0.031373,0.882826
1675,-6.775006,-2.990768,0.732433,0.001953,0.021973,1.000137
1676,-10.803388,-3.906310,0.427253,0.013916,-0.030640,1.017105
1677,-5.432212,-4.028382,-0.366217,0.009033,-0.037110,1.020890
1678,-2.868696,-4.455634,-0.915541,0.033936,-0.016480,1.004288
1679,-4.577707,-3.540093,-0.854505,0.051637,-0.036378,1.049699
1680,-0.671397,-1.159686,-0.366217,0.026734,-0.041382,1.022477
1681,0.671397,0.793469,0.366217,0.037720,-0.024414,1.009903
1682,-1.586938,1.770047,1.403830,0.009644,-0.028443,1.002213
1683,0.244144,1.403830,1.892119,-0.002075,-0.006348,0.962783
1684,-4.577707,-0.061036,1.892119,-0.009400,0.001587,0.934096
1685,-7.446403,-2.990768,1.098650,-0.038941,0.014282,0.925673
1686,-12.024109,-7.385367,0.000000,-0.021241,-0.016968,0.965225
1687,-12.146181,-10.009918,-1.281758,0.016724,-0.066285,1.053971
1688,-4.089418,-9.094377,-1.464866,0.036622,-0.058228,1.050919
1689,-1.709010,-6.775006,-0.549325,0.064332,-0.043091,1.034928
1690,-2.441444,-2.746624,0.976577,0.056153,-0.059815,1.049332
1691,2.624552,-0.488289,2.014191,0.031739,-0.061036,1.041642
1692,5.432212,0.427253,1.831083,0.014282,-0.005859,0.978897
1693,1.281758,-0.427253,1.525902,0.007202,-0.000488,0.986099
1694,0.244144,-1.403830,0.793469,-0.010498,0.017334,0.934463
1695,-3.906310,-3.906310,-0.610361,-0.004639,0.037476,0.914931
1696,-15.075914,-6.591897,-1.403830,0.020142,-0.027344,0.997696
1697,-8.850233,-6.286717,-2.319371,0.031006,-0.036622,1.010147
1698,-11.047532,-6.286717,-1.953155,0.017578,-0.053101,1.016983
1699,-7.202258,-5.493248,-1.709010,0.080201,-0.071778,1.083391
1700,-1.159686,-0.549325,-0.183108,0.071534,-0.056641,1.047501
1701,0.244144,1.770047,0.732433,0.029786,-0.034668,0.998672
1702,-0.305180,0.854505,-0.122072,-0.009400,-0.010742,0.957290
1703,-4.150454,-2.197299,-1.342794,0.009766,-0.032715,0.979385
1704,-2.807660,-3.540093,-2.136263,0.039307,-0.023072,0.994522
1705,-4.699779,-1.586938,-1.403830,0.058106,-0.021851,1.024186
1706,-6.225681,0.671397,-0.732433,0.042115,-0.026490,0.981704
1707,-8.911269,1.953155,0.000000,0.031250,-0.019532,0.965591
1708,-13.733120,2.014191,0.549325,0.003906,-0.018067,1.044327
1709,-10.070954,2.380407,0.732433,0.041993,-0.062867,1.052262
1710,-4.394598,3.601129,0.976577,0.012573,-0.044190,0.992691
1711,-6.958114,2.624552,1.037613,-0.008301,-0.040772,0.986587
1712,-6.286717,0.000000,0.000000,-0.008789,-0.055177,0.992691
1713,-5.798428,-2.380407,-0.854505,0.027100,-0.091920,1.057511
1714,3.479057,-1.586938,-1.098650,0.035645,-0.073976,1.037613
1715,4.089418,-0.793469,-0.854505,0.032959,-0.050294,1.014908
1716,4.150454,0.000000,0.000000,0.027344,-0.046387,1.005020
1717,5.371176,0.305180,0.366217,0.019287,-0.003296,0.947280
1718,-2.197299,-0.732433,0.305180,0.027955,-0.022705,0.986343
1719,-1.281758,-0.244144,0.122072,0.026856,-0.027100,0.985489
1720,-4.638743,-0.366217,0.366217,0.022095,-0.041016,1.003433
1721,-2.746624,-1.037613,0.000000,0.014771,-0.054322,0.998917
1722,-1.892119,-1.770047,-0.366217,0.016358,-0.049928,1.013199
1723,-0.488289,-2.136263,-0.854505,0.032105,-0.048096,1.017105
1724,-0.610361,-2.075227,-0.793469,0.027955,-0.059083,1.031144
1725,2.868696,-0.976577,-0.732433,0.025879,-0.045289,1.010391
1726,1.098650,-1.342794,-0.671397,0.029053,-0.058473,1.025040
1727,4.638743,-1.159686,-0.671397,0.011841,-0.058839,1.015274
1728,7.507439,-1.953155,-1.220722,0.018433,-0.037964,0.985489
1729,5.004959,-2.807660,-1.037613,0.018555,-0.022217,0.959365
1730,4.272526,-3.234913,-1.403830,0.014649,0.010132,0.938247
1731,-6.408789,-4.333562,-1.159686,0.043458,-0.036744,1.002823
1732,-2.258335,-3.051804,-0.976577,0.031128,-0.050416,1.004776
1733,-2.319371,-2.624552,-0.732433,0.043336,-0.042481,1.015030
1734,-2.807660,-1.892119,-0.549325,0.039307,-0.075074,1.042863
1735,4.272526,-0.549325,-0.244144,0.033692,-0.026246,0.996109
1736,-1.831083,-1.159686,-0.244144,0.018677,-0.043091,0.999283
1737,0.793469,-1.892119,-0.732433,0.016114,-0.039185,0.992813
1738,-0.488289,-2.685588,-1.220722,0.032349,-0.036866,0.999893
1739,-0.244144,-2.807660,-1.464866,0.035401,-0.047120,1.011856
1740,1.342794,-2.075227,-1.159686,0.043702,-0.038819,1.006607
1741,0.610361,-0.854505,-0.793469,0.023560,-0.030762,0.982071
1742,-0.915541,-0.915541,-0.488289,0.035279,-0.026490,0.986954
1743,-3.845274,-0.305180,-0.366217,0.031128,-0.041993,1.006485
1744,-1.342794,-0.366217,-0.671397,0.030274,-0.038575,1.000259
1745,-1.831083,-0.549325,-0.976577,0.028809,-0.046143,1.003799
1746,-0.793469,-0.244144,-1.037613,0.037476,-0.050660,1.007828
1747,-0.244144,0.366217,-0.671397,0.039673,-0.051514,1.015763
1748,1.220722,1.220722,-0.427253,0.028687,-0.046387,1.004288
1749,2.319371,1.159686,-0.488289,0.014405,-0.031617,0.979507
1750,-0.305180,0.061036,-0.671397,0.026368,-0.036255,1.003067
1751,0.244144,-0.244144,-0.610361,0.024781,-0.037964,1.002579
1752,0.366217,-0.305180,0.000000,0.031739,-0.042725,1.010758
1753,-0.854505,-0.427253,-0.427253,0.040894,-0.061402,0.997330
1754,1.098650,1.220722,-1.403830,0.043214,-0.036988,1.015030
1755,-0.732433,1.709010,-0.549325,0.029297,-0.045289,1.013687
1756,-1.159686,1.831083,0.305180,0.032593,-0.036133,1.021988
1757,5.249104,2.380407,-0.305180,0.036866,-0.040528,1.015152
1758,3.540093,2.380407,-0.488289,0.033204,-0.049195,1.006485
1759,5.554284,2.075227,-0.732433,0.020752,-0.055787,1.012222
1760,6.042573,1.342794,-0.793469,0.029297,-0.057008,1.025040
1761,9.704738,1.586938,-0.671397,0.030152,-0.043458,1.009537
1762,11.169604,1.342794,-0.305180,0.010742,-0.018799,0.942641
1763,9.704738,0.671397,-0.183108,0.010254,0.030762,0.904067
1764,-2.075227,0.427253,-0.122072,0.027588,0.013184,0.943740
1765,-7.141222,0.000000,-0.305180,0.011963,-0.036255,0.991348
1766,-4.211490,0.061036,-0.305180,0.034668,-0.033204,1.003677
1767,-5.737392,0.183108,-0.366217,0.024292,-0.049561,0.998917
1768,-2.380407,0.610361,-0.671397,0.023804,-0.043091,1.012955
1769,-3.295949,-0.305180,-0.122072,0.018311,-0.050050,1.027726
1770,0.976577,-1.098650,-0.366217,0.014527,-0.036988,1.011124
1771,0.061036,-1.342794,-0.610361,0.037110,-0.030884,1.008316
1772,0.061036,-0.793469,-0.671397,0.027588,-0.045411,1.007950
1773,1.831083,-0.183108,-0.671397,0.024414,-0.026001,0.988296
1774,-0.671397,-0.305180,-0.549325,0.020630,-0.034791,0.993179
1775,-0.305180,-0.427253,-0.671397,0.024781,-0.032471,1.003799
1776,0.793469,-0.305180,-0.854505,0.030030,-0.030396,0.983780
1777,-0.732433,-0.427253,-1.281758,0.021607,-0.029541,1.001236
1778,-0.122072,-0.732433,-1.342794,0.019287,-0.036011,1.004776
1779,1.953155,-0.549325,-1.892119,0.021973,-0.036011,0.995987
1780,1.647974,-1.159686,-0.671397,0.026978,-0.038453,1.002579
1781,1.037613,-1.159686,-0.610361,0.031006,-0.036500,1.003677
1782,0.915541,-0.854505,-0.427253,0.031617,-0.035279,1.008560
1783,1.281758,-0.854505,0.000000,0.028565,-0.036622,1.011978
1784,2.624552,-0.549325,0.244144,0.023072,-0.031617,1.000504
1785,2.197299,-1.037613,0.488289,0.005859,-0.042725,1.001236
1786,3.295949,-1.403830,1.220722,0.022339,-0.040162,1.007462
1787,3.173877,-1.403830,1.342794,0.031250,-0.034791,1.001846
1788,3.356985,-1.403830,1.098650,0.024659,-0.026123,0.990982
1789,3.295949,-1.342794,0.732433,0.028687,-0.007691,0.978408
1790,-0.183108,-1.037613,0.366217,0.029175,-0.022339,0.994888
1791,-0.305180,-0.854505,0.366217,0.034302,-0.057862,1.018814
1792,-0.610361,-0.244144,-0.427253,0.020508,-0.016846,1.004288
1793,-0.915541,-0.183108,-0.244144,0.028321,-0.031006,1.000992
1794,-1.342794,-0.183108,-0.244144,0.025025,-0.030518,1.004410
1795,-0.915541,-0.610361,-0.122072,0.035767,-0.095827,0.961563
1796,0.244144,-0.549325,-0.122072,0.027710,-0.017945,1.009293
1797,0.061036,-0.732433,0.488289,0.029419,-0.038575,1.006607
1798,1.159686,-0.427253,0.305180,0.030762,-0.025757,1.000992
1799,1.098650,-0.305180,0.061036,0.034668,-0.022705,0.994034
1800,0.671397,-0.122072,-0.305180,0.026490,-0.018189,0.994644
1801,-0.366217,-0.061036,-0.488289,0.031739,-0.029053,1.001724
1802,-1.342794,0.183108,-0.549325,0.027588,-0.022827,0.998917
1803,-3.295949,0.427253,-0.549325,0.039551,-0.026978,1.012345
1804,-3.784237,0.671397,-0.549325,0.026123,-0.016358,0.992081
1805,-10.009918,0.915541,-0.793469,0.039673,-0.033448,1.001846
1806,-7.446403,2.136263,-3.295949,0.106935,-0.024781,1.083879
1807,3.906310,3.418021,-4.272526,-0.087770,-0.049195,0.967666
1808,-2.929732,-1.403830,-0.122072,0.077760,-0.042359,1.014420
1809,2.685588,0.244144,0.061036,-0.018067,-0.043946,0.994644
1810,1.098650,-1.403830,1.098650,0.051026,-0.026001,1.004166
1811,1.525902,-0.488289,0.793469,0.015625,-0.036866,1.004776
1812,2.502480,-0.427253,0.488289,0.045045,-0.022217,1.005875
1813,6.225681,1.159686,-0.427253,0.016114,-0.044068,1.013565
1814,5.920500,0.061036,0.244144,0.002686,-0.010132,0.980606
1815,7.995727,-0.427253,-1.464866,0.038819,-0.035767,1.008194
1816,9.094377,-0.244144,-1.159686,0.026246,-0.023438,0.973404
1817,-0.976577,-0.793469,0.244144,0.029297,-0.037720,1.000992
1818,2.502480,0.244144,-1.220722,0.030274,-0.012818,0.994644
1819,-0.671397,0.305180,-2.685588,0.038087,-0.020996,1.008682
1820,-0.427253,0.732433,-2.624552,0.026123,-0.019898,0.995987
1821,-0.976577,0.732433,-2.929732,0.022705,-0.028321,0.996841
1822,-0.915541,0.610361,-2.746624,0.027832,-0.027588,1.000015
1823,-0.976577,0.427253,-2.807660,0.027710,-0.023316,0.997818
1824,-1.831083,0.183108,-2.746624,0.016114,-0.029664,0.987076
1825,-2.014191,-0.366217,-2.319371,0.017945,-0.028077,0.998672
1826,-1.647974,-0.793469,-1.586938,0.018677,-0.028077,0.997696
1827,-1.037613,-0.854505,-1.342794,0.033448,-0.022705,0.999649
1828,-0.854505,-0.366217,-1.037613,0.026856,-0.016724,0.985855
1829,-1.647974,-0.366217,-0.549325,0.025513,-0.019165,0.993912
1830,-2.319371,-0.061036,-0.244144,0.025147,-0.028077,1.002823
1831,-2.075227,0.000000,-0.122072,0.026490,-0.028077,1.009171
1832,-0.549325,0.305180,-0.122072,0.021118,-0.025147,0.994766
1833,-1.159686,0.061036,0.000000,0.015503,-0.032959,1.008438
1834,0.976577,-0.122072,0.000000,0.027710,-0.029664,1.003189
1835,2.014191,0.000000,-0.122072,0.020630,-0.025757,1.002945
1836,2.746624,0.000000,-0.549325,0.031128,-0.023926,1.000626
1837,2.807660,0.061036,-0.793469,0.026490,-0.024903,0.994644
1838,1.831083,0.305180,-0.976577,0.033570,-0.023194,1.001724
1839,0.183108,0.793469,-2.380407,0.027588,-0.014649,1.001358
1840,0.061036,1.037613,-3.418021,0.016358,-0.027344,0.988785
1841,-0.549325,0.488289,-2.624552,0.013794,-0.018067,0.986465
1842,-1.831083,0.122072,-1.647974,0.017945,-0.026490,0.989395
1843,-2.075227,-0.061036,-1.220722,0.031495,-0.031006,1.009903
1844,-1.037613,0.305180,-1.342794,0.034546,-0.015381,0.998062
1845,-1.953155,0.976577,-3.662165,0.040040,-0.026856,1.011002
1846,-1.220722,1.586938,-4.577707,0.016846,-0.029786,0.994400
1847,0.366217,1.342794,-3.479057,0.013916,-0.026856,0.993179
1848,3.173877,-0.183108,-0.854505,0.016968,-0.031128,0.992935
1849,2.380407,0.000000,-0.610361,0.027710,-0.024537,0.996841
