Packet number,Gyroscope X (deg/s),Gyroscope Y (deg/s),Gyroscope Z (deg/s),Accelerometer X (g),Accelerometer Y (g),Accelerometer Z (g)
0,-0.366217,-0.244144,0.000000,0.000977,-0.013184,1.002335
1,-0.183108,-0.183108,0.000000,0.005371,-0.015991,1.000992
2,-0.305180,-0.183108,-0.122072,0.004028,-0.015137,0.999283
3,0.061036,0.000000,0.000000,0.003784,-0.020264,1.001846
4,0.122072,0.122072,0.000000,0.001953,-0.008179,0.997574
5,0.244144,0.183108,0.000000,0.003540,-0.017700,1.001846
6,0.183108,0.183108,0.000000,-0.002686,-0.009766,0.999649
7,0.183108,0.122072,0.000000,0.005127,-0.014527,0.999039
8,0.244144,0.061036,-0.122072,-0.000732,-0.013428,0.994034
9,0.122072,-0.122072,-0.122072,0.005859,-0.012696,1.005142
10,-0.061036,-0.244144,0.000000,-0.001953,-0.010010,1.001968
11,-0.061036,-0.305180,0.000000,0.002564,-0.010986,1.000504
12,-0.427253,-0.305180,0.000000,0.003174,-0.014771,0.994522
13,-0.122072,-0.305180,-0.183108,0.000000,-0.005371,0.998184
14,-0.854505,-0.244144,0.000000,0.009277,-0.010742,1.006607
15,-0.549325,-0.061036,-0.122072,0.004395,-0.009400,1.000381
16,-0.732433,-0.061036,0.000000,0.005859,-0.015137,1.006241
17,-0.305180,0.000000,0.000000,0.006958,-0.015015,0.999161
18,-0.122072,0.061036,-0.122072,0.001221,-0.016968,0.997696
19,-0.305180,-0.061036,0.000000,-0.001221,-0.018799,1.003311
20,0.183108,0.000000,0.000000,0.002930,-0.010986,0.995743
21,0.061036,-0.122072,0.000000,0.005249,-0.013794,1.000748
22,0.061036,-0.244144,0.000000,-0.004761,-0.012818,1.003067
23,0.366217,-0.244144,-0.122072,0.006714,-0.014771,1.000259
24,0.061036,-0.244144,0.000000,0.002930,-0.012940,1.006241
25,0.305180,-0.122072,0.000000,0.004761,-0.010620,0.992569
26,-0.122072,-0.366217,0.000000,-0.000732,-0.009033,1.003799
27,-0.183108,-0.244144,-0.183108,0.002686,-0.017334,1.006973
28,-0.183108,-0.061036,0.000000,-0.000488,-0.014405,0.998184
29,-0.671397,-0.305180,0.000000,0.004639,-0.017334,1.005997
30,-0.061036,-0.122072,0.000000,0.004517,-0.010986,0.998550
31,-0.549325,-0.244144,0.000000,0.000000,-0.017212,1.010513
32,0.122072,0.000000,0.000000,0.002441,-0.012940,1.004654
33,-0.244144,-0.061036,0.000000,0.004883,-0.014038,0.995865
34,0.000000,0.000000,0.000000,0.007813,-0.015381,1.005997
35,0.427253,0.000000,0.000000,0.004517,-0.013062,0.996353
36,-0.061036,-0.122072,0.000000,0.002319,-0.013916,1.000748
37,0.122072,-0.183108,0.000000,0.000244,-0.015503,1.013443
38,0.610361,-0.183108,0.000000,0.004395,-0.012085,1.002945
39,0.061036,-0.244144,0.000000,0.001221,-0.014405,1.000748
40,0.427253,-0.122072,-0.122072,0.005493,-0.008301,1.004410
41,0.183108,-0.244144,-0.122072,0.005127,-0.012329,0.995254
42,0.000000,-0.183108,0.000000,0.004028,-0.010742,1.005386
43,-0.061036,-0.183108,0.000000,0.003906,-0.015259,1.000626
44,-0.244144,0.000000,0.061036,0.005615,-0.014771,1.007584
45,0.671397,0.183108,0.122072,0.002808,-0.019165,1.008438
46,1.037613,0.366217,0.061036,0.000366,-0.004883,1.000015
47,0.244144,0.183108,0.122072,-0.000732,-0.011475,1.002213
48,0.671397,0.122072,0.000000,0.009033,-0.015869,1.010147
49,0.915541,0.427253,0.183108,0.000000,-0.016846,1.010025
50,2.136263,0.671397,0.183108,0.002686,-0.012696,1.004898
51,2.136263,0.488289,0.244144,-0.000244,-0.014893,1.005997
52,2.929732,0.427253,0.183108,0.012573,-0.016236,1.028946
53,4.455634,0.793469,0.000000,-0.005493,-0.002808,0.981582
54,2.807660,0.671397,-0.122072,0.021485,-0.020630,1.017472
55,6.347753,0.732433,-0.183108,-0.003662,-0.000855,1.000992
56,2.319371,0.000000,0.000000,0.010254,-0.008057,1.028458
57,4.699779,0.183108,0.000000,-0.004761,-0.016480,0.998917
58,3.906310,0.122072,-0.183108,0.002075,-0.016114,0.976211
59,3.845274,-0.183108,0.122072,-0.001831,-0.011963,1.021744
60,5.065995,0.000000,-0.183108,-0.003540,-0.021241,0.972915
61,4.943923,-0.671397,0.122072,-0.001221,0.001343,0.995132
62,3.845274,-1.281758,0.000000,0.019409,0.006104,1.009049
63,4.394598,-1.159686,-0.305180,-0.015259,0.009766,0.964614
64,1.037613,-2.380407,-0.183108,0.010376,-0.000610,1.009659
65,2.624552,-1.525902,-0.366217,0.006592,-0.013550,1.019181
66,3.967346,-1.159686,-0.671397,-0.000855,-0.006348,0.998184
67,3.173877,-1.464866,-0.305180,0.006958,0.004639,1.006973
68,3.723201,-0.732433,-0.610361,-0.001343,-0.004883,0.989151
69,3.845274,-0.976577,-0.610361,0.005859,-0.006470,0.993179
70,2.685588,-1.037613,-0.183108,0.011963,0.000610,1.001480
71,3.540093,-0.610361,-0.183108,-0.005493,0.015381,0.999771
72,2.502480,-1.098650,0.061036,0.007813,-0.003784,1.000870
73,3.356985,-0.976577,0.000000,0.011353,0.011841,0.989883
74,2.075227,-1.220722,0.061036,-0.004273,0.005615,0.988907
75,1.586938,-1.464866,0.183108,0.006470,0.002441,1.005386
76,1.586938,-0.732433,0.244144,0.010620,-0.000122,1.005753
77,1.953155,-0.549325,0.305180,0.002808,0.003540,1.004654
78,1.647974,-0.549325,0.244144,0.011231,0.003906,1.011734
79,2.380407,-0.244144,0.000000,0.010254,0.008179,0.993301
80,1.953155,-0.427253,0.000000,0.003906,0.014038,0.992691
81,1.037613,-0.610361,0.122072,0.005249,0.000977,1.000381
82,1.953155,-0.366217,0.183108,0.007080,0.004883,0.990249
83,0.915541,-0.366217,0.305180,0.002564,0.002197,0.999893
84,1.953155,-0.915541,0.549325,0.000610,0.009277,0.993912
85,0.671397,-1.342794,0.305180,0.004639,-0.000244,0.990616
86,1.709010,-1.831083,0.366217,-0.000244,0.012573,0.997574
87,0.488289,-2.014191,0.549325,0.002319,0.000366,0.990982
88,2.685588,-2.502480,0.549325,0.001587,0.018555,1.005875
89,1.159686,-2.868696,0.732433,0.012696,0.000732,0.995499
90,2.258335,-2.563516,0.732433,0.005982,0.005615,0.993790
91,1.525902,-2.502480,0.915541,0.012818,0.010864,0.998062
92,1.342794,-2.075227,1.098650,0.005371,0.009766,1.025406
93,3.601129,-1.464866,0.976577,0.003296,0.005005,1.000015
94,3.723201,-1.220722,1.342794,0.007324,0.015381,0.966079
95,2.502480,-1.464866,1.159686,0.015137,0.017456,0.995621
96,0.671397,-1.403830,1.159686,0.008789,0.018433,0.974258
97,0.488289,-1.342794,1.159686,0.009766,0.026490,0.996597
98,-0.305180,-1.525902,1.342794,0.024659,-0.014893,0.998428
99,1.403830,-0.976577,1.098650,0.004395,0.000977,1.025040
100,3.723201,-1.342794,0.793469,0.012940,0.011719,0.998184
101,2.502480,-1.220722,0.122072,0.023194,0.012207,0.996231
102,2.319371,-0.366217,0.000000,0.016846,0.002564,1.018326
103,3.784237,0.549325,-0.366217,0.014771,0.024781,0.995865
104,1.220722,1.037613,0.122072,0.028199,0.006958,1.010513
105,3.051804,2.563516,0.244144,0.021241,0.008057,1.031144
106,2.929732,3.234913,0.549325,0.009644,0.010864,1.006363
107,3.112840,3.418021,0.122072,0.001831,-0.018311,0.944961
108,2.990768,2.685588,0.122072,-0.000366,-0.018311,0.956069
109,2.136263,1.464866,0.427253,-0.007691,0.025147,0.972183
110,0.976577,0.671397,-0.366217,0.004028,0.019287,0.953506
111,-1.647974,-0.366217,-0.366217,-0.001221,0.022339,0.990982
112,-1.403830,-0.671397,-0.549325,0.014527,0.025879,0.992691
113,-3.234913,-0.427253,-0.671397,0.012696,0.009766,0.999771
114,-2.075227,0.366217,-0.671397,0.027832,0.003662,1.012833
115,-1.098650,1.647974,-0.549325,0.016602,0.018921,0.994888
116,-2.685588,2.014191,-0.183108,0.016114,0.015869,0.998672
117,-2.868696,2.441444,-0.244144,0.005127,0.020142,0.978164
118,-5.310140,1.770047,-0.122072,-0.003540,0.015137,0.992813
119,-5.065995,1.709010,-0.305180,0.008667,-0.002564,1.018448
120,-3.112840,2.197299,-0.183108,0.016236,-0.010132,1.011612
121,-2.014191,2.685588,-0.183108,-0.005859,-0.004761,1.018814
122,-0.061036,2.502480,0.000000,0.004273,0.010864,0.986465
123,-1.098650,1.953155,-0.427253,-0.008423,0.020996,0.971328
124,-3.356985,0.854505,-0.427253,-0.015381,0.017456,0.984390
125,-3.784237,0.122072,-0.488289,-0.010254,0.006958,0.985977
126,-4.211490,-0.305180,-0.183108,0.009277,0.004273,1.003433
127,-3.418021,0.610361,-0.122072,0.011841,0.004761,1.003799
128,-3.662165,0.610361,0.244144,0.004273,0.003418,0.998306
129,-3.662165,1.098650,0.244144,0.006836,0.006714,0.994034
130,-4.272526,1.159686,0.427253,-0.004273,0.017090,0.987076
131,-5.554284,0.610361,0.427253,0.003662,0.010864,0.988907
132,-5.615320,0.244144,0.122072,-0.009766,0.002075,0.977310
133,-6.897078,-0.366217,0.122072,0.000366,0.013184,0.959976
134,-8.850233,-0.549325,0.122072,0.005615,0.009400,0.984756
135,-9.887846,-0.671397,0.183108,0.004517,0.005982,0.984512
136,-10.681315,-0.976577,0.305180,0.003784,0.008789,0.989151
137,-11.291676,-1.037613,0.427253,0.016724,-0.008789,1.012589
138,-10.681315,-0.671397,0.549325,0.002808,-0.021607,1.010636
139,-9.460594,-0.610361,0.976577,0.012573,-0.005737,1.029191
140,-8.972305,-0.061036,0.732433,0.000732,-0.009522,0.993057
141,-9.521630,-0.488289,0.793469,-0.001831,-0.014771,0.982925
142,-9.765774,-1.159686,1.342794,0.013306,0.001831,0.986954
143,-11.596857,-1.159686,1.403830,0.003174,0.007446,0.952285
144,-15.747311,-2.441444,1.709010,-0.001221,-0.012085,0.977066
145,-15.442130,-2.258335,1.709010,0.019165,-0.013184,0.983047
146,-17.761501,-1.770047,2.258335,0.005371,-0.005982,0.989883
147,-19.287404,-1.770047,2.136263,0.005615,-0.035157,1.017472
148,-18.493935,-1.220722,2.807660,0.022950,-0.038331,1.062638
149,-14.648661,-0.427253,2.746624,0.009400,-0.048951,1.003922
150,-14.221408,-1.098650,2.685588,-0.006836,-0.034058,0.995254
151,-14.160372,-2.197299,2.380407,-0.013550,-0.016602,1.001724
152,-16.296635,-3.173877,2.685588,0.018433,-0.027832,1.009293
153,-13.122759,-2.319371,2.014191,0.008057,-0.035401,0.991592
154,-14.465553,-1.220722,1.831083,0.002075,-0.049683,1.004166
155,-15.197986,-1.586938,2.685588,0.026123,-0.031861,1.000381
156,-18.554971,-1.098650,2.685588,0.028687,-0.017334,0.962539
157,-24.719615,-1.159686,2.502480,0.009277,-0.031495,1.053483
158,-20.935378,2.319371,1.098650,0.056519,-0.020874,0.992935
159,-27.222095,3.540093,0.793469,-0.016846,-0.044800,0.973770
160,-26.489662,3.540093,1.403830,0.021607,-0.072267,0.998917
161,-22.888533,4.882887,0.061036,-0.050050,-0.052979,0.992935
162,-24.170291,2.624552,0.488289,-0.020508,-0.014771,0.951553
163,-33.386740,0.610361,-1.037613,-0.023072,-0.049439,0.988663
164,-35.278859,-1.403830,-3.173877,-0.025513,-0.059083,0.995132
165,-30.823224,-1.831083,-5.249104,-0.003662,-0.070314,0.980728
166,-29.358358,-2.319371,-7.385367,-0.077028,-0.045411,1.064714
167,-30.884260,-3.356985,-7.751583,-0.023072,0.008545,1.049088
168,-44.556344,-5.615320,-21.423667,-0.059693,-0.038087,0.971328
169,-55.115587,-5.920500,-25.207904,0.007446,-0.081300,0.991958
170,-57.373922,1.770047,-24.170291,0.094240,-0.245609,0.997452
171,-52.002747,1.953155,-6.836042,0.082277,-0.168460,1.100114
172,-46.631571,-1.586938,-4.272526,-0.021851,-0.098634,0.980240
173,-50.049592,1.342794,-9.216449,0.058961,-0.167239,0.973404
174,-64.148928,3.540093,-4.638743,0.030274,-0.154665,0.989761
175,-56.275273,3.051804,-3.234913,0.004028,-0.044678,0.955581
176,-80.872816,3.173877,-1.647974,0.025513,0.073365,0.885389
177,-102.418555,-0.488289,5.127031,-0.065553,0.121950,0.967422
178,-148.928054,-2.075227,2.685588,-0.015259,0.078370,0.927993
179,-168.459602,-1.770047,-11.779965,0.196292,0.503426,0.975967
180,-264.591440,14.160372,-47.302968,-0.171267,0.372442,1.426169
181,-384.283207,-7.690547,-4.821851,-0.015015,-0.066163,1.281514
182,-479.865721,40.466926,4.577707,0.459724,0.129152,1.797147
183,-510.322728,71.595331,-0.732433,-0.000122,-0.117556,1.258930
184,-587.960632,82.581827,31.982910,0.103273,-0.668467,1.494896
185,-746.532387,77.821012,164.126040,-2.000031,-0.769177,1.999969
186,-384.954604,-26.123445,39.307240,-1.513085,-1.568139,1.999969
187,205.508507,-23.559930,4.577707,-0.410895,0.304326,1.999969
188,180.605783,-7.751583,-24.597543,0.136599,0.425788,0.726085
189,-7.934691,-0.305180,51.819638,0.216312,0.886000,0.484016
190,-159.914549,-22.034028,48.584726,0.388434,0.648081,0.941909
191,-39.734493,14.465553,11.291676,0.497078,0.513191,1.251972
192,42.542153,22.461280,-36.865797,0.519295,0.725719,0.874281
193,7.019150,6.591897,-43.335622,0.415290,0.685924,0.849012
194,21.057450,-15.869383,-55.237659,0.282109,0.454719,0.889906
195,70.435645,-32.104982,-64.820325,0.134035,0.474617,0.760998
196,71.229114,-48.096437,-63.904784,0.022339,0.454353,0.761730
197,80.445563,-55.786984,-61.036088,-0.101320,0.350591,0.860365
198,107.057298,-54.077974,-57.801175,-0.197147,0.367681,0.912123
199,118.165866,-48.279545,-51.087205,-0.258427,0.361089,0.987442
200,133.363851,-37.476158,-43.396658,-0.307256,0.314092,1.089372
201,153.933013,-22.827497,-34.851606,-0.347417,0.275517,1.096208
202,168.459602,-10.437171,-24.231327,-0.363653,0.232425,1.064591
203,182.009613,-1.403830,-13.061723,-0.310307,0.188113,1.038956
204,196.169986,1.159686,-3.845274,-0.212039,0.193484,1.019425
205,206.851301,0.366217,1.892119,-0.067750,0.198245,1.045182
206,216.556039,2.746624,2.014191,0.057008,0.193240,1.078019
207,225.833524,8.606088,-3.479057,0.153811,0.173953,1.055924
208,228.946365,16.540780,-12.207218,0.217044,0.099733,0.893690
209,221.622034,28.137636,-23.559930,0.271244,0.000244,0.815442
210,205.569543,41.687648,-32.410163,0.256474,-0.067262,0.899428
211,193.362325,47.486076,-39.612421,0.204105,-0.079713,1.130022
212,189.517052,43.762875,-45.654994,0.171389,-0.040772,1.458152
213,193.545434,38.635843,-49.073014,0.132692,-0.041627,1.885039
214,203.555352,37.415122,-50.904097,0.081544,-0.102663,1.999969
215,224.551766,37.720302,-53.467613,0.083009,-0.243046,1.999969
216,242.679484,42.908370,-58.045319,0.153933,-0.382818,1.698756
217,235.355154,50.720989,-62.317845,0.160769,-0.420783,1.571435
218,217.166400,48.218509,-63.599603,0.105837,-0.483162,1.801663
219,220.401312,42.664225,-63.904784,0.052857,-0.571176,1.910674
220,227.054246,40.955215,-63.660639,0.018555,-0.641367,1.756008
221,220.096132,42.359045,-60.303655,-0.047730,-0.650034,1.757961
222,212.039368,41.443503,-53.955901,-0.081178,-0.659800,1.899687
223,216.983291,39.429313,-46.631571,-0.085817,-0.677623,1.927031
224,224.673838,38.452735,-38.941024,-0.045167,-0.671275,1.764065
225,223.880369,38.025483,-32.532235,0.064332,-0.676280,1.511254
226,215.701534,37.170977,-28.747997,0.118044,-0.679332,1.356466
227,203.128099,33.142596,-27.588312,0.139406,-0.697520,1.304341
228,193.728542,31.616693,-28.992142,0.140017,-0.731334,1.227802
229,181.948577,34.302281,-32.288090,0.118654,-0.773205,1.082902
230,163.759823,41.077287,-35.645075,0.056519,-0.839490,0.942641
231,142.824445,49.073014,-37.293050,0.010132,-0.922988,0.808972
232,118.226902,53.833829,-35.278859,-0.045655,-0.989395,1.012222
233,101.319905,51.087205,-28.870069,-0.051392,-1.143450,1.099870
234,101.991302,44.434272,-22.705425,0.027588,-1.271382,0.881727
235,89.478904,37.598230,-15.625238,0.070314,-1.390890,0.591684
236,63.782712,26.245518,-6.286717,0.104494,-1.515526,0.296391
237,37.415122,7.690547,2.929732,0.078859,-1.527733,0.188602
238,5.188067,-11.108568,15.503166,-0.026368,-1.339254,0.250492
239,-83.131151,-27.283131,26.550698,0.039796,-1.693507,-0.817029
240,-171.328298,-68.482490,54.505226,-0.115358,-1.842435,-0.002686
241,-208.194095,-64.576181,72.755016,0.113771,-1.349874,0.093507
242,-116.578927,-56.702525,49.988556,0.178225,0.053346,1.666285
243,-101.747158,-47.425040,37.476158,0.268070,0.813001,1.643091
244,-158.632792,-62.012665,44.251164,0.332525,0.826917,0.806287
245,-232.242313,-83.863584,41.748684,0.331548,-0.023682,0.543099
246,-248.538949,-70.740826,42.725261,0.305669,-0.220218,1.667750
247,-217.837797,-45.838102,35.400931,0.499641,-0.123415,1.999969
248,-143.251698,-14.770733,20.630198,0.543465,-0.060060,1.999969
249,-76.478218,3.967346,2.685588,0.236698,0.042359,1.604761
250,-84.412909,14.221408,2.319371,-0.141360,0.104372,1.112200
251,-95.826658,22.583352,9.948882,-0.401617,0.048585,1.049577
252,-96.620127,27.832456,19.348440,-0.142824,0.142214,1.025284
253,-104.188602,17.517357,25.757229,0.046265,0.178714,1.454002
254,-102.723735,-11.657893,23.865110,0.014771,-0.214481,1.999969
255,-24.719615,-13.550011,11.047532,-0.308843,-0.193240,1.365621
256,-16.235599,-33.142596,17.029068,-0.107424,0.182132,1.133806
257,-36.377508,-42.725261,18.432898,0.219242,0.091920,1.221942
258,-20.752270,-33.875029,10.742351,0.018799,0.081422,1.268452
259,-20.996414,-32.166018,9.277485,-0.010376,0.112428,1.120012
260,-21.484703,-29.053178,6.836042,0.086671,0.148562,0.985367
261,-27.466239,-25.329976,4.821851,-0.010864,0.138552,0.916152
262,-41.016251,-24.902724,4.150454,0.037476,0.055543,1.105852
263,-37.476158,-19.653620,3.784237,0.050538,0.011841,1.248066
264,-23.254749,-12.146181,1.586938,0.099001,0.024048,1.134051
265,-21.850919,-5.310140,1.892119,0.039796,0.029419,1.135637
266,-15.259022,-1.281758,2.258335,0.028809,0.024659,1.088518
267,-11.291676,1.770047,2.258335,0.031495,0.067994,1.010391
268,-14.404517,3.418021,2.746624,0.007935,0.051026,1.010636
269,-13.366903,3.173877,2.502480,-0.023316,0.038087,1.036881
270,-8.789197,1.281758,1.342794,-0.031495,0.046998,0.984390
271,-9.948882,-1.159686,1.342794,-0.027832,0.038087,0.998306
272,-8.972305,-3.051804,0.915541,-0.044068,0.040894,0.969741
273,-8.117800,-6.530861,1.342794,-0.025391,0.053223,0.942275
274,-9.094377,-7.873655,0.000000,-0.051637,0.038453,0.858045
275,-11.230640,-11.535821,1.647974,-0.013062,0.095094,1.040787
276,-12.939651,-11.169604,2.014191,0.011719,0.047608,0.958145
277,-13.000687,-11.474784,2.014191,-0.031983,0.042603,0.988052
278,-9.765774,-11.047532,-0.671397,-0.053101,0.008545,0.942763
279,-12.573434,-13.122759,1.403830,0.000610,0.097414,1.027481
280,-15.503166,-13.488975,2.319371,-0.004395,0.029419,0.967422
281,-12.573434,-14.099336,1.831083,-0.017212,0.023194,0.951431
282,-15.747311,-15.564202,0.915541,-0.040040,-0.018189,0.961685
283,-16.845960,-16.845960,1.464866,0.011719,0.057496,1.072770
284,-17.578393,-15.381094,1.525902,0.021241,0.011719,1.045182
285,-14.099336,-13.183795,0.915541,0.029786,-0.014527,1.022232
286,-11.352712,-11.352712,0.671397,0.030518,-0.009644,1.051286
287,-11.169604,-9.643702,0.854505,0.021118,-0.006226,1.003311
288,-9.948882,-9.033341,0.061036,-0.010376,-0.009522,1.037736
289,-10.070954,-8.178836,0.671397,0.026246,-0.010010,1.015274
290,-10.070954,-7.629511,0.732433,0.011353,0.001709,1.023209
291,-7.812619,-7.690547,0.793469,0.000977,0.034302,0.970840
292,-10.986496,-8.789197,0.793469,0.005615,0.047120,1.006485
293,-11.657893,-8.850233,0.671397,0.016968,0.013672,1.017105
294,-10.681315,-8.728161,0.671397,0.038819,-0.024537,0.939956
295,-13.611048,-8.911269,0.671397,0.017212,0.010742,0.985855
296,-17.395285,-8.850233,1.403830,0.045899,0.005493,0.999771
297,-18.066682,-7.629511,1.342794,0.044068,-0.000366,0.977920
298,-21.301595,-7.446403,2.014191,0.039307,0.005249,0.993057
299,-22.583352,-7.080186,1.709010,0.045655,0.008789,0.963760
300,-25.513085,-7.568475,1.464866,0.008545,0.015747,0.961318
301,-30.884260,-8.361944,1.770047,0.038941,-0.004639,0.997452
302,-29.358358,-7.080186,1.037613,0.014160,-0.043702,0.965225
303,-32.166018,-7.629511,1.403830,0.047730,-0.017578,1.011612
304,-33.630884,-6.408789,2.014191,0.036500,-0.043214,1.019181
305,-29.785611,-5.676356,2.990768,0.041260,-0.042603,1.003922
306,-31.738766,-5.432212,4.394598,0.053834,-0.062135,0.985489
307,-30.457008,-6.103609,5.493248,0.006470,-0.042115,1.054459
308,-30.457008,-5.859464,5.371176,0.007202,-0.044678,0.982559
309,-33.691920,-4.516670,4.455634,-0.008667,-0.031861,0.980728
310,-29.480430,-4.211490,0.976577,0.136233,0.061891,0.991836
311,-53.589685,-3.051804,-0.549325,-0.042969,0.030518,0.961929
312,-59.205005,-4.272526,-3.784237,0.036378,-0.081910,1.058854
313,-49.927520,-2.319371,-6.713970,0.001099,-0.038819,1.014420
314,-49.561303,-2.075227,-12.268254,-0.031739,-0.043946,0.968154
315,-55.542840,-5.065995,-20.202945,-0.026490,-0.093996,1.030167
316,-74.769207,7.324331,-36.865797,0.024048,-0.081300,0.954604
317,-87.708858,3.540093,-47.364004,0.069459,-0.274296,1.069230
318,-60.364691,-1.831083,-28.564889,0.318486,-0.312016,1.043961
319,-23.926146,1.953155,4.699779,0.200687,-0.191775,1.113664
320,-47.974365,13.366903,7.263294,0.086427,0.207523,0.976944
321,-94.972152,28.686961,-8.239872,0.173098,0.308354,0.880751
322,-150.148775,41.809720,4.943923,0.020874,0.525643,0.874891
323,-236.209659,30.823224,3.418021,-0.276127,0.461067,0.513680
324,-226.749065,-24.109255,34.119173,-0.235355,0.922988,1.013077
325,-405.706874,-31.189441,-29.419394,0.151980,0.978897,1.779446
326,-627.023728,-70.740826,-18.493935,-0.794812,-0.251225,1.595605
327,-715.342947,-140.321965,27.527276,-0.239994,0.018311,1.442039
328,-818.493935,-146.547646,59.266041,0.279545,-0.057984,1.044572
329,-973.891814,-142.275120,123.476005,1.288472,-2.000031,1.999969
330,-695.933471,-28.320745,150.942245,-0.922744,-0.348394,1.999969
331,108.339055,22.461280,-75.745785,-0.053468,0.149783,1.999969
332,258.609903,54.200046,-84.290837,-0.669932,1.274434,1.956451
333,31.189441,50.659953,-64.881361,-0.586191,0.659556,1.488304
334,-126.649882,-49.561303,15.320058,-0.542855,0.462776,1.259663
335,-44.983597,-57.251850,35.339895,-0.329351,0.265995,1.618677
336,133.485924,-36.621653,6.713970,-0.321660,0.498421,1.368185
337,109.987030,-30.945296,13.611048,-0.202152,0.577401,1.141863
338,90.272374,-20.386053,19.470512,-0.197635,0.318120,1.138567
339,156.191348,-1.464866,10.742351,-0.157229,0.321172,0.885389
340,169.069963,1.892119,7.629511,-0.113283,0.379522,0.566049
341,156.069276,-0.915541,6.836042,-0.055421,0.299199,0.644175
342,172.732128,5.676356,0.488289,-0.008789,0.287602,0.834363
343,187.502861,15.014878,-7.812619,0.042481,0.328008,1.058488
344,198.733501,24.597543,-14.282444,0.057618,0.282475,1.325093
345,226.688029,31.128405,-20.447089,0.061402,0.189700,1.386374
346,256.839857,32.715343,-25.146868,0.058717,0.120607,1.204242
347,270.572976,28.198672,-27.283131,0.068849,0.049928,1.087541
348,277.470054,25.452049,-28.931106,0.099733,0.000488,1.094133
349,285.282673,29.602502,-32.776379,0.152956,-0.015991,1.263813
350,292.668040,37.170977,-37.232013,0.181277,-0.045167,1.361715
351,299.565118,48.889906,-42.969406,0.155520,-0.185183,1.201312
352,295.292592,67.200732,-47.791257,0.172366,-0.453132,0.691173
353,274.235142,85.999847,-47.669184,0.210941,-0.475105,0.523568
354,236.331731,82.337682,-47.302968,0.214603,-0.396124,0.695201
355,215.823606,70.313573,-48.279545,0.235599,-0.230838,1.280781
356,203.494316,67.017624,-50.965133,0.176150,-0.222416,1.964141
357,205.386435,75.074388,-50.659953,0.167849,-0.306157,1.999969
358,234.561685,83.314260,-51.941711,0.135988,-0.468879,1.999969
359,262.821393,89.112688,-52.063783,0.026123,-0.624887,1.999969
360,258.854047,86.305028,-43.518730,-0.085206,-0.767346,1.962188
361,254.459449,82.154574,-32.837415,-0.119020,-0.922866,1.816556
362,246.952010,84.657053,-22.644388,-0.120974,-0.943008,1.865385
363,235.904479,87.159533,-10.925460,-0.115480,-0.966812,1.999969
364,240.970474,85.755703,1.403830,-0.041871,-0.988052,1.999969
365,252.140078,80.872816,9.826810,0.107179,-0.981704,1.878325
366,248.783093,70.435645,16.968032,0.167971,-0.998306,1.659327
367,242.374304,56.153201,22.034028,0.189456,-1.063493,1.522850
368,234.378576,45.471885,23.376822,0.176883,-1.141009,1.443626
369,220.340276,42.420081,23.498894,0.105470,-1.311421,1.308125
370,205.752651,43.579767,23.498894,0.073854,-1.509178,1.056168
371,183.047227,43.396658,23.376822,0.166262,-1.713893,0.868910
372,151.125353,43.457694,24.048219,0.349126,-1.937407,0.673838
373,118.715190,46.387427,13.733120,0.509529,-2.000031,0.476692
374,93.141070,56.397345,-1.586938,0.499519,-2.000031,0.312749
375,59.571221,62.623026,-4.272526,0.309331,-2.000031,0.117678
376,18.432898,37.720302,9.704738,0.124392,-1.971588,-0.010376
377,-62.623026,-15.075914,15.503166,0.063844,-2.000031,-1.613550
378,-206.240940,-102.906844,56.702525,0.259281,-1.839384,-0.715831
379,-269.230182,-127.504387,54.810407,0.459724,-1.814603,0.278569
380,-128.114748,-69.459068,24.292363,-0.030030,-0.023072,1.999969
381,-111.085679,-49.195087,16.357671,-0.283330,1.168841,1.999969
382,-202.395666,-68.909743,39.246204,-0.088502,0.454475,0.696422
383,-282.169833,-76.966506,51.819638,0.119631,-0.555306,0.954482
384,-241.214618,-47.913329,51.026169,0.537606,-0.399298,1.999969
385,-195.925841,-25.513085,42.786297,1.009293,-0.027344,1.999969
386,-122.133211,10.009918,17.395285,0.932143,-0.077516,1.988800
387,-91.981384,37.720302,-5.371176,0.321538,0.227787,0.957412
388,-140.444038,52.552071,-1.098650,-0.412116,0.046143,1.124285
389,-151.308461,21.179522,20.080873,-1.049699,-0.256962,1.949859
390,-99.671931,-23.682002,31.616693,-0.618296,-0.603037,1.403708
391,-37.048905,-61.646448,27.222095,0.341924,0.129397,1.973297
392,-38.757916,-49.500267,17.517357,0.734630,0.099855,1.746487
393,-16.784924,-15.747311,7.934691,-0.179690,-0.002808,1.098161
394,-27.832456,-29.602502,14.282444,-0.340948,0.013306,1.049210
395,-20.935378,-39.124132,9.948882,0.295415,0.100832,1.186419
396,-21.118486,-20.080873,4.943923,0.169314,0.104250,1.101946
397,-29.175250,-13.977264,5.554284,-0.229129,0.020142,0.945205
398,-24.841688,-25.207904,4.150454,-0.103639,0.066529,0.954360
399,-31.067369,-26.428626,2.075227,0.123659,0.028565,1.138811
400,-26.001373,-17.212177,1.892119,0.017334,0.014893,1.077653
401,-23.193713,-13.305867,1.403830,0.017212,0.012940,1.085466
402,-21.606775,-9.460594,2.685588,0.073732,0.010742,1.127092
403,-14.953841,-3.234913,2.014191,0.017578,0.020508,1.059831
404,-16.174563,-1.831083,3.479057,-0.007568,0.008667,1.040055
405,-13.122759,-1.281758,3.112840,-0.005615,0.012940,1.042252
406,-10.498207,-1.586938,2.685588,-0.042969,0.019043,0.951431
407,-13.244831,-4.394598,2.502480,-0.044190,0.035523,0.955581
408,-15.381094,-6.775006,1.770047,-0.065064,0.112062,1.106218
409,-13.855192,-10.070954,2.746624,-0.024292,0.049439,1.001358
410,-14.099336,-10.315099,1.770047,-0.005005,0.003906,0.956069
411,-15.381094,-11.230640,2.014191,-0.035035,0.000855,0.957656
412,-18.371862,-11.902037,-0.915541,0.005371,-0.233402,0.712902
413,-19.165332,-14.831769,1.403830,0.004150,-0.009400,1.114031
414,-18.249790,-12.817578,2.075227,0.014282,-0.032471,1.030045
415,-11.352712,-9.521630,1.464866,0.012573,-0.023926,1.042008
416,-11.718929,-7.629511,1.770047,0.012573,0.022461,1.002579
417,-15.136950,-5.615320,-0.488289,0.091188,-0.210330,0.657359
418,-15.381094,-8.300908,1.098650,-0.039796,0.011109,1.053483
419,-20.202945,-9.887846,2.197299,0.002197,-0.021118,1.013321
420,-17.151141,-8.850233,2.014191,0.019409,-0.024048,1.017838
421,-17.090105,-7.690547,1.770047,-0.006714,-0.011353,1.023209
422,-16.235599,-6.836042,1.892119,0.011231,-0.024414,1.025040
423,-17.456321,-6.469825,2.563516,0.010742,-0.005127,0.983902
424,-19.592584,-6.713970,2.746624,0.011841,0.018433,0.998917
425,-21.545739,-7.019150,2.990768,0.020508,-0.041505,1.014542
426,-20.630198,-5.981537,2.502480,0.007324,-0.025147,1.015640
427,-19.714656,-5.676356,2.685588,0.005371,-0.030640,1.005997
428,-20.325017,-5.127031,2.563516,0.026246,-0.047364,1.004166
429,-20.019837,-4.455634,2.685588,0.010376,-0.039307,0.992081
430,-21.728847,-4.333562,2.685588,0.027710,-0.048219,0.960342
431,-27.038987,-3.906310,2.868696,0.012940,-0.038453,0.973770
432,-26.855879,-3.845274,2.441444,0.011109,-0.047852,1.004776
433,-28.503853,-3.356985,2.563516,0.010864,-0.044800,0.987564
434,-29.846647,-4.089418,2.746624,-0.009522,-0.052247,0.955825
435,-33.813993,-5.615320,3.234913,0.011597,-0.073365,1.009049
436,-31.921874,-5.310140,3.051804,0.011963,-0.070924,1.011124
437,-31.982910,-5.859464,2.807660,0.005982,-0.082765,1.010025
438,-32.227054,-6.775006,2.807660,0.020630,-0.063600,0.982193
439,-31.494621,-5.737392,3.784237,0.041260,-0.031495,0.963516
440,-42.786297,-5.127031,6.469825,-0.007202,-0.105348,1.133928
441,-39.185168,1.953155,7.629511,0.087160,-0.127199,1.030777
442,-40.405890,5.615320,9.277485,0.005371,-0.105959,1.010025
443,-40.344854,6.286717,9.948882,0.025391,-0.109865,1.010147
444,-35.828183,7.080186,7.812619,-0.049195,-0.078614,0.978653
445,-37.354086,4.150454,1.098650,-0.039673,-0.020142,0.967666
446,-41.565576,2.136263,-2.136263,-0.062135,-0.096071,0.931655
447,-35.278859,2.197299,-7.507439,0.001465,-0.170291,0.905287
448,-43.152514,-0.061036,-24.414435,-0.078004,-0.185428,0.928237
449,-71.717403,4.882887,-48.096437,0.001831,-0.148562,1.051041
450,-62.073701,2.319371,-48.828870,0.141115,-0.428962,1.022110
451,-30.579080,-9.948882,-20.630198,0.124880,-0.264897,1.083146
452,-32.654307,-9.887846,-15.869383,-0.003418,0.077150,0.894911
453,-71.473259,-1.342794,-27.161059,0.152468,0.066773,1.038346
454,-129.884794,6.775006,-30.151827,0.082521,0.145876,0.820447
455,-138.551919,2.685588,-9.460594,-0.026490,0.276371,0.620005
456,-179.995422,-9.033341,-16.479744,-0.128786,0.730358,0.968765
457,-334.233616,-11.841001,-46.082246,0.024414,1.395529,1.453758
458,-580.819410,-26.428626,-47.852293,-0.484504,0.035035,1.601709
459,-724.925612,-95.521477,13.305867,-0.381353,-0.026123,1.440940
460,-820.813306,-111.696040,38.941024,0.246708,0.067872,1.106950
461,-894.178683,-101.747158,17.029068,0.261479,-0.793835,1.099260
462,-1093.339437,-63.965820,163.881895,-1.211933,-0.870863,1.999969
463,-365.484092,-28.137636,13.427939,-1.499779,-1.798611,1.999969
464,239.688716,6.897078,-51.148241,-0.959121,0.570077,1.999969
465,195.132372,3.906310,-30.334936,-1.093889,1.222431,1.999969
466,2.197299,-21.362631,40.222782,-0.815442,0.520027,1.766995
467,-72.999161,-84.290837,113.893339,-0.528817,0.288579,1.484642
468,45.044633,-61.219196,104.188602,-0.063844,0.173587,1.184100
469,165.041581,-30.823224,75.074388,-0.027344,0.495735,0.828260
470,134.035248,-22.156100,71.839475,0.264530,0.582650,0.743908
471,112.855726,-11.596857,56.214237,0.364996,0.465827,0.923476
472,157.106889,13.672084,28.625925,0.401251,0.410040,0.928115
473,180.422675,28.747997,5.920500,0.336431,0.389899,0.762463
474,176.699474,24.170291,-7.812619,0.345586,0.257939,0.689708
475,189.944305,15.320058,-21.179522,0.235599,0.177859,0.799817
476,208.133059,1.586938,-30.212863,0.196414,0.165042,0.833997
477,221.622034,-8.361944,-39.612421,0.116335,0.115358,0.964858
478,233.218891,-10.864424,-47.241932,0.090333,0.053101,1.061906
479,247.257191,-4.333562,-54.810407,0.026123,-0.019532,1.098772
480,255.313954,3.112840,-59.388113,-0.045411,-0.074220,1.186786
481,261.356527,7.934691,-60.120546,-0.090211,-0.130373,1.278584
482,269.535363,9.948882,-59.754330,-0.081666,-0.144411,1.506859
483,279.484245,14.831769,-59.876402,-0.061280,-0.208499,1.684718
484,298.832685,25.757229,-60.608835,-0.017700,-0.294194,1.782376
485,316.227970,38.391699,-60.852979,0.007324,-0.388434,1.710353
486,323.186084,49.378195,-58.777752,-0.023072,-0.512459,1.527123
487,323.247120,56.092164,-53.894865,-0.019409,-0.648447,1.201801
488,311.711299,61.707485,-47.302968,-0.086183,-0.740246,0.782483
489,282.963302,61.829557,-36.499580,-0.132692,-0.721324,0.680552
490,244.754711,55.786984,-22.705425,-0.183108,-0.670176,0.896132
491,220.706493,48.828870,-9.216449,-0.155032,-0.499886,1.308003
492,207.949950,43.457694,-1.098650,-0.063966,-0.313481,1.936797
493,204.531930,48.462654,2.868696,-0.007691,-0.286503,1.999969
494,231.570916,62.378882,3.356985,0.036378,-0.358282,1.999969
495,269.413291,69.214923,2.197299,0.058106,-0.450568,1.999969
496,289.250019,65.308614,0.854505,0.135866,-0.536995,1.999969
497,292.362860,60.914015,-3.112840,0.224002,-0.611215,1.797879
498,283.695735,64.698253,-11.718929,0.281376,-0.714244,1.471092
499,261.783780,73.548486,-20.691234,0.220829,-0.715831,1.516503
500,235.111009,71.656367,-25.879301,0.106447,-0.816419,1.738186
501,234.988937,67.261769,-29.602502,0.095827,-0.931167,1.812772
502,230.228122,72.205692,-33.936065,0.190677,-1.098650,1.659449
503,209.414817,88.685435,-36.926833,0.247684,-1.390036,1.395895
504,183.535515,104.921035,-36.194400,0.250492,-1.831327,1.089006
505,148.378729,107.667659,-28.381781,0.318853,-2.000031,0.993301
506,109.803922,100.831617,-18.371862,0.486702,-2.000031,0.921157
507,89.173724,95.277333,-13.061723,0.625376,-2.000031,0.385382
508,92.896925,77.698940,-15.686275,0.618173,-2.000031,-0.520516
509,37.781338,23.743038,-2.868696,0.145510,-2.000031,-1.525536
510,-141.908904,-112.306401,28.625925,0.411383,-2.000031,-2.000031
511,-325.139239,-223.697261,54.688334,0.871351,-2.000031,-0.186770
512,-181.460288,-157.351034,27.100023,0.326055,-0.290410,1.999969
513,-114.930953,-83.558404,9.399557,-0.554574,1.107195,1.999969
514,-161.989776,-75.562676,30.151827,-0.874281,0.622446,0.526375
515,-298.527504,-111.329824,65.430686,-0.368780,-0.369512,-0.435554
516,-332.402533,-117.250324,83.680476,0.264164,-0.480110,1.780301
517,-307.377737,-73.853666,84.412909,0.962539,-0.365118,1.999969
518,-178.713664,-28.259709,54.139010,1.323262,-0.268070,1.999969
519,-106.996262,-0.305180,17.883574,1.087419,-0.005615,1.701198
520,-136.232548,9.460594,7.385367,0.132448,0.055421,1.814725
521,-131.715877,-4.943923,20.874342,-0.985855,-0.185916,1.999969
522,-78.614481,-50.171664,32.959487,-1.110369,-0.377203,1.031022
523,-51.941711,-108.827344,40.466926,0.151980,0.307988,1.498314
524,-86.671244,-112.489509,25.391012,1.553613,0.220829,1.999969
525,-44.434272,-35.523003,2.502480,0.335698,-0.067384,1.335225
526,-48.157473,-35.217823,1.342794,-0.571176,-0.082033,1.207050
527,-50.782025,-64.881361,12.756542,0.270024,0.047120,1.089860
528,-38.635843,-39.917601,-1.586938,0.592538,0.087160,1.553857
529,-45.105669,-18.127718,2.014191,-0.054200,-0.030884,1.083146
530,-18.616007,-21.423667,0.915541,-0.012329,0.030762,1.065080
531,-24.719615,-20.813306,2.136263,0.147707,0.060304,1.041276
532,-30.884260,-13.183795,2.563516,0.083009,-0.049439,1.113542
533,-14.343481,-7.446403,2.990768,0.110719,0.030030,1.047868
534,-20.447089,-2.929732,3.906310,0.064332,0.043580,0.950088
535,-28.137636,-1.098650,4.943923,0.051881,0.023804,0.955825
536,-29.480430,-0.549325,4.577707,0.052491,0.027100,0.977554
537,-32.654307,-1.159686,3.906310,0.015869,-0.003296,0.993790
538,-28.381781,-2.807660,2.319371,0.049561,-0.009400,1.049821
539,-23.865110,-2.685588,0.488289,0.037842,-0.014038,1.012467
540,-21.972992,-3.295949,-0.549325,0.028565,-0.003906,0.989639
541,-25.879301,-5.004959,-0.366217,0.031373,-0.035157,1.012222
542,-21.667811,-4.272526,-0.183108,0.076783,-0.047120,1.043961
543,-18.249790,-2.502480,0.366217,0.066041,-0.041260,1.022843
544,-18.677043,-1.220722,0.915541,0.054810,-0.033936,1.008194
545,-18.738079,-0.671397,0.915541,0.058961,-0.030152,1.013687
546,-18.860151,0.366217,0.671397,0.058350,-0.030274,1.004288
547,-20.202945,0.854505,0.305180,0.050904,-0.045655,1.028092
548,-18.493935,1.037613,0.000000,0.050904,-0.061646,1.011612
549,-16.540780,0.732433,-0.244144,0.045899,-0.047486,1.008804
550,-17.151141,-0.061036,-0.366217,0.041505,-0.052491,1.000137
551,-16.296635,-0.549325,-0.549325,0.046021,-0.058473,1.000626
552,-16.113527,-0.671397,-0.244144,0.046632,-0.066407,0.997208
553,-14.953841,-0.854505,0.061036,0.053712,-0.075319,1.011002
554,-15.075914,-1.037613,0.000000,0.040162,-0.079347,1.002457
555,-12.268254,-1.220722,-0.427253,0.047852,-0.078126,1.007218
556,-11.108568,-1.770047,-0.427253,0.060670,-0.093019,1.015518
557,-9.948882,-1.464866,0.000000,0.057618,-0.087648,1.009171
558,-7.812619,-1.525902,0.305180,0.052491,-0.079835,1.005753
559,-5.981537,-1.647974,0.732433,0.051881,-0.057862,0.987564
560,-9.094377,-1.770047,1.403830,0.057984,-0.066285,0.991958
561,-9.643702,-1.953155,2.380407,0.039063,-0.069947,0.968276
562,-10.131991,-2.746624,3.356985,0.051637,-0.054810,0.965835
563,-13.488975,-3.479057,4.455634,0.061158,-0.037720,0.999405
564,-16.662852,-2.502480,3.784237,0.084108,-0.059327,1.040421
565,-17.395285,0.183108,3.540093,0.055177,-0.080201,0.998306
566,-17.273213,0.366217,3.051804,0.054932,-0.039796,1.005386
567,-19.775692,0.488289,1.342794,0.035279,-0.045289,0.948745
568,-30.029755,0.244144,0.305180,0.032471,-0.042237,1.120745
569,-37.598230,-0.732433,-0.915541,0.013062,-0.101808,1.039200
570,-29.724575,-0.183108,-0.915541,0.067384,-0.075441,0.982437
571,-36.133364,1.647974,0.488289,0.094362,-0.036133,0.995987
572,-46.143282,7.202258,5.493248,0.089235,-0.072633,0.976455
573,-60.730907,10.559243,7.812619,0.045899,-0.191409,1.077287
574,-44.617380,12.451362,11.169604,0.058228,-0.137453,0.980972
575,-45.960174,12.573434,10.742351,0.026001,-0.123781,1.046891
576,-44.678416,10.986496,8.850233,-0.008545,-0.106325,1.001968
577,-31.799802,9.338521,2.319371,-0.045899,-0.093263,0.989273
578,-34.180209,5.981537,-10.009918,-0.021851,-0.089723,0.826062
579,-43.518730,5.981537,-22.278172,-0.022217,-0.177127,1.041032
580,-43.518730,8.422980,-31.982910,0.064698,-0.249760,0.973770
581,-31.616693,5.310140,-34.729534,0.117800,-0.243778,1.054704
582,-17.395285,0.366217,-20.691234,0.198611,-0.241093,1.113298
583,-16.113527,4.516670,-1.953155,0.081544,0.004273,1.102068
584,-55.237659,12.329290,-15.625238,0.152590,0.230106,0.952163
585,-104.676890,22.034028,-28.686961,0.050050,0.303716,0.964004
586,-136.659800,28.809033,-28.747997,-0.014771,0.457282,0.657237
587,-183.657588,5.432212,-42.420081,-0.464973,0.241825,0.717540
588,-213.076982,-34.485389,-25.268940,-0.121096,0.952407,1.358419
589,-487.495232,-42.664225,-60.303655,0.077638,0.116091,1.275288
590,-657.663844,-123.903258,29.419394,-0.791760,0.317266,1.992950
591,-778.027009,-207.827878,50.110628,-0.123293,0.012573,1.300435
592,-885.694667,-203.311208,72.999161,0.321782,0.099733,0.872572
593,-1090.836957,-200.991836,142.702373,1.194476,-2.000031,1.999969
594,-649.118792,-101.503014,197.878996,-0.349493,-1.576318,1.999969
595,242.435340,3.601129,-99.855039,0.117311,0.231937,1.999969
596,432.257572,52.857252,-81.116960,-0.566415,1.170916,1.999969
597,181.521324,45.777066,-88.746471,-0.667124,0.999405,1.223407
598,-6.713970,-20.569162,13.611048,-0.748791,0.414557,0.111696
599,-70.252537,-53.406577,47.119860,-0.367803,0.052613,0.306889
600,39.612421,-24.170291,28.076600,-0.348394,-0.010986,0.639780
601,130.556191,-5.127031,23.620966,-0.194217,0.386847,0.524788
602,88.197147,-6.225681,28.076600,-0.047974,0.470466,0.674327
603,71.046006,-6.042573,28.320745,-0.030030,0.366094,1.029435
604,121.644923,-1.953155,19.470512,0.013184,0.384771,1.235248
605,157.412070,-3.540093,11.291676,0.083375,0.464363,1.245869
606,171.755550,-5.249104,3.051804,0.141970,0.409796,1.344015
607,199.954223,0.915541,-7.812619,0.118410,0.343755,1.402609
608,232.120241,10.620279,-19.836728,0.116213,0.253544,1.345968
609,252.872511,20.630198,-29.358358,0.065919,0.148562,1.266621
610,268.253605,28.564889,-35.095750,0.015991,0.031495,1.224750
611,283.512627,36.316472,-38.025483,-0.026856,-0.057496,1.217060
612,293.949798,42.236973,-37.659266,-0.051759,-0.148074,1.193133
613,302.311742,45.044633,-34.302281,-0.059937,-0.194949,1.161273
614,307.255665,39.185168,-30.701152,0.010376,-0.195071,1.237201
615,309.269856,33.142596,-31.006332,0.124392,-0.295537,1.134295
616,305.912871,37.964446,-39.124132,0.256718,-0.481331,0.738903
617,286.747539,59.327077,-48.889906,0.385138,-0.504891,0.672618
618,246.890974,72.632944,-58.045319,0.357427,-0.427253,0.914076
619,225.040055,72.816052,-67.566949,0.303471,-0.372686,1.377584
620,223.147936,76.539254,-74.280919,0.183841,-0.344610,1.843656
621,217.837797,88.502327,-72.877089,0.081056,-0.444465,1.999969
622,227.725643,98.390173,-65.735866,-0.025757,-0.602792,1.999969
623,252.750439,103.089952,-56.336309,-0.037476,-0.732433,1.999969
624,254.337377,102.113375,-43.091478,-0.024292,-0.756359,1.999969
625,251.590753,91.371023,-29.419394,0.029053,-0.867201,1.999969
626,275.577935,87.830930,-19.348440,0.152102,-0.915297,1.999969
627,292.790112,92.225528,-17.456321,0.277958,-0.946426,1.999969
628,285.282673,93.934539,-16.906996,0.414679,-0.905776,1.745876
629,271.549554,84.840162,-21.240558,0.488411,-0.875868,1.729152
630,264.713512,76.234073,-29.907683,0.534188,-0.888075,1.732326
631,256.473640,76.173037,-42.175937,0.493904,-0.997208,1.713283
632,244.815747,82.825971,-50.476844,0.324590,-1.237934,1.551049
633,230.655375,86.732280,-49.378195,0.124392,-1.547997,1.323873
634,206.729229,85.572595,-37.842374,0.028931,-1.980377,1.013077
635,173.647669,89.173724,-22.461280,0.127810,-2.000031,0.714122
636,128.419928,100.892653,-10.925460,0.332769,-2.000031,0.479255
637,89.906157,106.630045,-0.122072,0.505623,-2.000031,-0.148318
638,64.087892,76.173037,0.488289,0.673350,-2.000031,-0.761120
639,7.507439,5.920500,18.432898,0.614511,-2.000031,-0.554086
640,-107.972839,-93.873503,35.156786,0.576913,-2.000031,-1.478782
641,-238.529030,-195.986877,59.143969,1.003067,-1.716823,-0.044190
642,-250.064851,-169.619287,30.945296,0.855360,-1.031022,1.394186
643,-110.170138,-96.314946,-3.295949,0.105470,0.499519,1.999969
644,-108.522164,-66.956588,-1.525902,-0.326543,1.047379,1.633082
645,-220.645457,-70.862898,21.789883,-0.295903,0.287724,-0.076783
646,-282.352941,-79.652094,33.569848,-0.251347,-0.495613,0.343755
647,-295.048447,-69.398032,50.904097,0.133425,-0.218143,1.999969
648,-251.163500,-40.588998,45.960174,0.712413,-0.364996,1.999969
649,-130.006867,5.310140,14.892805,0.631724,-0.439094,1.763943
650,-138.063630,7.873655,13.855192,-0.093874,0.036011,1.429831
651,-176.516365,-26.977951,31.555657,-0.821790,-0.688975,1.999969
652,-76.905470,-64.209964,33.691920,-0.514900,-0.439582,1.202777
653,-75.013352,-98.146029,30.334936,0.974136,0.278080,1.999969
654,-51.697566,-57.862211,17.212177,1.031632,0.116823,1.846098
655,-34.180209,-9.399557,4.455634,-0.325933,0.132204,1.018936
656,-62.745098,-30.090791,11.718929,-0.061280,0.012207,1.111467
657,-49.317159,-25.391012,2.258335,0.447150,-0.023072,1.489036
658,-38.696880,-0.976577,0.854505,-0.015991,0.046509,1.193866
659,-36.743725,-5.065995,4.821851,-0.156008,-0.053468,1.097673
660,-23.376822,-10.131991,2.807660,0.088624,0.003662,1.139544
661,-23.071641,-5.798428,2.746624,-0.011109,-0.041627,1.093523
662,-15.075914,-6.225681,1.525902,-0.044923,-0.013550,1.025284
663,-15.259022,-5.432212,1.342794,0.087648,0.035523,1.034073
664,-17.151141,-1.709010,2.258335,-0.028199,0.017823,1.004898
665,-17.395285,-2.380407,2.075227,0.025757,-0.005249,1.016373
666,-16.845960,0.183108,2.441444,0.029664,0.021118,1.000748
667,-20.447089,1.098650,3.234913,0.005493,-0.001709,0.998062
668,-19.775692,1.586938,3.051804,-0.013672,-0.011719,1.000504
669,-19.592584,1.098650,3.051804,0.001953,-0.012329,0.995987
670,-20.325017,1.281758,3.906310,0.004639,-0.013550,1.009049
671,-18.982223,1.525902,3.723201,-0.013794,-0.020996,1.021866
672,-17.456321,2.502480,2.197299,0.026368,0.045655,1.051530
673,-13.916228,1.281758,2.136263,-0.017090,-0.035523,1.053971
674,-18.982223,-0.976577,2.746624,0.002930,-0.045533,0.976455
675,-15.014878,-0.732433,1.709010,-0.003296,-0.042237,1.005509
676,-14.404517,-1.098650,1.586938,-0.012207,-0.030274,1.002090
677,-15.381094,-1.647974,1.586938,-0.020874,-0.029664,0.993179
678,-15.014878,-2.380407,1.220722,-0.018433,-0.026978,0.989151
679,-15.136950,-0.427253,-1.831083,0.112428,-0.227054,0.668345
680,-13.427939,-2.929732,-1.647974,-0.039307,-0.050660,1.130510
681,-16.968032,-5.310140,0.671397,-0.019165,-0.058595,1.011856
682,-11.535821,-5.737392,0.244144,-0.010986,-0.058473,1.006241
683,-10.131991,-6.591897,-0.122072,-0.013428,-0.057130,1.053971
684,-8.361944,-7.202258,-0.366217,-0.000732,-0.065431,1.039933
685,-5.554284,-6.591897,-0.671397,-0.008423,-0.039063,0.997452
686,-7.385367,-6.713970,-0.244144,0.007568,-0.042359,0.994644
687,-5.310140,-7.446403,-1.342794,-0.004883,0.061646,0.983780
688,-5.981537,-4.516670,0.000000,-0.009644,-0.038331,0.993423
689,-11.108568,-4.455634,1.464866,0.016846,-0.064576,1.075944
690,-6.347753,-2.197299,1.831083,0.016968,-0.095827,1.038224
691,-5.859464,0.061036,2.197299,-0.003662,-0.031006,1.014054
692,-7.507439,-0.427253,2.563516,0.009155,0.000855,1.049454
693,-9.338521,-0.549325,2.685588,-0.013184,-0.087648,0.993301
694,-8.911269,-1.647974,2.014191,-0.006226,-0.057984,0.984634
695,-10.131991,-2.746624,2.136263,0.015381,-0.065797,0.964614
696,-11.535821,-2.380407,2.197299,0.013794,-0.056764,0.969741
697,-13.611048,-2.807660,2.014191,-0.010376,-0.007568,0.958389
698,-19.165332,-5.127031,1.098650,-0.013062,-0.013062,0.929213
699,-27.649348,-7.812619,0.732433,0.018189,-0.011963,0.956924
700,-34.973678,-7.324331,0.061036,-0.020264,-0.045167,0.983047
701,-38.086519,-7.568475,0.000000,0.004639,-0.080323,1.019181
702,-36.438544,-5.859464,0.732433,-0.015869,-0.085084,1.007218
703,-35.584039,-4.211490,2.258335,0.043214,-0.095460,1.018448
704,-41.870756,-2.014191,6.103609,-0.007813,-0.113161,0.981827
705,-38.330663,-2.075227,7.812619,0.009400,-0.086793,1.017105
706,-38.635843,-1.342794,6.347753,-0.023804,-0.060426,1.016739
707,-43.030442,-1.220722,2.868696,-0.003296,-0.079713,1.007218
708,-37.903410,-0.061036,1.220722,-0.029908,-0.115480,1.018814
709,-30.029755,-1.831083,-5.981537,-0.133791,-0.031617,1.042985
710,-32.959487,-4.638743,-15.075914,-0.044556,0.010132,1.068498
711,-64.576181,0.671397,-40.588998,-0.091188,-0.027588,0.987442
712,-83.131151,-0.488289,-46.875715,0.056641,-0.276982,1.066911
713,-63.721675,-10.498207,-19.409476,0.110842,-0.441535,1.223407
714,-40.466926,-12.146181,-3.418021,-0.039307,-0.095583,1.014176
715,-51.087205,-8.361944,-17.883574,0.017090,0.029908,0.919203
716,-75.501640,-5.676356,-23.132677,0.112673,0.166262,0.912001
717,-123.903258,-7.629511,-18.493935,0.033570,0.152224,0.823987
718,-133.180743,-22.522316,-11.169604,-0.033692,0.327398,0.856458
719,-213.626307,-0.061036,-30.395972,0.271122,1.431052,1.055558
720,-425.787747,2.624552,-56.641489,0.144778,0.903700,1.300435
721,-688.670176,2.868696,-11.963073,-0.106203,0.511238,1.960479
722,-794.079500,-62.684062,60.242618,-0.147341,-0.208743,1.606714
723,-890.577554,-66.346227,102.662699,0.219608,0.128054,0.831434
724,-1096.330205,-114.991989,158.632792,-0.761364,-1.788357,1.999969
725,-486.457618,-102.906844,66.834516,-1.486473,-1.390158,1.999969
726,232.730602,-64.759289,-44.129091,-0.395514,0.971817,1.999969
727,315.922789,-21.118486,-49.561303,-0.771130,1.079362,1.935454
728,65.918975,4.028382,-27.222095,-0.548714,0.923110,1.165057
729,-78.675517,-32.593271,49.317159,-0.235966,0.294316,-0.000977
730,-65.186542,-22.949569,36.987869,-0.004883,-0.094362,0.396490
731,70.984970,4.211490,5.065995,-0.142947,0.261234,0.474250
732,54.627298,-0.244144,2.746624,-0.056519,0.481575,0.445441
733,17.456321,-12.024109,8.484016,-0.124147,0.333501,0.785046
734,72.083619,-17.883574,3.356985,-0.162722,0.342901,0.986954
735,107.179370,-28.625925,1.220722,-0.151980,0.462287,1.031876
736,117.006180,-38.208591,1.403830,-0.119020,0.436286,1.212665
737,153.139544,-33.447776,-4.638743,-0.093507,0.430060,1.390524
738,184.451057,-20.263981,-12.878614,-0.077760,0.402228,1.349874
739,205.325399,-4.333562,-19.104295,-0.098512,0.288457,1.239399
740,227.603571,9.582666,-23.987182,-0.138796,0.168826,1.116472
741,243.900206,17.456321,-25.024796,-0.174197,0.074830,1.010513
742,254.764630,19.043259,-22.522316,-0.200565,0.001953,1.027359
743,266.361486,18.005646,-18.249790,-0.184695,-0.050416,1.106706
744,279.240101,17.700465,-14.709697,-0.146731,-0.081178,1.155657
745,289.372091,18.371862,-12.695506,-0.096925,-0.081178,1.241352
746,297.001602,22.156100,-13.550011,-0.020874,-0.120241,1.261616
747,300.846876,31.921874,-19.470512,0.088624,-0.303960,0.981216
748,289.188983,53.162432,-27.466239,0.219364,-0.397589,0.777111
749,262.394141,62.378882,-32.776379,0.221317,-0.411017,0.797131
750,243.717098,50.293736,-39.795529,0.259525,-0.340703,1.078630
751,234.317540,33.875029,-48.401617,0.206546,-0.258671,1.523827
752,228.885328,30.640116,-55.970092,0.153445,-0.300298,1.999969
753,232.547494,49.500267,-60.669871,0.070192,-0.393194,1.999969
754,250.308995,70.862898,-65.308614,-0.001831,-0.484871,1.999969
755,257.816434,81.361105,-62.745098,-0.121828,-0.564462,1.999969
756,262.516213,78.553445,-53.101396,-0.193362,-0.703990,1.999969
757,279.545281,73.182269,-45.471885,-0.109377,-0.859754,1.982208
758,277.897307,82.825971,-41.016251,-0.018555,-0.815442,1.868070
759,251.346609,83.680476,-35.156786,0.051637,-0.823255,1.999969
760,258.915084,81.605249,-33.569848,0.204837,-0.817395,1.999969
761,269.596399,79.102770,-37.659266,0.328618,-0.821057,1.999969
762,264.774548,74.891279,-41.504540,0.364874,-0.931899,1.806424
763,259.891661,72.693980,-46.204318,0.382452,-1.030655,1.545434
764,243.533989,73.121233,-51.026169,0.343145,-1.161151,1.365255
765,217.837797,73.914702,-51.270314,0.252567,-1.371481,1.231342
766,191.653315,74.586099,-46.509499,0.192142,-1.694606,1.114641
767,159.487297,76.478218,-35.767147,0.285039,-2.000031,0.963027
768,113.893339,76.356146,-25.818265,0.457160,-2.000031,0.848402
769,79.591058,83.375296,-24.475471,0.566903,-2.000031,0.562997
770,79.591058,96.009766,-29.907683,0.490364,-2.000031,0.000855
771,55.237659,84.473945,-13.855192,-0.180911,-2.000031,-0.863905
772,-93.446250,-45.410849,35.095750,-0.262455,-2.000031,-1.918853
773,-260.746166,-206.118868,103.395132,0.738659,-2.000031,-1.012467
774,-188.235294,-184.817273,80.628672,1.047379,-0.365850,1.999969
775,-106.752117,-80.201419,34.424353,0.145998,1.120745,1.999969
776,-141.115435,-78.492409,46.448463,-0.157717,0.786999,0.297856
777,-309.697108,-122.987716,67.200732,0.331792,-0.163943,-0.198489
778,-360.601205,-81.910430,84.107729,0.613413,-0.554330,1.410300
779,-310.795758,-61.158160,67.505913,1.164691,-0.338018,1.999969
780,-216.983291,2.868696,33.020523,1.306294,-0.249271,1.999969
781,-155.153735,22.766461,0.976577,0.143435,-0.160647,1.765164
782,-183.352407,-35.278859,22.583352,-1.347433,-0.869520,1.999969
783,-63.355459,-95.948730,42.053864,-1.068376,-0.451911,1.124285
784,-61.524376,-135.866331,39.734493,1.159808,0.384894,1.999969
785,-72.083619,-78.309300,19.714656,1.572656,0.024292,1.950347
786,-48.157473,-16.479744,7.812619,-0.595102,0.014160,1.189593
787,-58.533608,-53.284504,12.756542,-0.294194,0.050660,1.220478
788,-39.368276,-53.162432,-0.244144,0.660044,0.106447,1.284321
789,-49.195087,-18.005646,-2.258335,0.112551,-0.066163,1.395041
790,-31.494621,-18.249790,0.183108,-0.146487,-0.133059,1.209125
791,-5.432212,-21.057450,-4.638743,0.192142,0.073243,0.984634
792,-24.231327,-11.657893,0.061036,0.030396,-0.041505,1.086320
793,-13.122759,-9.765774,1.098650,0.021363,-0.049073,1.117571
794,-6.408789,-4.882887,0.793469,0.105348,0.012207,1.002335
795,-11.902037,0.671397,3.540093,0.026978,-0.006836,1.021744
796,-9.216449,2.685588,3.418021,0.080568,-0.151492,0.837293
797,-8.056764,2.197299,4.577707,0.048707,0.030396,1.026993
798,-12.085145,1.525902,5.249104,0.020508,-0.018189,0.975967
799,-9.338521,0.122072,4.760815,0.029908,0.044434,1.042008
800,-8.667124,-0.244144,3.906310,0.013428,0.041382,1.024308
801,-9.643702,-1.525902,3.356985,-0.007446,0.004883,0.986221
802,-9.338521,-3.356985,2.502480,0.018555,-0.062989,0.941176
803,-9.033341,-4.577707,2.380407,0.026734,-0.048829,0.953994
804,-8.728161,-5.188067,2.746624,0.012573,0.021851,1.029801
805,-7.934691,-6.103609,2.685588,0.010132,-0.050660,0.976822
806,-7.751583,-6.591897,2.319371,0.033936,0.015747,1.018204
807,-8.850233,-6.286717,2.014191,0.047486,0.028199,1.086076
808,-4.333562,-4.516670,1.892119,0.060304,-0.069581,0.998062
809,-1.220722,-2.563516,1.342794,0.040162,-0.001099,1.032975
810,-2.319371,-1.709010,1.525902,0.020874,0.020996,0.986343
811,-2.197299,-1.892119,0.305180,0.020874,-0.085695,0.867445
812,-3.295949,-3.845274,0.549325,0.021607,0.001465,0.939101
813,-9.704738,-5.554284,1.464866,0.014405,0.010010,1.036759
814,-6.225681,-5.249104,1.525902,0.029908,0.002564,0.992813
815,-7.507439,-5.554284,1.464866,0.024170,-0.023194,0.950942
816,-8.667124,-6.652934,1.770047,0.037232,-0.019654,0.989517
817,-8.117800,-6.897078,1.342794,0.035523,-0.026612,0.986343
818,-8.789197,-7.202258,1.159686,0.033448,-0.021607,0.982071
819,-8.850233,-7.812619,0.854505,0.030396,-0.010010,0.982559
820,-10.070954,-8.911269,0.671397,0.013428,-0.007568,0.961929
821,-12.390326,-10.620279,0.122072,0.031006,0.008789,0.926772
822,-20.202945,-12.207218,0.366217,0.039063,-0.002441,0.958022
823,-23.620966,-12.451362,0.976577,0.054566,-0.025147,0.984634
824,-24.475471,-12.329290,1.342794,0.055665,-0.024903,0.964004
825,-29.053178,-12.756542,2.685588,0.059815,-0.034913,0.968887
826,-31.494621,-12.268254,3.906310,0.068971,-0.058595,0.972061
827,-30.701152,-12.207218,4.943923,0.070436,-0.048463,0.986099
828,-25.757229,-11.413748,4.760815,0.046754,-0.030396,1.028458
829,-32.227054,-11.291676,4.028382,0.046265,-0.056031,0.947036
830,-36.377508,-10.742351,4.211490,0.104860,0.005737,1.126848
831,-36.316472,-5.737392,1.709010,0.046998,-0.047486,0.965225
832,-40.711070,-5.065995,2.563516,0.090822,-0.041138,1.044450
833,-44.068055,-3.418021,3.356985,0.048341,-0.123171,1.083635
834,-47.180896,-1.098650,4.577707,0.074952,-0.143069,0.969253
835,-45.593957,-0.061036,5.432212,0.093385,-0.069581,1.009171
836,-39.002060,5.065995,7.507439,0.069215,-0.020386,1.008804
837,-61.097124,2.624552,3.051804,0.041382,-0.111574,1.005753
838,-50.843061,3.173877,1.403830,0.019532,-0.123049,0.982559
839,-48.035401,2.624552,-3.540093,0.046143,-0.123415,1.095109
840,-48.218509,2.990768,-8.422980,-0.002930,-0.146120,0.997574
841,-40.039673,0.793469,-17.273213,-0.066163,-0.243168,1.087541
842,-39.917601,5.859464,-22.766461,0.030762,-0.023560,1.030167
843,-54.383154,8.117800,-44.129091,0.087037,-0.179080,0.961196
844,-60.364691,10.009918,-44.739452,0.252811,-0.321904,1.099992
845,-44.373236,14.587625,-19.348440,0.347295,-0.359869,1.175189
846,-22.888533,20.874342,8.606088,0.177859,0.049195,1.056657
847,-63.233387,35.339895,-8.484016,-0.033448,0.154788,0.949233
848,-129.640650,41.504540,-23.743038,0.030762,0.311650,0.763684
849,-212.893874,40.588998,-20.080873,-0.227176,0.717906,0.433356
850,-193.240253,-19.653620,10.376135,0.016114,0.651987,0.869886
851,-385.198749,-11.413748,-48.157473,0.065675,0.927504,1.550683
852,-602.304112,-70.435645,-45.593957,-1.077775,-0.380743,1.999969
853,-767.528801,-212.405585,53.162432,-0.497932,0.054932,1.451194
854,-833.813993,-344.487678,73.853666,-0.505501,-0.873060,1.737942
855,-1017.166400,-274.052033,257.389181,0.010986,-0.234379,1.999969
856,-488.776989,-86.182956,176.333257,-1.268818,0.529915,1.999969
857,181.216144,-9.338521,-33.325704,-0.386969,0.574105,1.999969
858,240.238041,58.777752,-38.757916,-0.043214,1.313375,1.277363
859,39.246204,63.721675,-12.878614,-0.701793,0.912001,1.422995
860,-110.597391,-9.155413,63.111315,-0.357183,0.359625,0.595590
861,-81.055924,-18.921187,82.459754,-0.159426,0.442145,0.929946
862,64.576181,0.122072,42.969406,-0.065675,0.288701,0.979507
863,104.310674,5.432212,35.034714,0.125002,0.526253,0.695811
864,60.303655,-0.915541,33.325704,0.121462,0.452399,0.837415
865,83.436332,-1.647974,22.034028,0.155886,0.385504,1.005753
866,134.523537,0.549325,5.615320,0.157961,0.475471,1.000137
867,143.373770,-7.019150,-4.943923,0.146731,0.478767,1.043839
868,159.182116,-9.643702,-16.052491,0.128664,0.386603,1.165911
869,190.676738,-5.004959,-27.832456,0.082521,0.337285,1.179583
870,208.865492,0.976577,-35.950256,-0.015503,0.308476,1.243915
871,222.537575,9.582666,-41.870756,-0.070192,0.176516,1.301656
872,247.806516,21.545739,-44.373236,-0.147463,0.061280,1.258320
873,265.140764,30.090791,-42.420081,-0.195682,-0.021973,1.176287
874,275.150683,33.630884,-36.560616,-0.198734,-0.097414,1.082292
875,283.573663,31.799802,-30.395972,-0.162966,-0.105226,1.102800
876,285.587854,27.649348,-25.391012,-0.075563,-0.098512,1.289448
877,291.447318,27.893492,-25.635157,0.050782,-0.144289,1.346944
878,297.428855,40.894179,-34.180209,0.175662,-0.292241,1.099992
879,284.916457,66.041047,-45.349813,0.320439,-0.439094,0.765759
880,258.060578,87.403677,-54.993515,0.327642,-0.451057,0.777600
881,229.495689,73.670558,-61.341268,0.293828,-0.394171,0.987076
882,220.767529,50.843061,-67.505913,0.250858,-0.316045,1.400412
883,211.062791,48.462654,-73.182269,0.203006,-0.291142,1.999969
884,205.325399,71.595331,-75.379568,0.138918,-0.370001,1.999969
885,225.345235,94.422828,-76.050965,0.047730,-0.541146,1.999969
886,253.788052,103.517205,-68.604562,-0.023926,-0.608774,1.999969
887,264.042115,94.422828,-56.946670,0.008301,-0.743053,1.999969
888,269.901579,89.417868,-46.448463,0.175418,-0.779431,1.913970
889,260.868238,85.145342,-40.527962,0.344610,-0.747570,1.979156
890,258.731975,79.285878,-38.879988,0.447395,-0.724865,1.999969
891,270.145724,73.487449,-42.664225,0.521614,-0.687388,1.999969
892,272.404059,67.017624,-47.302968,0.507332,-0.700938,1.829496
893,266.788739,58.045319,-51.331350,0.448737,-0.783093,1.664698
894,255.802243,53.162432,-53.711757,0.288457,-0.927626,1.531884
895,239.139391,53.650721,-51.819638,0.056886,-1.172747,1.436057
896,218.570230,59.693294,-41.504540,-0.166506,-1.514305,1.233295
897,192.996109,68.604562,-25.024796,-0.208255,-1.915801,0.930434
898,155.580987,79.713130,-2.685588,0.063844,-2.000031,0.691173
899,100.770581,90.455482,8.484016,0.430304,-2.000031,0.583749
900,65.918975,106.019684,6.469825,0.599741,-2.000031,0.378424
901,62.623026,106.446937,13.427939,0.490242,-2.000031,-0.098268
902,16.662852,60.059510,38.574807,0.306157,-2.000031,-0.332769
903,-74.708171,-37.537194,63.416495,0.212161,-2.000031,-1.836454
904,-202.029450,-164.980545,97.840848,0.780041,-1.565576,-0.190921
905,-261.661707,-162.355993,77.759976,1.007218,-1.633936,0.870619
906,-144.838636,-80.018311,42.481117,0.154421,-0.124147,1.999969
907,-98.573281,-76.539254,28.686961,-0.136721,1.021622,1.999969
908,-166.323339,-66.773480,45.349813,-0.105959,0.726574,0.640635
909,-247.684443,-67.689021,52.613108,0.060426,-0.305913,-0.129641
910,-275.028611,-64.209964,63.355459,0.597421,-0.168582,1.617945
911,-265.873198,-35.706111,52.613108,1.235615,-0.092653,1.999969
912,-176.821546,16.601816,15.686275,1.252583,-0.203616,1.999969
913,-130.739300,32.349126,-16.540780,0.382818,0.009644,1.734890
914,-145.265888,37.537194,0.305180,-1.522240,-0.009155,1.999969
915,-128.969253,-42.603189,37.476158,-1.554589,-0.867079,1.360128
916,-47.425040,-115.419242,43.457694,0.246586,0.178470,1.641871
917,-71.290150,-103.639277,27.222095,1.792264,0.267826,1.999969
918,-42.053864,-11.841001,5.554284,0.233158,-0.132082,1.290791
919,-54.505226,-15.381094,13.183795,-0.777722,-0.071656,1.021500
920,-46.387427,-49.378195,8.361944,0.364752,0.084962,1.299458
921,-41.870756,-23.437858,0.488289,0.353887,0.039551,1.230121
922,-44.434272,-9.887846,4.333562,-0.254765,-0.072633,1.210468
923,-19.226368,-20.630198,-1.098650,0.052369,0.035645,1.092912
924,-23.437858,-13.733120,-2.990768,0.105837,-0.016480,1.031266
925,-21.911955,-9.643702,1.464866,-0.010010,0.028443,1.076310
926,-16.052491,-9.704738,0.732433,0.033814,0.066285,1.022110
927,-21.362631,-6.164645,0.976577,0.019043,0.046021,1.054337
928,-22.034028,-4.028382,3.906310,0.019409,0.033204,1.033829
929,-20.325017,-2.441444,3.906310,0.006470,0.018677,1.012833
930,-21.240558,-1.770047,3.906310,0.017945,-0.001221,1.033219
931,-19.653620,-1.159686,3.784237,0.000610,-0.000244,1.023819
932,-17.822538,0.610361,1.342794,0.080934,-0.033082,0.853285
933,-16.723888,-0.610361,1.770047,-0.010010,-0.004883,1.015152
934,-21.240558,-2.929732,2.746624,-0.025025,-0.011841,0.974502
935,-18.677043,-2.624552,1.831083,0.016236,-0.022950,1.052750
936,-16.601816,-0.854505,2.014191,0.005982,-0.038087,1.048356
937,-13.672084,0.610361,2.075227,0.014160,-0.030030,1.035904
938,-12.207218,2.319371,2.441444,0.012451,-0.023926,1.029313
939,-10.925460,3.418021,2.380407,0.003906,-0.016968,1.015274
940,-10.315099,1.953155,2.258335,0.011109,0.087526,0.991470
941,-13.427939,3.295949,2.990768,-0.006592,-0.027955,0.968276
942,-12.817578,3.173877,2.868696,-0.006470,-0.031006,1.046036
943,-9.582666,3.479057,2.380407,-0.007935,-0.023072,0.986099
944,-11.963073,2.624552,2.868696,-0.012940,-0.035035,0.990616
945,-11.047532,2.502480,2.746624,-0.010986,-0.040650,1.003677
946,-9.826810,2.075227,2.685588,-0.016602,-0.032227,0.981338
947,-10.193027,1.159686,2.380407,-0.015259,-0.038087,0.998550
948,-11.047532,0.610361,2.502480,0.001221,-0.062867,1.030655
949,-6.652934,1.281758,2.136263,0.008301,-0.080201,1.079973
950,-1.403830,2.441444,2.197299,-0.006226,-0.044800,1.034928
951,2.746624,2.746624,1.586938,-0.022583,-0.024659,0.920180
952,-4.394598,0.000000,1.159686,-0.026490,-0.006348,0.893324
953,-13.488975,-3.479057,1.098650,-0.038819,0.021607,0.978531
954,-15.442130,-5.249104,0.671397,0.008301,-0.030518,0.982071
955,-16.540780,-4.028382,0.427253,0.009644,-0.049073,1.023575
956,-17.212177,-3.295949,1.709010,0.001953,-0.043580,1.055924
957,-14.953841,-2.258335,1.770047,-0.001343,-0.051026,0.945083
958,-19.531548,-3.906310,2.685588,-0.002441,-0.040040,0.960586
959,-24.475471,-4.760815,2.990768,-0.015015,-0.065553,1.032975
960,-21.484703,-5.249104,2.136263,0.002197,-0.061402,0.990738
961,-24.292363,-4.943923,1.342794,0.007935,-0.059205,0.987442
962,-26.489662,-5.432212,0.671397,-0.017212,-0.034668,0.961685
963,-28.442817,-6.103609,0.244144,-0.015869,-0.030640,0.942763
964,-34.363317,-7.751583,0.000000,-0.044556,-0.042847,0.948013
965,-38.086519,-9.460594,1.342794,0.003174,-0.087770,0.966934
966,-37.048905,-8.117800,3.234913,-0.043336,-0.077638,0.959243
967,-41.443503,-8.545052,5.920500,0.041382,-0.115358,1.034318
968,-41.870756,-6.347753,6.958114,-0.028321,-0.126345,1.046647
969,-34.241245,-3.112840,3.662165,-0.003052,-0.061769,1.023087
970,-30.395972,-1.464866,0.061036,-0.026734,-0.097169,1.006241
971,-33.081559,-1.709010,0.854505,-0.091188,-0.016846,1.024308
972,-34.851606,-2.624552,-6.836042,-0.087770,0.013672,1.052262
973,-45.471885,-5.676356,-23.254749,-0.089479,-0.015503,1.025650
974,-73.670558,1.709010,-43.213550,-0.046509,-0.060182,1.021500
975,-85.511559,5.310140,-45.960174,0.109255,-0.363287,1.146502
976,-55.542840,-4.638743,-15.625238,0.127199,-0.368414,1.117693
977,-26.855879,-10.986496,-2.502480,-0.068360,0.025025,1.024430
978,-58.228428,-6.591897,-24.353399,0.041016,0.162600,0.931655
979,-93.873503,-2.746624,-27.344167,0.129030,0.113161,0.972915
980,-135.317006,-5.432212,-14.038300,-0.062135,0.243656,0.684947
981,-138.490883,-16.418708,-15.503166,0.101564,0.441169,0.816297
982,-250.247959,-6.897078,-62.073701,0.160769,0.978042,1.061784
983,-531.319142,-4.272526,-53.650721,-0.040040,0.878309,1.519921
984,-755.321584,-35.278859,2.746624,-0.441413,0.057130,1.224750
985,-832.471199,-90.028229,86.488136,0.055909,-0.008789,1.196185
986,-917.616541,-114.991989,92.469673,0.628061,-2.000031,1.999969
987,-1005.142290,-108.888380,197.634852,-1.118425,-0.496468,1.999969
988,-150.148775,-106.263828,-40.955215,-0.308476,-1.757229,1.999969
989,337.224384,-30.212863,-46.997787,-0.418341,0.943130,1.999969
990,217.654688,9.521630,-55.359731,-0.114382,0.970840,0.989395
991,-1.464866,-6.897078,15.686275,-0.630747,0.698741,0.563973
992,-105.104143,-44.861524,65.613794,-0.318486,0.612314,0.536873
993,-29.785611,-18.554971,46.997787,-0.218265,0.245365,0.824353
994,85.755703,0.671397,22.278172,-0.123415,0.499641,0.714611
995,54.383154,-0.244144,25.207904,-0.058595,0.588510,0.915419
996,49.988556,-3.723201,25.146868,-0.115602,0.405158,1.181903
997,116.823072,-1.464866,17.761501,-0.103273,0.423102,1.158221
998,146.303502,-6.469825,15.014878,-0.067628,0.470100,0.972915
999,155.397879,-13.977264,13.183795,-0.055299,0.388800,0.985489
1000,183.779660,-14.648661,7.385367,-0.041749,0.336187,0.997086
1001,205.386435,-12.329290,0.671397,-0.022705,0.295415,0.936660
1002,216.739147,-6.836042,-5.859464,-0.031983,0.229740,0.934218
1003,230.167086,0.671397,-12.024109,-0.058350,0.162112,0.939590
1004,241.641871,7.019150,-16.723888,-0.101076,0.118654,1.021500
1005,250.308995,9.704738,-18.005646,-0.153689,0.073121,1.161151
1006,265.506981,10.742351,-17.395285,-0.190921,0.049683,1.276020
1007,279.240101,10.925460,-16.723888,-0.197513,0.003296,1.380026
1008,297.306783,13.977264,-16.784924,-0.150759,-0.066773,1.339132
1009,308.415351,21.362631,-18.738079,-0.071656,-0.146120,1.100237
1010,304.509041,31.799802,-23.437858,-0.007324,-0.300053,0.732677
1011,284.489204,43.640803,-30.090791,0.120485,-0.343389,0.657969
1012,252.323186,53.467613,-36.011292,0.120974,-0.324224,1.059342
1013,237.186236,56.519417,-42.603189,0.108156,-0.301518,1.457420
1014,246.829938,58.228428,-50.598917,0.038453,-0.266728,1.574853
1015,241.947051,61.829557,-54.016938,-0.004639,-0.283330,1.797635
1016,230.533303,72.022583,-52.918288,-0.084474,-0.361944,1.999969
1017,236.514839,73.304341,-49.439231,-0.191775,-0.411994,1.999969
1018,251.956970,68.604562,-41.199359,-0.241093,-0.461799,1.999969
1019,279.240101,62.317845,-31.982910,-0.211063,-0.536385,1.999969
1020,314.824140,59.143969,-26.550698,-0.110842,-0.613657,1.999969
1021,327.519646,63.477531,-25.513085,0.019409,-0.674205,1.999969
1022,316.105898,69.520104,-26.306554,0.168704,-0.728161,1.826444
1023,304.264897,74.280919,-32.410163,0.311406,-0.709239,1.736477
1024,289.555200,72.632944,-42.114900,0.344732,-0.667613,1.802029
1025,276.310369,69.214923,-52.491035,0.412238,-0.706920,1.903105
1026,267.215991,74.830243,-64.332036,0.494392,-0.840101,1.782742
1027,248.477913,85.694667,-76.295109,0.457649,-1.136980,1.441917
1028,219.363699,90.821698,-82.887007,0.436652,-1.561181,0.997330
1029,175.356680,90.699626,-84.534981,0.513558,-2.000031,0.717540
1030,112.672618,94.239719,-83.070115,0.737926,-2.000031,0.650889
1031,49.011978,103.761349,-88.319219,0.745251,-2.000031,0.530037
1032,38.513771,102.296483,-86.305028,0.464118,-2.000031,0.048219
1033,41.016251,55.481804,-64.698253,0.032715,-2.000031,-0.407355
1034,-34.241245,-27.466239,-22.949569,-0.291630,-2.000031,0.000000
1035,-90.455482,-86.732280,27.038987,-0.713024,-2.000031,-2.000031
1036,-205.630579,-203.921569,84.351873,-0.266606,-1.626978,-0.062989
1037,-201.968414,-209.170672,103.150988,0.178470,-0.387579,1.999969
1038,-96.375982,-63.233387,84.412909,-0.208377,0.760754,1.999969
1039,-91.859312,-50.354772,92.286564,-0.166018,0.938003,0.085206
1040,-212.222477,-130.251011,105.531395,1.018570,0.563241,-0.604501
1041,-326.359960,-92.652781,96.742199,1.644678,-0.032959,0.177737
1042,-349.614710,-46.082246,71.229114,1.489769,-0.182376,1.999969
1043,-268.802930,-36.072328,33.386740,1.370016,-0.426154,1.999969
1044,-150.148775,18.371862,-8.422980,0.141115,-0.316899,1.999969
1045,-150.392920,5.188067,2.929732,-1.151141,-0.207645,1.959258
1046,-161.684596,-55.359731,46.021210,-1.432517,-0.775402,1.951080
1047,-72.816052,-109.742885,53.162432,-0.023194,-0.255497,1.200336
1048,-75.745785,-115.297169,46.021210,1.337423,0.496956,1.907500
1049,-81.361105,-69.703212,26.855879,0.969497,-0.064454,1.852079
1050,-44.068055,-31.677729,11.841001,-0.453620,-0.045167,1.444114
1051,-43.823911,-65.308614,16.784924,-0.242313,0.033082,1.125750
1052,-34.302281,-64.637217,6.042573,0.700572,0.182986,1.664698
1053,-38.269627,-24.780652,3.051804,0.215091,-0.015015,1.228779
1054,-29.236286,-15.625238,3.479057,-0.196414,-0.020264,1.099748
1055,-20.630198,-25.391012,3.601129,0.066529,0.119509,1.027481
1056,-25.024796,-19.043259,0.183108,0.193240,0.107301,1.146014
1057,-28.564889,-7.934691,1.098650,0.051637,0.007446,1.094743
1058,-18.616007,-3.234913,1.220722,0.041382,-0.015259,1.042741
1059,-16.052491,-0.793469,4.699779,0.099733,0.110964,1.006973
1060,-22.461280,0.427253,6.469825,-0.003784,0.037476,1.010758
1061,-21.179522,0.244144,6.958114,0.045045,0.057130,1.010391
1062,-21.606775,1.525902,5.920500,0.010498,0.008057,0.960708
1063,-23.987182,1.281758,5.676356,0.008667,0.047974,0.966079
1064,-27.222095,0.793469,3.906310,0.000977,0.041260,0.979141
1065,-29.724575,-0.305180,2.807660,-0.018189,0.023072,1.010636
1066,-29.846647,-2.868696,2.685588,0.003052,-0.018799,1.014908
1067,-25.452049,-3.295949,2.197299,0.036866,-0.019165,1.009415
1068,-24.658579,-3.356985,1.892119,0.006226,-0.024170,1.012833
1069,-21.179522,-3.723201,2.197299,0.006470,-0.019654,1.101213
1070,-19.104295,-3.601129,1.709010,0.023926,-0.020386,1.028824
1071,-16.418708,-3.906310,1.159686,0.018555,-0.019043,1.018692
1072,-15.747311,-3.051804,-0.122072,0.052857,-0.088869,0.934951
1073,-15.503166,-2.807660,0.122072,0.025757,-0.024781,1.016251
1074,-15.930419,-3.112840,0.915541,0.014649,-0.016236,0.975479
1075,-17.700465,-4.211490,0.976577,-0.001221,-0.022461,0.987442
1076,-18.677043,-4.821851,1.342794,0.018189,-0.041260,1.020401
1077,-15.442130,-4.577707,1.525902,0.023926,-0.053346,1.026993
1078,-13.977264,-4.882887,1.403830,0.024048,-0.052003,1.003189
1079,-13.244831,-5.188067,1.342794,0.020630,-0.034546,0.980484
1080,-13.672084,-6.042573,0.427253,0.006226,-0.016358,0.964492
1081,-17.578393,-7.385367,-0.427253,0.011109,-0.040040,0.976699
1082,-18.677043,-8.178836,-1.037613,0.021729,-0.027588,0.985855
1083,-20.630198,-8.728161,-0.854505,0.028565,-0.029908,0.984268
1084,-22.949569,-9.155413,-0.427253,0.024659,-0.055055,0.979751
1085,-22.156100,-8.789197,-0.366217,0.036133,-0.050782,1.000381
1086,-22.461280,-7.629511,0.244144,0.044678,-0.055543,1.024308
1087,-23.620966,-6.408789,1.098650,0.051637,-0.071778,1.001724
1088,-22.400244,-5.920500,1.647974,0.043824,-0.036378,0.988052
1089,-24.170291,-6.347753,2.563516,0.063355,-0.042603,1.019303
1090,-28.625925,-6.164645,1.586938,0.042359,-0.068360,0.963027
1091,-29.419394,-6.713970,1.586938,0.067750,-0.071168,1.082536
1092,-30.029755,-3.601129,0.061036,0.011597,-0.095338,0.986587
1093,-27.893492,-4.577707,0.305180,0.035523,-0.065553,0.990494
1094,-29.175250,-4.760815,0.000000,0.034180,-0.057130,0.961563
1095,-35.889220,-2.014191,3.234913,0.139284,0.082765,1.028458
1096,-53.406577,-0.427253,7.263294,0.023194,-0.126711,1.077531
1097,-44.617380,2.319371,8.178836,0.046876,-0.171633,1.045670
1098,-43.030442,3.479057,10.376135,0.044312,-0.103273,0.994156
1099,-47.302968,4.089418,10.864424,0.005737,-0.122316,1.042252
1100,-42.603189,1.953155,8.606088,0.000977,-0.110475,1.030411
1101,-35.584039,1.281758,-0.305180,-0.086915,-0.085451,1.006119
1102,-31.982910,-0.671397,-16.784924,-0.016236,-0.158938,0.909316
1103,-39.673457,0.122072,-28.503853,-0.025391,-0.076783,1.022721
1104,-48.218509,1.281758,-39.124132,0.090455,-0.175296,0.950576
1105,-38.574807,-6.652934,-35.278859,0.156863,-0.278447,1.006363
1106,-17.761501,-8.545052,-18.188754,0.172976,-0.264897,1.075944
1107,-22.827497,-1.647974,-9.216449,0.140139,0.022583,1.109514
1108,-65.491722,14.099336,-25.879301,0.155154,0.128054,1.071305
1109,-107.667659,31.555657,-31.555657,0.095094,0.269535,0.818250
1110,-164.858473,34.363317,-39.185168,-0.052247,0.650278,0.618906
1111,-207.583734,-9.155413,-43.579767,-0.400397,0.047730,0.537728
1112,-262.211032,-35.767147,-11.108568,-0.069581,0.754162,1.291402
1113,-468.268864,-56.031128,-69.275959,-0.284916,0.344610,1.279438
1114,-631.601434,-171.572442,-22.278172,-0.686046,-0.005493,1.762234
1115,-796.276799,-263.309682,59.388113,-0.209232,0.203494,1.343893
1116,-935.927367,-263.736934,98.573281,0.307378,-0.024903,1.277974
1117,-1215.350576,-246.585794,221.866178,0.584360,-2.000031,1.999969
1118,-488.899062,-105.348287,198.916609,-1.094499,-0.567880,1.999969
1119,355.718318,-9.399557,-60.608835,-0.078859,0.862928,1.999969
1120,436.041810,49.073014,-53.040360,-0.505013,1.538109,1.795315
1121,163.942931,48.157473,-61.219196,-0.544076,1.042985,1.157977
1122,-11.230640,-4.455634,43.945983,-0.530404,0.276371,-0.059327
1123,-49.927520,-29.297322,65.064469,-0.187381,-0.046143,0.157717
1124,58.777752,-6.225681,40.772107,-0.221805,0.029908,0.380987
1125,132.509346,0.732433,28.503853,-0.028931,0.369146,0.292119
1126,88.136110,-2.380407,30.640116,0.078004,0.486336,0.505135
1127,61.341268,-6.652934,27.771420,0.092042,0.390997,0.930068
1128,113.832303,-1.770047,14.526589,0.126589,0.400641,1.102434
1129,154.604410,0.671397,2.990768,0.125490,0.483040,1.083635
1130,157.289998,-3.540093,-2.807660,0.109133,0.447028,1.197406
1131,180.849928,-2.075227,-10.620279,0.075196,0.335332,1.245991
1132,216.006714,5.127031,-19.104295,0.051270,0.292485,1.209369
1133,229.922942,12.207218,-24.048219,0.013672,0.232303,1.293599
1134,244.510567,20.569162,-26.428626,-0.024781,0.118654,1.404318
1135,271.000229,32.104982,-27.832456,-0.035767,0.025757,1.450828
1136,294.499123,39.429313,-27.771420,-0.027100,-0.054688,1.393088
1137,309.025711,39.917601,-26.611734,0.025635,-0.126955,1.350973
1138,318.669413,33.264668,-26.550698,0.127565,-0.147341,1.387716
1139,326.543069,25.757229,-31.677729,0.238529,-0.211917,1.380270
1140,331.548028,27.527276,-43.945983,0.321660,-0.391852,1.084977
1141,319.035630,46.692607,-59.143969,0.363897,-0.574838,0.673716
1142,291.508354,75.440604,-70.069429,0.364019,-0.560800,0.532845
1143,245.181964,81.361105,-76.600290,0.248783,-0.496468,0.647837
1144,218.081941,65.857939,-78.614481,0.114382,-0.380499,1.088273
1145,192.385748,53.162432,-76.661326,0.066529,-0.251347,1.999969
1146,179.262989,60.669871,-72.449836,0.040894,-0.345830,1.999969
1147,237.735561,87.037461,-70.801862,0.022095,-0.646494,1.999969
1148,293.156329,111.573968,-70.130465,-0.019532,-0.774792,1.999969
1149,266.788739,111.940185,-54.871443,-0.055055,-0.789807,1.999969
1150,258.243687,94.056611,-39.368276,0.057130,-0.921889,1.999969
1151,297.367819,85.755703,-34.790570,0.273442,-0.901991,1.999969
1152,313.054093,91.065843,-37.598230,0.489754,-0.892226,1.999969
1153,299.137865,95.765621,-42.847333,0.653452,-0.896376,1.604517
1154,277.775235,92.408637,-51.880674,0.645884,-0.955093,1.566430
1155,259.830625,86.793317,-57.373922,0.580331,-1.098039,1.615137
1156,248.172732,86.121920,-59.754330,0.382940,-1.359518,1.493065
1157,227.115282,86.732280,-53.528649,0.133425,-1.685573,1.345235
1158,198.123140,82.948043,-36.316472,-0.004028,-2.000031,1.164935
1159,168.520638,83.924620,-19.592584,0.177005,-2.000031,0.792370
1160,129.823758,97.413596,-17.578393,0.449104,-2.000031,0.495003
1161,89.539940,129.091325,-24.231327,0.465827,-2.000031,0.130739
1162,57.373922,141.847868,-15.259022,0.267582,-2.000031,-0.307988
1163,-0.915541,88.990616,14.892805,0.019898,-2.000031,-0.436042
1164,-53.528649,-6.103609,53.772793,-0.017334,-1.993194,0.113161
1165,-71.961547,-75.074388,80.872816,0.051881,-1.423972,0.773205
1166,-149.050126,-151.003281,40.955215,0.499031,-0.649912,0.789075
1167,-115.846494,-103.089952,60.425727,0.054200,0.560678,1.956817
1168,-105.897612,-60.852979,58.045319,-0.399054,1.073991,1.375509
1169,-98.451209,-77.515831,51.819638,-0.573983,0.744030,-0.216678
1170,-244.022278,-110.048066,79.835203,-0.095460,-0.073121,-0.957412
1171,-328.923476,-97.962921,101.441978,0.795422,-0.089357,1.086320
1172,-327.580682,-56.458381,86.549172,1.730983,-0.233402,1.999969
1173,-201.297017,-25.268940,39.063096,1.999969,-0.086793,1.999969
1174,-130.067903,9.887846,-15.503166,1.369039,0.249516,1.822782
1175,-164.492256,54.077974,-29.785611,-0.246464,0.072999,1.585595
1176,-163.759823,55.725948,-3.662165,-1.985870,-0.121096,1.999969
1177,-149.843595,-18.371862,35.461967,-1.938994,-0.868910,1.228656
1178,-80.506600,-88.197147,54.200046,-0.160647,-0.187137,1.077287
1179,-81.971466,-115.724422,46.021210,1.412375,0.476326,1.999969
1180,-69.031815,-55.298695,18.005646,0.721080,-0.030030,1.721584
1181,-43.274586,-36.194400,13.855192,-0.640269,0.020264,1.397604
1182,-43.884947,-67.872129,13.183795,0.082643,0.009888,1.174701
1183,-31.677729,-50.659953,3.662165,0.633921,0.198367,1.480980
1184,-44.129091,-17.029068,2.563516,0.017456,-0.056519,1.118791
1185,-29.053178,-19.348440,2.075227,-0.300175,0.013184,1.009781
1186,-31.616693,-27.038987,0.671397,0.281743,0.105837,1.114031
1187,-32.471199,-10.742351,1.464866,0.045045,0.026123,1.135027
1188,-27.893492,-2.685588,2.136263,0.073732,0.016480,1.216571
1189,-17.883574,2.502480,2.075227,0.023560,0.033448,1.064225
1190,-18.921187,6.652934,3.051804,0.057252,0.036378,1.047379
1191,-18.554971,9.765774,3.051804,-0.043580,-0.015991,1.036149
1192,-15.442130,7.324331,3.784237,-0.003418,0.014282,1.016129
1193,-14.770733,6.408789,2.807660,-0.010010,0.021118,1.011124
1194,-14.770733,5.188067,2.014191,-0.024537,0.027710,0.977798
1195,-15.625238,3.479057,1.647974,-0.030030,0.027588,0.980728
1196,-17.395285,2.075227,1.770047,-0.015503,0.000977,1.015030
1197,-13.672084,2.319371,1.709010,-0.023926,-0.026490,1.016739
1198,-11.047532,2.624552,2.380407,-0.012818,-0.001099,1.020645
1199,-9.765774,2.685588,2.868696,-0.027955,0.009033,0.994888
1200,-9.399557,1.709010,2.746624,-0.021607,0.023316,0.976577
1201,-11.596857,0.793469,2.441444,-0.034424,0.021363,0.955215
1202,-13.794156,1.281758,-0.976577,-0.007446,-0.250980,0.713634
1203,-14.953841,-1.953155,0.793469,-0.043091,0.041505,1.043473
1204,-21.362631,-3.723201,2.441444,-0.022339,-0.009277,0.983291
1205,-18.677043,-3.845274,2.136263,-0.018555,-0.023682,0.989273
1206,-19.470512,-4.211490,2.685588,-0.020508,-0.021118,0.993301
1207,-20.630198,-4.882887,2.929732,-0.015625,-0.018799,1.015518
1208,-17.395285,-2.380407,0.671397,0.052491,-0.092164,0.883803
1209,-16.479744,-3.418021,1.403830,-0.036622,-0.041749,1.095720
1210,-20.141909,-5.004959,2.746624,-0.010864,-0.042725,0.976455
1211,-15.747311,-4.089418,1.892119,-0.017334,-0.030518,1.003189
1212,-16.845960,-4.089418,2.014191,-0.002808,-0.023560,1.018448
1213,-18.066682,-3.601129,1.525902,-0.009155,-0.032227,1.007706
1214,-17.334249,-3.051804,1.586938,0.005859,-0.050416,1.016251
1215,-16.357671,-1.464866,1.892119,0.003662,-0.070924,1.000015
1216,-14.404517,1.831083,0.183108,0.029664,-0.240726,0.783581
1217,-13.855192,0.061036,1.709010,-0.007446,-0.035523,1.040909
1218,-17.151141,-1.281758,3.112840,-0.027955,-0.054444,0.957168
1219,-16.357671,-3.662165,2.075227,-0.053712,-0.034180,0.937514
1220,-20.691234,-7.629511,2.441444,0.001831,-0.044434,0.955825
1221,-24.719615,-9.765774,1.647974,-0.029908,-0.023926,0.960098
1222,-25.635157,-11.291676,0.549325,-0.001099,-0.027222,0.956558
1223,-31.372549,-12.512398,0.000000,-0.030518,-0.032593,0.957534
1224,-33.142596,-13.977264,-0.854505,-0.018311,-0.010132,0.958267
1225,-41.443503,-14.648661,-1.098650,0.013672,-0.043091,0.942519
1226,-46.753643,-13.488975,0.183108,0.040772,-0.091676,0.992203
1227,-50.782025,-10.803388,2.502480,0.018799,-0.116701,1.043107
1228,-44.373236,-8.178836,4.699779,-0.019165,-0.122560,1.037613
1229,-40.833143,-7.385367,7.507439,-0.002564,-0.095338,1.067155
1230,-42.359045,-6.286717,6.713970,-0.024903,-0.139406,1.001724
1231,-38.513771,-6.225681,5.920500,-0.003296,-0.113649,1.105974
1232,-40.344854,-3.723201,3.356985,-0.017456,-0.077760,0.967056
1233,-39.856565,-5.065995,-1.159686,-0.027222,-0.090333,0.987076
1234,-43.335622,-6.225681,-6.225681,-0.022339,-0.115846,0.922377
1235,-38.696880,-5.127031,-7.873655,-0.051270,-0.220340,1.021622
1236,-44.678416,-8.056764,-20.691234,-0.064942,-0.140139,1.094621
1237,-62.500954,3.295949,-33.691920,-0.029175,-0.075807,1.098772
1238,-81.055924,10.681315,-49.195087,0.086061,-0.408209,1.055680
1239,-47.364004,-2.563516,-26.245518,0.138186,-0.433722,1.095232
1240,-15.991455,-12.695506,-6.042573,0.016236,0.055909,0.972061
1241,-48.157473,-7.751583,-23.743038,0.026490,0.172976,0.895521
1242,-101.564050,-1.037613,-32.532235,0.170169,0.134157,0.982315
1243,-117.799649,-4.272526,-16.052491,0.019776,0.114626,0.509163
1244,-153.627832,-3.845274,-17.883574,0.261479,0.350103,0.652842
1245,-233.829252,-2.807660,-47.974365,0.024903,0.936660,1.041154
1246,-474.860761,-8.911269,-46.204318,-0.046876,0.508064,1.588159
1247,-655.100328,-48.279545,7.385367,-0.398932,0.166384,1.166644
1248,-792.980850,-118.776226,66.163119,-0.075563,-0.025147,1.431174
1249,-868.421454,-125.429160,80.384527,0.029541,-0.039185,1.193622
1250,-1057.389181,-136.476692,114.869917,0.544442,-2.000031,1.999969
1251,-648.203250,-73.914702,156.984817,-1.266133,-1.666773,1.999969
1252,250.492103,-32.959487,-47.852293,-0.318486,0.442512,1.999969
1253,461.310750,18.738079,-38.330663,-0.660410,1.223285,1.999969
1254,208.255131,23.559930,-46.387427,-0.533211,1.215839,1.247944
1255,28.931106,-12.329290,53.711757,-0.553841,0.509163,-0.101442
1256,-37.170977,-34.607462,73.792630,-0.108888,0.462409,0.141604
1257,31.738766,-5.737392,37.903410,-0.051881,0.167727,0.296025
1258,101.991302,11.963073,16.296635,0.067994,0.405158,0.247929
1259,63.843748,11.963073,10.864424,0.148806,0.485481,0.467903
1260,47.425040,4.211490,4.089418,0.141115,0.413825,0.792737
1261,92.835889,0.061036,-8.972305,0.132692,0.452033,0.945327
1262,122.377356,-8.300908,-19.714656,0.097169,0.520882,0.996597
1263,131.105516,-15.197986,-26.367590,0.062989,0.491951,1.229633
1264,159.670405,-13.794156,-34.180209,0.027588,0.426154,1.437400
1265,197.268635,-6.103609,-42.053864,-0.008789,0.381353,1.620630
1266,227.847715,3.418021,-46.875715,-0.072755,0.257328,1.723171
1267,263.736934,12.390326,-49.011978,-0.135988,0.102785,1.631983
1268,299.748226,18.799115,-49.011978,-0.167971,-0.031250,1.404929
1269,317.143511,22.522316,-45.105669,-0.164065,-0.116457,1.232319
1270,323.064012,22.644388,-40.711070,-0.117067,-0.181643,1.180438
1271,329.106584,17.639429,-37.293050,-0.063600,-0.202029,1.162371
1272,331.181811,10.498207,-39.246204,0.029175,-0.289311,1.040177
1273,325.200275,19.592584,-49.256123,0.136477,-0.559213,0.538949
1274,299.443046,54.077974,-58.289464,0.176883,-0.565316,0.349126
1275,238.040742,74.769207,-62.684062,0.185672,-0.442267,0.655406
1276,206.240940,75.501640,-69.703212,0.169070,-0.333989,1.220233
1277,202.639811,72.632944,-75.501640,0.005249,-0.208011,1.999969
1278,192.446784,78.004120,-67.811093,-0.190188,-0.338872,1.999969
1279,241.336690,90.699626,-57.495995,-0.263432,-0.675669,1.999969
1280,298.832685,106.691081,-46.448463,-0.242802,-0.794079,1.999969
1281,274.113069,106.935225,-27.466239,-0.230594,-0.857069,1.943633
1282,250.858320,89.478904,-7.934691,-0.158450,-0.929213,1.999969
1283,270.450904,76.478218,2.685588,0.005371,-0.923232,1.999969
1284,299.809262,75.440604,5.920500,0.115114,-0.990249,1.999969
1285,308.781567,82.276646,3.784237,0.275029,-0.962783,1.796292
1286,288.578622,83.680476,-1.403830,0.518929,-0.904799,1.597070
1287,269.291218,85.328450,-13.122759,0.591684,-0.938979,1.612696
1288,252.201114,81.666285,-22.888533,0.554086,-1.012833,1.720729
1289,242.435340,71.961547,-27.527276,0.436530,-1.262837,1.668605
1290,237.613489,63.477531,-26.489662,0.369757,-1.563134,1.304829
1291,212.161440,58.838788,-21.728847,0.426642,-2.000031,0.879042
1292,164.065003,60.181582,-18.432898,0.627085,-2.000031,0.549935
1293,113.954376,67.078660,-28.137636,0.817639,-2.000031,0.254032
1294,84.290837,80.079347,-47.119860,0.719005,-2.000031,-0.146853
1295,56.641489,71.046006,-39.978637,0.375006,-2.000031,-0.476081
1296,-14.770733,13.000687,-8.300908,-0.236576,-2.000031,-1.839139
1297,-155.825132,-142.763409,48.950942,0.282109,-2.000031,-1.334859
1298,-281.864652,-238.590066,60.608835,1.250263,-1.699489,0.438117
1299,-136.537728,-131.715877,24.170291,0.467536,-0.108766,1.999969
1300,-104.921035,-78.065156,9.948882,-0.298589,1.312154,1.999969
1301,-186.526284,-85.572595,29.297322,-0.435798,0.712169,0.417243
1302,-295.170520,-92.042420,45.105669,-0.233158,-0.455451,-0.039918
1303,-302.983139,-88.685435,62.623026,0.257450,-0.453254,1.999969
1304,-273.319600,-67.444877,60.730907,0.995010,-0.268925,1.999969
1305,-153.871977,-11.902037,29.053178,0.985611,-0.306157,1.999969
1306,-90.211337,21.484703,5.371176,0.383307,0.021485,1.073747
1307,-157.717250,33.081559,9.704738,-0.247684,0.054566,1.319112
1308,-154.360266,14.770733,26.306554,-0.891005,0.017578,1.841947
1309,-128.480964,-46.265354,34.241245,-0.682750,-0.463020,1.766018
1310,-64.148928,-90.943771,26.916915,0.509895,0.037232,1.999969
1311,-45.593957,-69.642176,18.677043,1.012100,0.086549,1.824247
1312,-30.945296,-14.587625,6.286717,0.140993,0.189456,1.200458
1313,-63.782712,-19.958801,14.526589,-0.340948,0.013550,1.049088
1314,-48.279545,-29.968719,7.385367,0.298711,0.069581,1.464988
1315,-34.485389,-7.751583,1.342794,0.254765,-0.016846,1.243061
1316,-30.762188,3.295949,3.051804,-0.154421,-0.001099,1.033585
1317,-27.588312,-5.798428,3.234913,-0.021485,-0.018677,1.161883
1318,-18.677043,-4.150454,1.770047,0.079103,0.012573,1.107683
1319,-15.320058,-0.061036,1.342794,-0.069581,-0.003418,1.003311
1320,-17.029068,-1.525902,2.563516,0.051392,0.018677,1.053605
1321,-14.343481,3.540093,2.014191,0.032715,0.019043,1.053117
1322,-15.747311,5.188067,3.356985,-0.006348,-0.024292,1.011734
1323,-11.352712,5.371176,3.051804,0.025757,0.001343,1.051774
1324,-11.474784,6.652934,3.356985,0.003784,-0.003296,1.033219
1325,-9.338521,6.897078,3.356985,-0.020142,-0.015503,1.021866
1326,-7.324331,6.225681,2.685588,-0.033204,0.009155,0.983658
1327,-9.277485,4.638743,2.685588,-0.027832,-0.010742,1.011246
1328,-6.897078,3.967346,2.319371,-0.025635,-0.007080,0.989029
1329,-7.568475,2.868696,2.563516,-0.037476,0.005249,0.979019
1330,-8.056764,1.403830,2.502480,-0.028809,0.008423,0.970718
1331,-9.826810,-0.061036,2.502480,-0.022339,-0.001953,0.983658
1332,-10.254063,-0.732433,2.563516,-0.018921,-0.004150,0.986221
1333,-11.047532,-1.403830,2.807660,-0.014893,0.002808,0.986587
1334,-11.657893,-2.014191,2.685588,-0.030884,-0.004761,0.983780
1335,-14.831769,-2.258335,2.197299,-0.061646,0.144167,1.246967
1336,-11.352712,-3.051804,2.502480,-0.031861,-0.032837,0.941176
1337,-18.127718,-6.103609,2.685588,-0.021607,-0.035645,0.937270
1338,-16.296635,-6.775006,2.380407,-0.034791,-0.011353,1.022599
1339,-14.709697,-8.117800,2.014191,-0.036255,-0.014282,0.977188
1340,-16.784924,-7.629511,0.366217,0.009766,0.028199,1.072404
1341,-12.512398,-8.239872,0.793469,-0.017212,-0.042725,1.100359
1342,-16.540780,-9.399557,1.770047,0.009644,-0.059327,0.978653
1343,-10.009918,-7.812619,1.098650,-0.003052,-0.046876,1.005753
1344,-10.620279,-8.422980,1.342794,-0.015259,-0.042115,0.998184
1345,-10.620279,-9.277485,1.403830,0.000732,-0.046143,0.978042
1346,-9.033341,-10.070954,0.915541,-0.047730,-0.042115,0.933486
1347,-8.972305,-15.503166,0.854505,0.014527,0.084962,0.859022
1348,-15.259022,-15.686275,0.854505,-0.001587,-0.046143,0.917250
1349,-16.906996,-17.456321,0.915541,-0.003052,-0.035035,0.977554
1350,-15.808347,-19.348440,-1.586938,-0.025513,-0.017456,0.987320
1351,-23.193713,-19.836728,-1.464866,0.043580,-0.023804,1.083879
1352,-21.423667,-17.273213,-1.037613,0.023926,-0.087037,1.040787
1353,-18.860151,-15.747311,-1.709010,0.011963,-0.021729,0.990249
1354,-26.428626,-16.357671,-1.159686,0.023072,-0.011841,0.983413
1355,-34.790570,-17.212177,-0.671397,-0.014405,-0.026978,0.961440
1356,-34.424353,-17.517357,-1.647974,0.019409,-0.035889,0.957046
1357,-38.696880,-17.761501,-3.051804,0.034424,-0.062501,1.008927
1358,-41.443503,-17.029068,-2.258335,0.046387,-0.089967,1.039445
1359,-34.302281,-16.113527,-0.122072,0.056031,-0.065797,1.061540
1360,-36.133364,-12.695506,0.183108,0.046632,-0.092897,0.978531
1361,-37.964446,-4.638743,4.272526,0.150027,-0.111940,1.057145
1362,-44.495308,1.770047,8.850233,0.037720,-0.159182,1.097063
1363,-32.654307,3.356985,11.596857,0.060426,-0.118166,1.014664
1364,-34.912642,5.859464,11.596857,0.039063,-0.064332,1.007095
1365,-44.312200,4.638743,11.841001,-0.027710,-0.096315,1.002090
1366,-40.283818,2.502480,8.178836,-0.021241,-0.022339,0.947524
1367,-44.312200,-0.061036,-2.807660,-0.044190,-0.057130,0.960952
1368,-52.124819,-5.371176,-9.948882,-0.045533,-0.093751,0.962173
1369,-60.547799,-8.911269,-17.273213,-0.023072,-0.177615,1.038834
1370,-70.496681,3.356985,-37.659266,0.018555,-0.196170,1.021622
1371,-59.082933,4.272526,-42.603189,0.158206,-0.398810,0.883558
1372,-31.738766,-7.080186,-18.371862,0.182132,-0.282719,1.016617
1373,-18.921187,-9.887846,-7.690547,0.050538,-0.085084,1.113298
1374,-62.317845,4.211490,-24.536507,0.151369,0.257572,0.982071
1375,-125.123980,20.447089,-41.748684,0.206546,0.116457,0.932021
1376,-171.999695,34.851606,-39.612421,0.111818,0.282475,0.504036
1377,-176.821546,-7.202258,-30.273899,-0.343511,0.265751,0.748669
1378,-259.037156,-37.048905,-45.593957,-0.189944,0.741588,1.334981
1379,-468.268864,-43.884947,-83.619440,-0.332525,0.460334,1.205463
1380,-603.097581,-139.467460,-57.923247,-0.758923,-0.215091,1.562646
1381,-748.424506,-241.397726,24.048219,-0.142580,-0.278202,1.162493
1382,-822.217136,-247.623407,76.478218,0.255497,-0.014527,0.482063
1383,-957.412070,-231.082628,87.953002,1.255146,-2.000031,1.947784
1384,-936.842908,-117.494469,219.668879,-0.507088,0.116213,1.999969
1385,-142.336156,-89.051652,-69.764248,-0.315190,-1.201434,1.999969
1386,175.295644,-35.645075,-70.679789,-0.375128,0.720836,1.999969
1387,90.028229,-5.127031,-62.561990,-0.388312,1.252216,1.999969
1388,-2.563516,-20.080873,6.164645,-0.902358,0.655406,1.999969
1389,51.026169,-35.889220,35.461967,-0.660533,0.191653,1.913970
1390,182.009613,-2.197299,38.941024,-0.605478,0.223636,1.176776
1391,195.620661,9.521630,50.354772,-0.363897,0.291630,0.721813
1392,157.351034,21.362631,61.951629,-0.242679,0.204715,0.773327
1393,173.342489,36.255436,63.477531,-0.151492,0.066651,0.841688
1394,206.790265,46.570535,60.914015,-0.055665,0.104250,0.782483
1395,211.062791,44.373236,60.059510,0.030640,0.136843,0.803967
1396,214.236667,33.691920,58.045319,0.140139,0.122805,0.986954
1397,237.308309,24.231327,49.439231,0.276982,0.169924,1.094011
1398,259.769589,17.212177,35.461967,0.372198,0.184329,1.165667
1399,276.005188,11.841001,19.775692,0.410773,0.153445,1.210590
1400,295.292592,9.521630,2.685588,0.434943,0.124147,1.225483
1401,312.321660,9.582666,-15.564202,0.429084,0.066896,1.223529
1402,323.369192,12.085145,-32.043946,0.395636,0.000000,1.270893
1403,333.257038,15.442130,-47.058824,0.368902,-0.063966,1.246845
1404,338.445106,20.019837,-60.730907,0.388190,-0.107424,1.294087
1405,339.726864,23.804074,-75.745785,0.367437,-0.242435,1.179461
1406,335.820554,34.912642,-88.868544,0.291630,-0.514534,0.910658
1407,316.166934,53.040360,-94.483864,0.231937,-0.578866,0.839734
1408,283.207446,60.791943,-96.925307,0.193729,-0.554208,1.032609
1409,264.652476,65.125505,-100.709545,0.267094,-0.434821,1.238666
1410,254.215305,73.609522,-110.536355,0.233768,-0.420661,1.452049
1411,221.927214,88.319219,-108.949416,0.016724,-0.426398,1.999969
1412,210.147250,97.108415,-99.305715,-0.166506,-0.565927,1.999969
1413,241.947051,98.512245,-84.901198,-0.217655,-0.745129,1.999969
1414,286.686503,98.390173,-65.491722,-0.216312,-0.855360,1.999969
1415,312.016480,95.887694,-46.326390,-0.185550,-0.948013,1.999969
1416,312.687877,97.352560,-26.489662,-0.096803,-1.040299,1.999969
1417,312.321660,104.249638,-9.582666,0.163088,-1.042863,1.933013
1418,302.677958,110.353246,-0.671397,0.462165,-0.932876,1.818387
1419,279.911498,100.648508,2.746624,0.571664,-0.927626,1.846464
1420,275.455863,87.586786,0.000000,0.610727,-0.997330,1.817777
1421,267.704280,84.718090,-8.606088,0.504280,-1.185565,1.554345
1422,243.961242,91.309987,-14.770733,0.366461,-1.520897,1.116106
1423,201.785306,105.104143,-20.141909,0.414191,-1.941070,0.757824
1424,139.406424,129.579614,-31.555657,0.647593,-2.000031,0.707530
1425,74.402991,170.290684,-52.979324,0.674937,-2.000031,0.892470
1426,60.120546,204.165713,-62.561990,0.474861,-2.000031,0.471443
1427,88.319219,172.060731,-44.983597,0.093019,-2.000031,-0.524422
1428,30.273899,54.444190,-5.065995,-0.105592,-2.000031,-0.938003
1429,-54.505226,-75.745785,46.021210,0.044434,-1.623072,-0.139651
1430,-93.812467,-143.923095,59.632258,0.305669,-1.859281,-1.877836
1431,-214.175631,-198.916609,68.909743,0.599741,-1.078386,0.137942
1432,-215.335317,-202.090486,48.889906,0.270390,-0.596445,1.752224
1433,-94.178683,-132.143130,34.119173,-0.144411,0.595956,1.999969
1434,-89.845121,-71.717403,39.795529,-0.377325,0.856458,0.984756
1435,-189.028763,-83.863584,61.646448,0.064942,0.419562,-0.809094
1436,-285.709926,-95.399405,62.745098,0.619516,-0.197391,0.010010
1437,-349.309529,-69.398032,67.383841,1.015274,-0.129274,1.999969
1438,-262.211032,-34.302281,42.603189,1.323384,-0.457404,1.999969
1439,-107.179370,14.465553,-4.028382,0.720714,-0.223636,1.939727
1440,-145.754177,29.480430,-4.516670,-0.334722,-0.001709,1.779324
1441,-154.604410,20.141909,27.222095,-1.402976,-0.096925,1.999969
1442,-109.620813,-34.546426,41.931792,-0.931655,-0.466438,1.235248
1443,-71.961547,-71.351186,46.936751,0.394903,0.093629,1.253193
1444,-72.877089,-73.487449,26.367590,1.409689,0.352178,1.999969
1445,-42.298009,-16.723888,6.958114,0.188602,-0.326665,1.368063
1446,-31.982910,-20.019837,7.568475,-0.722667,-0.004761,1.048234
1447,-45.654994,-49.500267,11.718929,0.310307,0.101076,1.186664
1448,-39.917601,-23.010605,1.464866,0.461433,0.072511,1.389303
1449,-37.842374,-1.159686,1.220722,-0.233280,-0.047242,0.956191
1450,-40.161746,-12.695506,4.028382,-0.064210,0.048341,1.169085
1451,-34.302281,-11.535821,2.319371,0.156130,-0.062745,1.162737
1452,-20.202945,-4.516670,0.854505,-0.113649,0.063233,0.985977
1453,-29.907683,-8.850233,2.929732,-0.006714,0.017212,1.058366
1454,-25.146868,-4.577707,1.403830,0.045411,-0.011109,1.103288
1455,-20.325017,-1.281758,1.709010,0.006226,0.002564,1.073503
1456,-17.090105,0.610361,2.502480,-0.002564,-0.015503,1.094743
1457,-14.099336,2.197299,2.990768,-0.013184,-0.005615,1.036759
1458,-11.474784,2.136263,2.685588,-0.006348,0.013184,1.009781
1459,-12.512398,2.624552,2.990768,-0.032227,0.015625,0.978286
1460,-14.221408,1.281758,3.112840,-0.045655,0.006592,1.001358
1461,-13.122759,0.000000,2.746624,-0.019043,-0.005615,1.012345
1462,-12.146181,-0.366217,2.746624,-0.023926,-0.011719,0.994644
1463,-11.963073,-1.342794,3.112840,-0.037720,-0.001465,0.987076
1464,-11.535821,-2.868696,2.990768,-0.049805,-0.029541,0.958755
1465,-10.803388,-3.234913,-1.098650,-0.033570,-0.136477,0.818372
1466,-12.756542,-6.408789,1.892119,-0.043091,0.011109,1.040787
1467,-16.662852,-7.812619,2.929732,-0.021485,0.004150,0.986465
1468,-16.784924,-8.484016,1.892119,-0.023926,-0.008545,0.976333
1469,-16.784924,-8.545052,1.831083,-0.018433,-0.004028,1.026627
1470,-16.174563,-8.239872,1.342794,-0.019043,-0.023316,1.026627
1471,-10.193027,-9.521630,0.122072,-0.005493,0.041382,0.953750
1472,-12.085145,-8.361944,1.098650,0.001465,-0.035401,1.032486
1473,-11.291676,-7.812619,1.464866,-0.023560,-0.033082,1.056535
1474,-6.897078,-8.117800,0.488289,-0.020508,-0.026001,0.991836
1475,-8.606088,-8.545052,0.427253,-0.009766,-0.038453,0.964858
1476,-7.934691,-8.178836,1.037613,-0.019287,-0.016846,0.986709
1477,-7.568475,-8.667124,0.366217,-0.017212,-0.039673,0.945205
1478,-7.202258,-11.047532,-0.305180,-0.046998,0.047608,0.972671
1479,-11.718929,-11.230640,-0.305180,-0.029908,-0.034058,0.982925
1480,-12.634470,-12.207218,0.854505,0.005249,-0.043091,1.045182
1481,-10.254063,-10.986496,0.427253,-0.007080,-0.047120,1.004532
1482,-9.399557,-11.169604,0.549325,0.011841,-0.066896,0.964370
1483,-9.521630,-10.864424,0.732433,0.001709,-0.060914,1.007218
1484,-11.779965,-10.193027,0.976577,0.024292,-0.021485,1.026505
1485,-11.108568,-8.361944,1.342794,0.036255,-0.026368,1.023453
1486,-10.315099,-7.019150,1.586938,0.005737,0.009644,1.008194
1487,-12.817578,-6.591897,2.014191,0.016358,-0.065187,0.959609
1488,-15.625238,-6.103609,1.770047,0.024659,-0.034302,0.982559
1489,-18.554971,-6.042573,1.403830,0.003418,-0.033204,1.000870
1490,-19.043259,-5.737392,1.342794,0.007202,-0.030518,1.031144
1491,-18.554971,-5.554284,1.342794,0.015259,-0.060304,1.018326
1492,-18.188754,-4.089418,1.220722,-0.014527,-0.065675,0.998184
1493,-15.808347,-4.577707,1.342794,0.010742,-0.045167,1.003677
1494,-17.395285,-4.577707,1.159686,0.000732,-0.054688,0.995010
1495,-18.127718,-4.638743,1.647974,0.016358,-0.065797,1.005020
1496,-18.188754,-4.455634,2.075227,0.021241,-0.068360,1.010513
1497,-19.409476,-3.356985,3.112840,0.033692,-0.093263,1.038224
1498,-16.418708,-1.709010,4.150454,0.024903,-0.106691,0.983169
1499,-15.686275,-1.525902,5.249104,0.019654,-0.062623,0.973770
1500,-16.906996,-0.854505,5.615320,-0.028809,-0.080323,0.942275
1501,-25.146868,-3.173877,4.211490,0.008911,-0.012451,0.926772
1502,-33.020523,-4.394598,2.868696,-0.001099,-0.025635,0.967910
1503,-39.551385,-5.371176,1.159686,0.021729,-0.050416,1.047990
1504,-44.129091,-1.525902,0.427253,0.028443,-0.099123,0.985977
1505,-41.260395,1.037613,-0.488289,0.000977,-0.056397,1.048600
1506,-39.551385,3.845274,-6.164645,0.015991,-0.070069,0.996963
1507,-46.082246,6.164645,-8.239872,0.004150,-0.059205,1.036271
1508,-44.068055,7.202258,-12.939651,-0.073732,-0.158572,1.006851
1509,-48.279545,5.310140,-23.926146,-0.058228,0.006226,0.971450
1510,-70.252537,9.643702,-37.842374,0.051759,-0.233768,0.940932
1511,-62.867170,2.929732,-21.362631,0.102785,-0.259648,1.036393
1512,-55.664912,-6.775006,-11.596857,0.017700,0.095460,0.896132
1513,-83.680476,-4.943923,-28.503853,0.045045,0.221561,0.870741
1514,-137.758450,1.831083,-30.151827,0.215213,0.041382,0.766979
1515,-155.886168,7.202258,-13.244831,-0.073121,0.345708,0.792737
1516,-205.142290,-19.714656,-31.250477,-0.260258,0.433967,1.317647
1517,-302.677958,-28.076600,-30.762188,0.013550,1.208148,1.003433
1518,-518.501564,-48.401617,-22.644388,-0.607919,-0.250614,1.433494
1519,-618.844892,-159.365225,62.012665,-0.525399,-0.375860,0.811292
1520,-673.533227,-258.976120,88.685435,-0.125978,-0.407111,0.940322
1521,-721.019303,-297.917144,115.236133,0.158328,-0.385992,0.774914
1522,-816.906996,-321.843290,168.581674,0.763317,-2.000031,1.999969
1523,-572.396429,-228.397040,184.084840,-0.230106,-0.167605,1.999969
1524,39.063096,-111.696040,-6.408789,0.315923,0.443000,1.999969
1525,281.498436,22.339208,-40.772107,-0.093507,1.398703,1.999969
1526,160.891127,96.681163,-61.890593,-0.362799,0.849866,1.741848
1527,41.931792,55.970092,-1.831083,-0.655039,0.524422,0.917372
1528,55.664912,40.711070,27.832456,-0.440681,0.193851,0.428107
1529,144.533455,36.255436,22.278172,-0.441169,0.064820,0.330205
1530,154.055085,22.034028,34.485389,-0.226688,0.267338,0.166629
1531,117.494469,11.413748,42.908370,-0.054932,0.252445,0.396002
1532,133.669032,17.456321,37.659266,0.137819,0.314458,0.633066
1533,161.501488,30.823224,21.423667,0.302983,0.450202,0.783581
1534,163.576715,37.781338,6.347753,0.457527,0.470710,1.011856
1535,172.243839,39.368276,-16.906996,0.780041,0.340703,1.360006
1536,208.804456,64.148928,-53.223468,0.708141,0.180911,1.457664
1537,247.440299,70.984970,-83.253223,0.659068,0.032349,1.440818
1538,261.966888,71.656367,-103.700313,0.565438,-0.190188,1.416526
1539,279.728389,74.708171,-118.287938,0.460456,-0.418341,1.344137
1540,295.597772,77.332723,-127.626459,0.360845,-0.576791,1.235737
1541,300.358587,79.102770,-130.861372,0.313237,-0.696056,1.174701
1542,300.846876,81.055924,-130.983444,0.276616,-0.816175,1.138689
1543,294.926375,78.248264,-128.480964,0.200687,-0.950942,1.009781
1544,281.437400,71.290150,-122.011139,0.029541,-1.088518,0.844862
1545,262.577249,62.195773,-110.170138,-0.166018,-1.131731,0.651499
1546,234.561685,52.063783,-92.652781,-0.344366,-1.127092,0.514290
1547,197.573816,50.049592,-70.069429,-0.517464,-1.093156,0.651377
1548,162.600137,59.754330,-40.894179,-0.644663,-1.004166,1.119768
1549,139.894713,67.872129,-5.554284,-0.741588,-0.913832,1.669703
1550,145.143816,67.627985,26.733806,-0.719249,-0.869520,1.999969
1551,166.384375,76.295109,57.862211,-0.618784,-0.903700,1.999969
1552,190.310521,96.253910,82.642863,-0.423590,-1.024918,1.899321
1553,192.568856,120.912490,103.761349,-0.177859,-1.062394,1.406027
1554,166.567483,122.621500,120.912490,0.027588,-1.034806,1.489281
1555,163.454643,105.043107,130.251011,0.308843,-0.957046,1.840848
1556,187.075608,93.690394,126.344701,1.005264,-0.761364,1.844022
1557,199.893187,92.896925,103.639277,1.434470,-0.584726,1.575708
1558,188.113222,81.849393,72.266728,1.495628,-0.649424,1.316060
1559,183.657588,61.768521,39.063096,1.297017,-0.755016,1.077653
1560,172.793164,32.349126,11.291676,0.996475,-0.859632,0.923964
1561,155.886168,7.812619,-12.085145,0.682872,-1.001968,0.890883
1562,139.894713,2.136263,-33.264668,0.395392,-1.170550,0.874647
1563,119.996948,13.977264,-51.026169,0.210452,-1.329000,0.792493
1564,96.864271,35.278859,-66.102083,0.111574,-1.468040,0.703014
1565,73.426413,59.632258,-74.586099,0.016236,-1.553124,0.591806
1566,33.936065,64.698253,-68.787671,-0.361578,-1.999420,-0.697765
1567,-35.523003,1.586938,-31.006332,-0.417853,-2.000031,-0.320073
1568,-76.783398,-54.261082,10.070954,-0.144411,-2.000031,-0.340703
1569,-111.573968,-103.395132,25.452049,0.552132,-1.849516,-0.204837
1570,-73.914702,-69.703212,6.591897,0.380865,0.199588,1.310079
1571,-16.723888,-26.367590,-34.302281,-0.280156,0.753674,1.597436
1572,-84.596017,-38.818952,8.178836,-0.673716,0.874037,0.353155
1573,-199.221790,-98.146029,21.789883,-0.509163,-0.197024,-0.108522
1574,-216.006714,-65.613794,41.565576,-0.411994,-0.453254,0.222049
1575,-206.851301,-85.267414,50.904097,0.203861,-0.123293,1.691066
1576,-192.080568,-56.336309,49.378195,0.438117,-0.244877,1.533837
1577,-202.395666,-130.373083,66.895552,-0.179690,0.018067,1.999969
1578,-112.977798,-101.258869,33.081559,0.695811,-0.099123,1.999969
1579,-29.175250,-50.049592,1.525902,1.211078,-0.243778,1.999969
1580,9.521630,15.503166,-0.976577,-0.159792,0.096803,1.018692
1581,-41.504540,-8.239872,12.390326,-0.326299,0.087037,0.853285
1582,-44.312200,-19.470512,10.620279,0.229496,0.033692,1.178973
1583,-27.344167,-3.845274,3.662165,0.133181,0.029175,1.158343
1584,-33.630884,-0.793469,5.554284,-0.127932,-0.019898,1.028336
1585,-20.691234,-7.446403,3.234913,-0.049439,0.023682,0.987930
1586,-24.109255,-8.484016,2.441444,0.051148,0.008057,1.060563
1587,-26.001373,-5.615320,4.150454,0.011353,-0.036744,1.065080
1588,-15.442130,-3.723201,3.112840,-0.023804,0.026001,0.960830
1589,-20.447089,-5.004959,2.746624,-0.027466,0.066529,0.865980
1590,-38.879988,-8.667124,3.906310,-0.010742,-0.031617,1.019913
1591,-27.283131,-9.338521,2.197299,-0.042237,-0.042359,1.040177
1592,-20.202945,-10.376135,-0.732433,0.009522,0.025513,0.980972
1593,-30.334936,-12.329290,-1.647974,-0.012329,-0.030640,1.030045
1594,-24.902724,-11.718929,-2.502480,0.027955,-0.053956,1.101457
1595,-16.906996,-9.399557,-3.112840,0.027832,-0.048951,1.015518
1596,-17.761501,-7.446403,-2.441444,0.021118,-0.051514,1.033097
1597,-17.151141,-5.554284,-1.525902,0.022705,-0.068971,1.070207
1598,-10.681315,-2.563516,-0.427253,0.023072,-0.055055,1.052384
1599,-9.094377,-0.732433,0.122072,0.009766,-0.046021,1.008072
1600,-6.897078,0.610361,-1.342794,-0.041138,-0.123171,1.038224
1601,-10.376135,-0.427253,0.854505,-0.028199,0.009277,0.991958
1602,-12.573434,-2.258335,0.854505,-0.016236,-0.039673,1.020768
1603,-10.376135,-3.112840,0.122072,-0.004639,-0.052247,0.995499
1604,-10.131991,-3.845274,-0.244144,-0.004883,-0.047364,1.006729
1605,-10.376135,-4.089418,-0.183108,0.008911,-0.057862,1.031876
1606,-7.629511,-3.601129,-0.244144,0.003174,-0.053956,1.012100
1607,-7.446403,-3.784237,-0.305180,-0.003052,-0.050782,0.994888
1608,-8.850233,-4.089418,-0.244144,0.018799,-0.063844,1.030777
1609,-5.493248,-3.112840,-0.244144,0.006348,-0.056275,1.013565
1610,-5.859464,-3.112840,-0.366217,0.011841,-0.050294,0.992691
1611,-7.263294,-3.418021,-0.305180,-0.000488,-0.054322,1.000626
1612,-6.530861,-3.295949,-0.305180,0.017212,-0.061402,1.010513
1613,-6.225681,-1.770047,-0.122072,0.035523,-0.087648,0.985855
1614,-3.784237,-1.464866,0.183108,0.010620,-0.062379,1.029068
1615,-3.601129,-1.037613,0.305180,0.005371,-0.063233,1.012833
1616,-2.258335,-1.159686,0.122072,0.012818,-0.069093,1.012467
1617,-1.403830,-0.854505,0.244144,0.015015,-0.071656,1.019425
1618,1.464866,-0.183108,0.122072,0.011231,-0.055421,1.006607
1619,0.671397,-0.549325,-0.183108,0.006348,-0.047242,0.998917
1620,-0.427253,-1.037613,-0.305180,0.000122,-0.051514,0.981094
1621,-0.610361,-1.831083,-0.244144,0.003906,-0.048951,0.981338
1622,-4.028382,-2.624552,-0.305180,0.002564,-0.049317,0.998184
1623,-3.784237,-3.051804,-0.183108,0.019043,-0.064332,0.994766
1624,-3.418021,-3.051804,-0.305180,0.023072,-0.061891,1.009171
1625,-3.540093,-2.868696,-0.549325,0.013794,-0.067628,1.010880
1626,-2.502480,-2.563516,-0.488289,0.021973,-0.068849,1.015518
1627,-1.709010,-1.525902,-0.244144,0.018311,-0.069703,1.032486
1628,-0.183108,-0.427253,0.000000,0.021363,-0.070924,1.011490
1629,-0.305180,0.183108,0.549325,0.009644,-0.075074,1.030167
1630,1.159686,0.488289,0.305180,0.002319,-0.100465,1.050797
1631,2.258335,0.854505,0.427253,0.013428,-0.087160,1.036393
1632,4.089418,0.915541,0.488289,0.009766,-0.066041,1.054459
1633,6.591897,0.671397,0.244144,-0.006714,-0.056764,0.993790
1634,7.751583,-0.793469,-0.549325,-0.004883,-0.014160,0.955947
1635,1.342794,-2.563516,-1.647974,0.011841,-0.033204,0.982437
1636,0.183108,-2.197299,-2.258335,0.035523,-0.072999,1.029801
1637,3.234913,0.000000,-1.525902,0.043702,-0.087892,1.055802
1638,6.103609,2.502480,-0.549325,0.027710,-0.068482,1.033585
1639,7.507439,3.723201,-0.366217,0.029786,-0.061891,1.027237
1640,8.606088,4.821851,-0.488289,0.021607,-0.072877,1.012711
1641,9.582666,5.371176,-0.244144,0.029053,-0.074098,1.036271
1642,12.268254,6.042573,-0.305180,0.017945,-0.070924,1.032364
1643,14.892805,6.164645,-0.183108,0.011231,-0.058839,0.991592
1644,15.991455,5.432212,-0.244144,-0.026734,-0.015991,0.930312
1645,9.521630,2.868696,-0.427253,-0.001099,0.001831,0.931411
1646,4.150454,1.403830,-1.098650,0.002808,-0.023804,0.988785
1647,2.563516,1.525902,-0.488289,0.026368,-0.062745,1.021866
1648,6.225681,3.234913,0.183108,0.009766,-0.053468,1.021012
1649,7.263294,4.150454,0.793469,-0.000122,-0.036011,0.996475
1650,6.286717,3.723201,0.671397,-0.001221,-0.031128,1.001358
1651,5.493248,3.234913,0.671397,-0.000488,-0.044800,1.013565
1652,8.239872,2.929732,0.366217,0.004883,-0.048707,0.999283
1653,7.019150,2.197299,0.000000,-0.011353,-0.046632,1.013931
1654,9.704738,1.037613,-0.366217,-0.010498,-0.030274,0.936904
1655,8.545052,-0.915541,-0.793469,-0.019287,0.008301,0.893568
1656,-2.502480,-3.845274,0.000000,-0.012329,0.004883,0.953506
1657,-5.432212,-4.333562,-0.122072,0.004517,-0.027710,0.976822
1658,-6.225681,-4.882887,-0.427253,0.009888,-0.038209,1.019791
1659,-5.004959,-3.540093,-0.183108,0.039429,-0.050050,1.049454
1660,-3.112840,-1.831083,0.000000,0.001587,-0.049073,1.017350
1661,-1.464866,-1.586938,0.122072,0.017945,-0.040894,1.012589
1662,-1.770047,-1.159686,0.061036,0.013184,-0.056153,1.021988
1663,1.281758,-0.854505,0.488289,0.005615,-0.047974,1.014664
1664,3.601129,-0.793469,0.366217,-0.005493,0.002930,0.934463
1665,-6.347753,-2.563516,0.305180,0.010132,-0.040894,1.022232
1666,-2.014191,-1.892119,0.061036,0.007446,-0.079713,1.042618
1667,3.662165,-1.403830,0.183108,0.016602,-0.052613,1.018204
1668,3.356985,-0.793469,0.549325,0.016724,-0.038941,1.017227
1669,4.211490,0.000000,0.549325,0.002808,-0.012696,0.990738
1670,-0.061036,-1.037613,0.488289,-0.006836,-0.025269,1.008804
1671,1.953155,-1.770047,-0.305180,-0.012207,-0.037354,1.000381
1672,1.831083,-3.112840,-0.915541,-0.012451,-0.037598,0.993668
1673,-0.610361,-4.028382,-0.915541,-0.002319,-0.058717,1.014420
1674,3.295949,-4.821851,-1.037613,0.019654,-0.047364,1.039689
1675,3.662165,-4.089418,-0.244144,0.073732,-0.047730,1.085954
1676,8.117800,-0.793469,0.488289,0.034546,-0.117678,1.056779
1677,17.761501,0.915541,0.671397,0.015381,-0.028077,1.006973
1678,16.845960,0.000000,0.183108,-0.007080,0.056519,0.897230
1679,5.188067,-2.746624,-0.671397,-0.011841,0.065797,0.895155
1680,-6.103609,-3.784237,-0.854505,0.004028,0.032349,0.930922
1681,-10.986496,-5.432212,-1.831083,-0.033570,0.002564,0.969131
1682,-14.709697,-7.202258,-1.953155,0.033326,-0.050782,1.030411
1683,-8.667124,-5.981537,-2.258335,0.003052,-0.046509,1.005875
1684,-9.155413,-6.408789,-2.258335,0.052125,-0.073854,1.041520
1685,-7.507439,-4.638743,-1.831083,0.045289,-0.124514,1.117815
1686,9.338521,-2.075227,-1.709010,0.041260,-0.053712,1.060929
1687,9.216449,-0.732433,-1.892119,0.013306,-0.021118,0.992081
1688,4.882887,-1.892119,-2.014191,0.008545,-0.055421,1.023941
1689,11.902037,-1.709010,-3.356985,0.036133,-0.027466,1.014298
1690,10.864424,-0.488289,-2.990768,0.050782,-0.012329,0.955337
1691,7.507439,2.563516,-2.075227,0.029297,0.022461,0.950088
1692,-3.234913,3.662165,-0.183108,0.021363,-0.002319,0.975723
1693,-3.173877,3.845274,0.061036,-0.009766,-0.036133,0.997330
1694,-0.793469,1.953155,-0.732433,-0.006592,-0.023804,1.005509
1695,-1.709010,0.610361,-1.098650,0.040040,-0.051026,1.043961
1696,3.356985,2.075227,-0.366217,-0.023804,0.037598,1.083757
1697,2.685588,0.915541,-0.427253,-0.025879,-0.057130,1.007828
1698,7.995727,-1.098650,-1.647974,0.013306,-0.056764,1.048966
1699,13.550011,-1.403830,-2.868696,0.000732,-0.025147,0.942885
1700,10.437171,-3.295949,-2.746624,-0.010010,0.029908,0.933486
1701,2.136263,-3.784237,-2.014191,0.011231,0.020874,0.982071
1702,-4.699779,-2.868696,-0.671397,0.007568,0.009766,0.998184
1703,-4.699779,-2.502480,-0.671397,0.007446,-0.013916,0.989639
1704,-6.164645,-3.051804,-0.915541,0.009888,-0.023438,0.980240
1705,-6.836042,-4.028382,-0.915541,0.003052,-0.025635,1.005509
1706,-5.798428,-5.310140,-1.709010,0.010376,-0.050416,1.011246
1707,-2.929732,-5.981537,-1.647974,0.002319,-0.014527,1.078019
1708,2.624552,-5.737392,-2.075227,0.021241,-0.035523,1.026505
1709,3.601129,-4.760815,-2.014191,0.047608,-0.019776,1.000137
1710,2.807660,-2.990768,-1.647974,0.026856,-0.001099,0.982559
1711,-1.464866,-2.685588,-0.488289,0.017945,-0.000855,0.931167
1712,-3.479057,-2.258335,-1.159686,0.018433,0.016968,0.946792
1713,-11.779965,-3.906310,-1.159686,-0.015015,0.025513,1.053971
1714,-8.789197,-4.394598,-1.831083,0.027710,-0.049561,1.038102
1715,-4.699779,-3.356985,-1.831083,0.051270,-0.054200,1.057633
1716,-3.540093,-1.281758,-1.220722,0.036133,-0.037354,1.026261
1717,-1.220722,0.061036,-0.793469,0.046754,-0.039918,1.018448
1718,-0.610361,1.159686,-0.549325,0.024170,-0.033570,1.014542
1719,0.000000,1.464866,-0.488289,0.028687,-0.042847,1.016373
1720,2.868696,1.525902,-0.549325,0.018799,-0.020264,0.982925
1721,-0.915541,0.732433,-0.488289,0.027710,-0.041871,1.018082
1722,2.929732,1.586938,-0.366217,0.033936,-0.032349,1.015030
1723,2.685588,2.685588,-0.122072,0.030274,-0.020996,1.003189
1724,0.488289,2.868696,0.000000,0.025025,-0.027832,1.004776
1725,2.014191,2.868696,-0.122072,0.016236,-0.031617,0.993179
1726,1.159686,2.441444,-0.244144,0.021241,-0.033936,1.017594
1727,1.586938,2.990768,-0.427253,0.031373,-0.036011,1.009903
1728,2.258335,3.540093,-0.427253,0.015259,-0.021729,0.988663
1729,1.342794,3.234913,-0.793469,0.021118,-0.026856,0.992569
1730,2.380407,3.356985,-1.220722,0.018921,-0.016968,0.980972
1731,-0.122072,3.173877,-1.464866,0.020508,-0.029419,1.000870
1732,0.366217,3.356985,-0.854505,0.017212,-0.028077,1.003922
1733,1.342794,3.418021,-0.976577,0.014282,-0.025391,0.991104
1734,0.122072,3.234913,-0.915541,0.018311,-0.038331,1.016739
1735,4.028382,3.356985,-0.976577,0.012085,-0.027955,1.004044
1736,2.807660,2.685588,-0.793469,0.006958,-0.019043,0.985367
1737,2.014191,1.403830,-0.915541,0.009155,-0.033082,0.999771
1738,2.807660,0.915541,-1.525902,0.010620,-0.036744,1.017105
1739,2.990768,0.915541,-1.525902,0.003540,-0.026612,0.996841
1740,0.366217,0.000000,0.000000,0.021485,-0.023560,1.012955
1741,2.014191,0.122072,0.122072,0.010620,-0.021607,0.993423
1742,1.342794,0.061036,0.183108,0.018799,-0.019898,0.994644
1743,1.342794,0.549325,-0.122072,0.008545,-0.015015,0.984146
1744,-1.220722,-0.183108,-0.183108,0.021485,-0.013794,1.000748
1745,-1.464866,-0.061036,0.000000,0.022950,-0.034302,0.997452
1746,-0.671397,0.000000,0.305180,0.011841,-0.028199,1.002823
1747,-0.366217,-0.061036,0.671397,0.010010,-0.026612,1.021134
1748,1.831083,0.122072,0.549325,0.007813,-0.017456,0.999039
1749,-0.183108,-0.671397,0.366217,0.009888,-0.028443,0.996841
1750,1.647974,-0.549325,0.183108,0.017456,-0.021485,1.003189
1751,0.427253,-0.488289,0.244144,0.021363,-0.022705,1.000870
1752,0.671397,0.244144,0.122072,0.019776,-0.026368,1.006119
1753,1.098650,0.671397,0.488289,0.015625,-0.025147,1.002090
1754,1.586938,0.976577,0.366217,0.017945,-0.018555,0.996231
1755,0.427253,1.037613,0.305180,0.014527,-0.026978,0.993057
1756,1.037613,0.854505,0.366217,0.011109,-0.016724,0.988418
1757,0.000000,0.000000,0.244144,0.007568,-0.022095,0.992813
1758,0.061036,-0.610361,-0.122072,0.011353,-0.025879,0.995621
1759,0.183108,-1.037613,-0.244144,0.021729,-0.020386,0.999649
1760,-0.061036,-0.915541,-0.183108,0.018311,-0.025269,1.008316
1761,1.037613,-0.610361,0.122072,0.018433,-0.022705,1.001724
1762,0.610361,-0.732433,0.427253,0.018433,-0.022827,1.005142
1763,1.342794,-1.098650,0.793469,0.007446,-0.016724,0.975723
1764,0.793469,-0.671397,0.671397,0.027344,0.012207,0.952895
1765,-7.507439,-0.915541,0.488289,-0.003052,-0.010864,0.975601
1766,-7.141222,-1.220722,0.244144,0.036011,-0.020142,1.003311
1767,-7.324331,-0.183108,0.000000,0.009522,-0.037964,1.011978
1768,-5.981537,-0.305180,0.000000,0.020020,-0.031983,1.009293
1769,-6.103609,-0.366217,0.000000,0.020630,-0.038087,1.045914
1770,-3.112840,-0.183108,-0.244144,0.012573,-0.030884,0.994644
1771,-1.892119,-0.671397,-0.366217,0.032471,-0.022950,1.027848
1772,2.014191,0.366217,-1.220722,0.005005,-0.032837,0.998550
1773,0.854505,-0.915541,-0.732433,-0.004639,-0.023072,0.983780
1774,-1.159686,-2.197299,0.183108,0.015259,-0.044923,1.029068
1775,0.061036,-1.586938,-0.183108,0.033082,-0.043091,0.987198
1776,-0.122072,-1.342794,0.366217,0.016968,-0.021118,1.009781
1777,-0.061036,-0.732433,0.366217,0.014282,-0.025635,1.002701
1778,-0.061036,-0.915541,0.488289,0.017456,-0.031006,0.998306
1779,1.159686,-0.549325,0.488289,0.020386,-0.029908,1.007462
1780,1.709010,-0.427253,0.427253,0.016236,-0.032227,1.000748
1781,1.464866,-0.610361,0.305180,0.017090,-0.026734,1.005386
1782,1.281758,-0.793469,0.000000,0.019165,-0.029175,1.005997
1783,1.281758,-0.732433,-0.366217,0.025025,-0.027588,1.000992
1784,0.427253,-0.671397,-0.244144,0.019287,-0.027100,1.006363
1785,-0.183108,-0.854505,0.000000,0.017334,-0.030274,0.999527
1786,-0.061036,-0.854505,0.061036,0.013550,-0.027588,1.003433
1787,1.403830,-0.610361,0.061036,0.020142,-0.027588,1.005264
1788,2.685588,-0.732433,0.244144,0.013062,-0.034058,1.000259
1789,2.807660,-0.915541,0.549325,0.022827,-0.019287,0.998550
1790,1.586938,-0.793469,0.671397,0.021241,-0.025025,0.995010
1791,0.854505,-0.854505,0.793469,0.018189,-0.027466,1.009781
1792,0.427253,-0.671397,1.220722,0.015381,-0.031128,1.009537
1793,3.173877,-0.549325,1.831083,0.012818,-0.030884,1.002945
1794,2.929732,-0.610361,2.014191,0.015747,-0.022461,0.993179
1795,1.953155,-0.915541,1.220722,0.006714,-0.023560,0.997208
1796,2.746624,-1.159686,1.037613,0.023438,-0.016358,0.997452
1797,1.709010,-1.342794,0.183108,0.025269,-0.026001,0.998917
1798,2.014191,-0.976577,0.000000,0.031373,-0.027588,1.009659
1799,2.258335,-0.122072,-0.305180,0.026856,-0.026490,1.005142
1800,2.319371,0.000000,0.000000,0.018433,-0.026246,1.010513
1801,2.746624,0.305180,0.183108,0.030518,-0.027466,0.998672
1802,2.197299,0.671397,0.122072,0.010620,-0.019898,1.002823
1803,2.502480,0.854505,0.244144,0.027588,-0.006958,0.996841
1804,2.380407,0.976577,-0.183108,0.015869,-0.026490,1.005631
1805,2.929732,0.915541,-0.305180,0.023926,-0.015625,1.003799
1806,-0.061036,0.610361,0.061036,0.019165,-0.014160,0.994888
1807,-1.464866,-0.061036,0.244144,0.022583,-0.022950,0.996597
1808,0.793469,0.122072,0.122072,0.016114,-0.014160,1.001114
1809,0.000000,0.122072,-0.244144,0.029786,-0.017212,0.996597
1810,-0.122072,-0.061036,-0.244144,0.022827,-0.027222,0.997330
1811,1.586938,0.732433,-0.854505,0.025879,-0.012940,0.976822
1812,0.915541,0.976577,-1.281758,0.014893,-0.002441,0.979507
1813,-0.244144,1.037613,-1.220722,0.010986,-0.021118,0.990005
1814,-0.732433,0.610361,-0.976577,0.004273,-0.032715,1.003189
1815,0.793469,0.000000,-0.732433,0.035401,-0.026123,1.025040
1816,0.427253,0.488289,-2.258335,0.011963,-0.023926,1.015518
1817,0.061036,-0.488289,-0.732433,0.003784,-0.024048,1.000015
1818,1.342794,-0.915541,-0.305180,0.016114,-0.022461,1.005142
1819,2.624552,-0.915541,-0.427253,0.014038,-0.016724,0.998306
1820,1.953155,-1.709010,-0.244144,0.019165,-0.020264,1.006851
1821,3.845274,-1.770047,0.122072,0.015259,-0.020996,1.006363
1822,4.760815,-1.647974,0.244144,0.017456,-0.019654,1.001602
1823,6.103609,-1.159686,0.000000,0.021118,-0.016602,1.000870
1824,5.859464,-0.732433,0.061036,0.015869,-0.012451,1.006119
1825,3.418021,-0.427253,0.000000,0.020264,-0.011597,1.004654
1826,1.403830,-0.183108,0.122072,0.026246,-0.008545,1.006607
1827,-0.854505,0.061036,0.427253,0.014893,-0.011353,1.005264
1828,-2.014191,-0.793469,0.854505,0.001465,-0.020752,1.000137
1829,-3.234913,-1.586938,1.647974,0.021851,-0.015137,0.989883
1830,-2.685588,-1.342794,1.159686,0.018555,-0.021729,0.998428
1831,0.305180,-1.281758,1.709010,0.011353,-0.021118,1.006607
1832,2.014191,-0.915541,1.525902,0.031495,-0.011719,0.998306
1833,0.976577,0.122072,-0.305180,0.054078,-0.008545,1.028824
1834,1.953155,-1.403830,0.488289,0.036011,-0.034058,0.990249
1835,3.356985,0.366217,-0.183108,0.040162,-0.013794,1.018936
1836,2.685588,1.159686,-0.244144,0.015869,-0.009277,1.010513
1837,1.098650,0.793469,0.061036,0.016846,-0.015991,1.000137
1838,0.976577,0.976577,0.000000,0.021363,-0.016602,1.002090
1839,0.854505,0.976577,0.122072,0.017945,-0.009766,0.996597
1840,0.854505,0.854505,-0.122072,0.011109,-0.014160,1.002945
1841,2.197299,0.488289,-0.366217,0.019287,-0.020508,1.005386
1842,5.920500,0.671397,-0.854505,0.012573,-0.006226,0.995865
1843,5.493248,0.244144,-0.976577,0.037232,-0.001831,0.985611
1844,6.469825,0.061036,-0.732433,0.007446,-0.016114,0.995865
1845,7.019150,0.122072,-0.549325,0.023560,-0.010010,1.025162
1846,7.812619,0.671397,0.061036,0.012573,-0.000366,0.990249
1847,3.601129,0.305180,0.793469,0.014282,0.004395,0.977432
1848,0.915541,0.061036,0.732433,0.015015,-0.006958,0.989395
1849,0.000000,0.000000,0.671397,0.013794,-0.006470,0.984756
1850,-1.953155,-0.671397,0.305180,0.019898,-0.011597,1.006363
1851,-1.525902,-0.549325,0.122072,0.021973,-0.011963,0.997452
1852,-2.685588,-1.098650,0.305180,0.012085,-0.001709,0.983902
1853,-5.310140,-1.159686,0.427253,0.027955,-0.006958,1.005509
1854,-3.723201,-0.732433,-0.244144,0.036866,-0.006348,0.998917
1855,-2.990768,-0.793469,-0.122072,0.020264,-0.012329,1.005997
1856,-1.342794,1.281758,-2.441444,0.042237,-0.044678,1.018204
1857,-4.150454,1.098650,-1.586938,-0.144533,-0.135256,0.965957
1858,4.821851,-2.380407,1.342794,0.068116,-0.006226,0.999283
1859,10.193027,0.000000,0.915541,-0.002808,0.041505,0.974746
1860,-2.868696,-1.770047,2.563516,0.033814,0.001831,0.993545
1861,-2.685588,-0.915541,2.380407,0.018921,-0.017456,1.010391
1862,-1.525902,-0.854505,1.586938,0.035401,-0.013428,1.012711
1863,-0.427253,-0.183108,0.305180,0.017090,-0.019043,1.003433
1864,1.770047,-0.305180,0.366217,0.019532,-0.014282,0.996231
1865,0.854505,0.000000,0.366217,0.036011,0.004517,0.995377
1866,-2.319371,0.305180,0.000000,0.012696,-0.007324,0.987564
1867,-4.760815,-0.305180,0.000000,0.026856,-0.015015,1.011002
1868,-2.685588,0.000000,0.000000,0.019776,-0.021973,1.013565
1869,-1.647974,-0.061036,0.549325,0.024170,-0.010620,1.011978
1870,-0.915541,0.122072,0.793469,0.010986,-0.018555,0.999527
1871,0.244144,0.000000,0.854505,0.009766,-0.011597,0.991714
1872,1.037613,-0.244144,1.342794,0.009888,-0.005249,0.999405
1873,1.281758,-0.366217,1.831083,0.020142,-0.002808,0.995621
1874,1.098650,-0.488289,1.831083,0.009888,-0.012696,0.993057
1875,0.915541,-0.671397,1.831083,0.026490,-0.017700,1.000992
1876,1.709010,-0.183108,1.892119,0.010010,-0.021607,0.999283
1877,3.173877,-0.366217,2.990768,0.019654,-0.008789,0.994888
1878,1.281758,-0.183108,3.051804,0.026734,-0.011109,1.007584
1879,3.356985,-0.305180,2.563516,0.006104,-0.011841,1.004898
1880,0.854505,-0.793469,2.685588,0.036988,-0.002441,0.994766
1881,-0.183108,-0.671397,1.464866,0.021729,-0.005493,0.997696
1882,0.610361,-0.671397,1.220722,0.019898,0.009766,0.980484
1883,-1.892119,-0.061036,1.098650,0.034058,-0.002930,0.994400
1884,-1.037613,0.732433,0.793469,0.010498,-0.012696,1.002701
1885,-0.488289,0.793469,1.037613,0.029297,0.001709,0.987808
1886,-1.892119,0.610361,0.366217,0.011231,-0.018067,0.999649
1887,-0.610361,-0.061036,0.061036,0.019532,-0.013184,0.992325
1888,-1.953155,-0.488289,0.000000,0.013306,-0.011353,1.002579
1889,-0.549325,-0.915541,0.671397,0.009888,-0.024170,1.020523
1890,0.488289,-0.793469,1.831083,0.020264,-0.008423,0.994400
1891,1.281758,-0.427253,2.563516,0.021729,-0.021241,1.002701
1892,3.845274,-0.122072,2.197299,0.015991,-0.008911,1.000626
1893,2.380407,-0.244144,2.319371,0.023438,-0.011719,1.001358
1894,2.197299,-0.244144,1.525902,0.026123,-0.006958,1.002823
1895,2.014191,-0.427253,0.854505,0.030274,-0.009277,1.000992
1896,1.037613,-0.366217,0.305180,0.016724,-0.012818,0.989883
1897,2.197299,-0.976577,0.732433,0.017700,-0.002197,0.989395
1898,-0.793469,-0.915541,1.159686,0.030762,-0.001465,0.992447
1899,-0.976577,-0.427253,0.671397,0.019043,-0.008911,0.996475
1900,0.610361,-0.488289,0.244144,0.021729,-0.012451,0.995499
