Packet number,Gyroscope X (deg/s),Gyroscope Y (deg/s),Gyroscope Z (deg/s),Accelerometer X (g),Accelerometer Y (g),Accelerometer Z (g)
0,0.0,0.122072,0.0,-0.002564,-0.001709,0.999283
2,0.122072,0.061036,0.0,-0.000732,-0.004883,1.00209
4,0.0,0.0,0.0,0.0028079999999999997,-0.000122,0.999771
6,-0.244144,-0.244144,0.0,0.001465,-0.0015869999999999999,0.996353
8,-0.183108,-0.183108,0.0,-0.000977,-0.003906,1.003067
10,-0.549325,-0.366217,0.0,0.004273,-0.0021969999999999997,1.0091709999999998
12,-0.48828900000000003,-0.244144,0.0,0.0035399999999999997,-0.003418,1.001236
14,-0.183108,-0.061036,0.0,0.008301000000000001,-0.005005,0.996719
16,-0.244144,-0.30518,-0.183108,-0.012818000000000001,0.000244,1.000137
18,0.6103609999999999,-0.122072,-0.122072,-0.000732,0.001343,0.9907379999999999
20,0.427253,0.0,0.0,0.000244,0.002686,1.000259
22,0.061036,-0.183108,-0.122072,0.001831,0.0,0.9950100000000001
24,-0.061036,-0.183108,0.0,-0.0008550000000000001,-0.005982,1.00209
26,-0.183108,-0.061036,-0.122072,0.00061,-0.003296,0.993179
28,-0.122072,-0.183108,0.0,0.0021969999999999997,0.0008550000000000001,1.0008700000000001
30,-0.122072,-0.061036,0.0,0.000732,-0.008911,0.997574
32,0.122072,0.0,0.0,0.0015869999999999999,-0.0051270000000000005,0.9952540000000001
34,0.30518,0.0,0.0,0.0015869999999999999,0.000244,0.9952540000000001
36,0.183108,0.0,-0.183108,0.00061,-0.005249,1.0040440000000002
38,0.061036,0.061036,0.0,0.002686,-0.000122,1.002335
40,-0.30518,-0.244144,0.0,0.0035399999999999997,-0.0031739999999999997,1.003311
42,-0.244144,-0.061036,-0.122072,-0.000977,-0.0015869999999999999,0.996109
44,0.0,-0.122072,-0.183108,-0.000244,0.000488,1.005997
46,-0.061036,-0.122072,0.0,-0.000732,-0.003662,1.000381
48,-0.061036,-0.183108,-0.183108,0.00415,0.000977,1.0042879999999998
50,-0.061036,-0.122072,-0.122072,-0.000122,-0.0063479999999999995,1.0011139999999998
52,-0.183108,-0.183108,0.0,0.004761,0.0028079999999999997,0.9987950000000001
54,-0.183108,-0.244144,0.0,0.0037840000000000005,-0.000366,1.005509
56,-0.48828900000000003,-0.366217,0.0,0.002441,-0.00293,1.0080719999999999
58,-0.427253,-0.244144,0.0,-0.001099,-0.007324,1.001968
60,-0.061036,-0.122072,-0.122072,0.001099,-0.008667,0.9946440000000001
62,0.0,0.0,-0.122072,0.003052,-0.003296,1.000992
64,0.0,0.0,-0.122072,0.00293,-0.00415,0.999771
66,-0.122072,-0.061036,-0.122072,0.002441,-0.005005,1.004532
68,-0.061036,-0.244144,0.0,0.006104,-0.003296,1.002945
70,0.0,0.183108,-0.122072,-0.003906,-0.005371,0.9983059999999999
72,0.183108,0.48828900000000003,0.0,-0.0058590000000000005,-0.009033,0.996841
74,0.30518,0.793469,0.0,-0.009888,-0.014038,1.0048979999999998
76,0.366217,1.037613,-0.122072,-0.012573,-0.004028,0.995132
78,1.342794,1.40383,0.183108,-0.00647,0.000488,0.984512
80,0.732433,0.854505,0.183108,-0.006592,0.00061,0.996841
82,-0.122072,0.0,0.0,-0.0063479999999999995,-0.00415,0.995865
84,-0.061036,-0.366217,-0.244144,-0.0008550000000000001,0.000732,0.9990389999999999
86,-0.061036,-0.30518,-0.244144,0.0035399999999999997,0.0008550000000000001,0.9944
88,-0.30518,0.122072,-0.427253,-0.002441,0.0015869999999999999,0.991714
90,-1.037613,0.061036,-0.183108,0.0028079999999999997,-0.001709,1.001358
92,-0.793469,0.793469,0.122072,-0.0037840000000000005,-0.0063479999999999995,1.005142
94,-0.366217,0.671397,0.0,-0.0043950000000000005,-0.012329000000000001,1.001602
96,-0.122072,0.183108,0.0,-0.001465,-0.0037840000000000005,1.002579
98,-0.061036,0.0,-0.183108,-0.00061,0.004639,0.9909819999999999
100,-0.6103609999999999,-0.244144,-0.122072,0.004028,0.000488,0.992447
102,-1.2207219999999999,0.0,-0.122072,-0.0015869999999999999,-0.009276999999999999,1.014786
104,-0.30518,0.366217,0.061036,-0.000244,0.0008550000000000001,0.999649
106,-1.281758,-0.061036,0.061036,0.000244,-0.003052,1.006241
108,-1.281758,-0.183108,0.061036,-0.002075,-0.0035399999999999997,0.9901270000000001
110,-1.647974,-0.427253,0.122072,-0.003296,-0.007568000000000001,1.0040440000000002
112,-1.40383,-0.732433,0.183108,-0.003418,-0.006714,1.0048979999999998
114,-1.281758,-1.09865,0.30518,-0.0074459999999999995,-0.0035399999999999997,0.997208
116,-1.037613,-1.586938,0.549325,-0.0028079999999999997,-0.012695999999999999,1.008804
118,-0.30518,-1.464866,1.09865,0.004517,-0.001953,1.002335
120,-2.319371,-1.281758,1.342794,0.000244,0.019043,0.9602200000000001
122,-8.972305,-4.089418,0.793469,-0.005005,0.019287000000000002,0.981582
124,-13.916228,-5.61532,0.427253,0.004517,0.0074459999999999995,0.9720610000000001
126,-17.456321,-5.9205,-0.183108,-0.0035399999999999997,0.014527000000000002,0.9594870000000001
128,-26.733806,-7.751583,-1.8921189999999999,0.05139199999999999,0.086671,0.913832
130,-44.129090999999995,-7.2022580000000005,-0.122072,0.032837,0.0271,0.972915
132,-59.876402,-3.418021,-0.549325,0.003296,0.021851,1.011124
134,-67.505913,-4.272526,-5.249104,0.020996,-0.033326,1.0156399999999999
136,-87.281605,-7.629511,-12.756542,0.031006,0.076905,0.957046
138,-129.274434,-8.972305,-18.371862,-0.265263,0.07715,1.505028
140,-74.525063,43.701839,-1.647974,-0.743664,0.347906,1.9999689999999999
142,2.990768,19.65362,20.386053,0.070436,0.6262300000000001,0.745373
144,2.685588,22.888533,-1.525902,0.477058,0.764904,1.085832
146,43.640803000000005,12.268253999999999,-20.874342000000002,0.282963,0.721324,1.1268479999999998
148,72.3888,-16.784924,-25.391012,0.21155100000000002,0.5926600000000001,0.964736
150,85.267414,-18.005646,-32.227053999999995,0.083375,0.49744399999999994,0.976333
152,96.25391,-12.512398,-33.142596000000005,-0.11840999999999999,0.415045,0.972305
154,100.70954499999999,-2.746624,-25.940337,-0.193484,0.368048,1.017472
156,105.89761200000001,12.63447,-16.479744,-0.164675,0.327398,1.074235
158,111.39086,17.578393,-8.972305,-0.015625,0.308965,1.195453
160,127.199207,15.747310999999998,-12.817578,0.12695499999999998,0.32422399999999996,1.326314
162,140.87129,14.892805,-25.024796,0.160769,0.271244,1.1101239999999999
164,138.36881100000002,10.070953999999999,-35.156786,0.076539,0.231571,1.1338059999999999
166,139.894713,16.357671,-42.359045,0.013184,0.10192999999999999,1.245502
168,138.36881100000002,19.226368,-43.640803000000005,-0.055787,-0.0023190000000000003,1.151995
170,131.166552,24.231327,-42.603189,0.001343,-0.150759,1.00502
172,113.09987,21.301595000000002,-43.51873,0.081544,-0.28931100000000004,0.8955209999999999
174,94.361791,14.648660999999999,-46.692607,0.16846,-0.427008,0.8191039999999999
176,70.49668100000001,4.333562000000001,-53.406577,0.20947600000000002,-0.5352859999999999,0.613535
178,39.551384999999996,-2.075227,-58.04531899999999,0.079347,-0.621958,0.624765
180,15.808347,-10.864424,-49.622339000000004,-0.127565,-0.628305,0.6731060000000001
182,-1.2207219999999999,-24.170291,-28.992141999999998,-0.189822,-0.5335770000000001,0.67628
184,-22.400244,-22.522316,-11.169604,-0.186893,-0.479988,0.715709
186,-35.645075,-21.789883,4.8218510000000006,-0.135622,-0.459846,0.763439
188,-60.303655000000006,-8.239872,6.591897,0.10901,0.8712290000000001,0.0271
190,-114.381628,-22.888533,4.882887,-0.140627,0.6374609999999999,0.603891
192,-170.16861200000002,-37.048905,19.65362,-0.450446,-0.083864,1.0160069999999999
194,-146.547646,-31.677729,34.851606,0.317021,0.126345,1.9999689999999999
196,-95.216297,-3.784237,8.300908,0.658579,0.182254,1.6068360000000002
198,-72.449836,12.878614,-10.070953999999999,-0.210208,0.075441,1.245258
200,-73.487449,0.48828900000000003,6.042573,-0.490242,0.043824,0.793225
202,-81.849393,-18.005646,17.090104999999998,0.005615,0.075563,1.054337
204,-68.726635,-34.424353,17.212177,-0.053346000000000005,-0.12976300000000002,1.430442
206,-46.021209999999996,-46.875715,20.935378,-0.037110000000000004,0.093019,0.9788969999999999
208,-46.021209999999996,-38.635843,13.000687,0.41724300000000003,0.010254000000000001,1.5517809999999999
210,-33.875029,-11.169604,6.591897,-0.184451,0.0365,0.960464
212,-31.921874,-15.503166,3.723201,0.160403,0.025025,1.117815
214,-28.931106,-7.080186,2.685588,-0.045777,0.005615,1.05275
216,-18.677042999999998,-10.681315,0.793469,0.002564,0.045045,1.016861
218,-17.456321,-12.939651,-1.09865,0.039429,0.005249,1.021866
220,-18.066682,-11.779964999999999,0.061036,0.008667,0.04419,1.013321
222,-16.357671,-9.460594,0.0,0.043824,0.0070799999999999995,1.045548
224,-12.878614,-5.859464,0.30518,0.035644999999999996,-0.006592,1.0268709999999999
226,-10.742351,-3.784237,0.9155409999999999,0.01648,-0.013428,1.011124
228,-9.399557000000001,-3.784237,0.976577,0.01001,-0.014405000000000001,1.0089270000000001
230,-8.1178,-4.5166699999999995,0.549325,0.010254000000000001,0.004761,1.000259
232,-8.1178,-5.371176,0.122072,0.020874,-0.003296,1.011978
234,-7.873655,-5.9205,-0.30518,0.0177,-0.014893,1.0008700000000001
236,-8.911269,-6.164645,0.122072,0.032958999999999995,-0.016236,1.010391
238,-7.812619000000001,-5.493248,0.183108,0.019409,-0.00061,0.9959870000000001
240,-9.399557000000001,-6.347753,0.244144,0.022461000000000002,-0.013916,0.9979399999999999
242,-12.756542,-7.751583,0.30518,0.035644999999999996,-0.018311,0.9976959999999999
244,-15.869383,-8.239872,0.122072,0.057496000000000005,-0.048829000000000004,1.0080719999999999
246,-15.197985999999998,-6.2867169999999994,0.671397,0.057617999999999996,-0.024048,1.006729
248,-14.0383,-4.333562000000001,1.09865,0.032837,-0.012695999999999999,0.981216
250,-17.883574,-6.225681,0.48828900000000003,0.025879000000000003,-0.043336,0.9758450000000001
252,-19.226368,-7.324331,-0.30518,0.045533,-0.059204999999999994,0.9990389999999999
254,-22.400244,-6.042573,0.671397,0.041749,-0.052003,0.996109
256,-24.658579,-5.554284,0.30518,0.055421000000000005,-0.052735000000000004,0.992691
258,-26.67277,-4.394598,1.09865,0.065553,-0.082399,1.014054
260,-24.597542999999998,-2.2583349999999998,2.197299,0.063111,-0.08191,1.021256
262,-22.949569,-2.4414439999999997,2.014191,0.036011,-0.083986,0.9953770000000001
264,-30.701152,1.70901,1.8921189999999999,0.041016000000000004,-0.017945,1.007218
266,-40.344854,3.845274,1.2207219999999999,0.059692999999999996,-0.038941,0.984756
268,-53.223468000000004,7.873655,2.50248,0.056886,-0.11767799999999999,1.014298
270,-59.693293999999995,13.916228,0.183108,0.034058,-0.144533,1.048234
272,-48.82887,11.535821,-7.507439,0.008911,-0.281621,1.0316319999999999
274,-36.560615999999996,8.667124000000001,2.2583349999999998,0.029419,-0.015625,0.922377
276,-98.57328100000001,8.789197,2.380407,-0.035767,0.094484,0.70399
278,-188.29633,0.6103609999999999,2.563516,-0.016236,0.10315099999999999,0.7524529999999999
280,-322.392615,-38.086519,-14.953841,-0.049683,-0.007935,1.4173799999999999
282,-524.4220650000001,-89.417868,10.376135000000001,-0.11071900000000001,0.084352,1.146624
284,-662.8519110000001,-107.54558600000001,13.550010999999998,0.177127,-0.8222780000000001,1.9999689999999999
286,-116.456855,-20.141909,-19.409476,-0.546273,-0.819348,1.9999689999999999
288,-5.9205,21.301595000000002,-33.081559000000006,-0.5039140000000001,0.548226,1.3866180000000001
290,70.313573,-2.136263,-0.793469,-0.028321,0.265751,0.42713100000000004
292,2.2583349999999998,-16.052491,-11.047532,0.164797,0.256474,0.7306020000000001
294,36.438544,4.333562000000001,-39.795528999999995,0.080446,0.42627600000000004,0.9991610000000001
296,91.73724,10.925460000000001,-51.453421999999996,-0.105104,0.395636,1.175677
298,143.86205800000002,11.291675999999999,-45.654994,-0.227787,0.27563899999999997,1.228168
300,186.343175,31.311513,-31.616692999999998,-0.259281,0.09485,1.1787290000000001
302,214.35873999999998,46.692607,-10.009917999999999,-0.242679,-0.067872,0.8864879999999999
304,219.36369900000003,42.420081,11.169604,-0.059083000000000004,-0.049073,0.8723280000000001
306,226.504921,48.645762,15.991454999999998,0.19336199999999998,0.05005,1.2433049999999999
308,238.52902999999998,62.378882,3.356985,0.376471,-0.018067,1.357809
310,247.623407,67.139696,-10.376135000000001,0.36633899999999997,-0.178714,1.395407
312,248.783093,59.571220999999994,-12.939651,0.343999,-0.30933099999999997,1.4061489999999999
314,235.111009,48.462654,-18.371862,0.379156,-0.389044,1.116472
316,198.61142900000002,42.420081,-32.593271,0.188357,-0.339971,1.5724120000000001
318,202.639811,51.148241,-39.246204,-0.142947,-0.48303999999999997,1.9999689999999999
320,234.68375699999999,63.660639,-28.198672,-0.23267,-0.6189060000000001,1.885527
322,223.27000800000002,72.449836,-5.188067,-0.09777999999999999,-0.6640729999999999,1.464988
324,197.085527,69.642176,13.305867000000001,0.063722,-0.678477,1.369162
326,169.069963,72.205692,13.427939000000002,0.172976,-0.7671020000000001,1.3049520000000001
328,148.25665700000002,64.332036,5.127031,0.185916,-1.030167,1.259541
330,129.39650600000002,60.120546,-1.7700470000000001,0.390997,-1.566552,1.179583
332,93.018997,60.914015,-7.2022580000000005,0.579232,-2.0000310000000003,0.12903
334,10.681315,-5.065995,14.953841,0.33521,-1.8005650000000002,-0.16711700000000002
336,-110.10910200000001,-95.338369,24.475471,0.269169,-2.0000310000000003,-1.244404
338,-151.064317,-82.825971,18.921187,-0.10071000000000001,-0.281987,1.042618
340,-200.44251200000002,-66.83451600000001,37.354085999999995,-0.397833,0.626108,1.522118
342,-230.228122,-80.567636,46.387427,0.309087,-0.293095,1.176287
344,-177.737087,-42.603189,24.96376,1.151507,-0.028808999999999998,1.9999689999999999
346,-121.583886,0.122072,-5.0049589999999995,-0.210819,-0.025269,1.272358
348,-116.02960300000001,-52.368963,35.88922,-0.5886319999999999,-0.341314,1.354025
350,-70.130465,-46.204318,2.50248,1.085832,-0.316899,1.9999689999999999
352,-49.988556,-20.447089000000002,7.629511,-0.28455,-0.036622,1.026017
354,-33.569848,-5.371176,-0.6103609999999999,0.159426,0.044923000000000005,1.047501
356,-23.193713,5.188067,-0.671397,0.063722,-0.025147,1.1111010000000001
358,-10.864424,15.808347,2.014191,-0.008667,0.014405000000000001,1.038468
360,-10.742351,14.587625,3.6621650000000003,0.006958,0.020996,1.011124
362,-10.498207,12.573433999999999,3.234913,-0.008545,0.0028079999999999997,1.0116120000000002
364,-12.756542,11.474784,1.40383,-0.021241,0.006958,0.9911040000000001
366,-13.977264000000002,10.315099,1.525902,-0.031861,-0.0037840000000000005,1.003433
368,-14.404517000000002,8.972305,1.7700470000000001,-0.020630000000000003,-0.014527000000000002,1.010391
370,-13.366903,9.216449,1.525902,-0.022583000000000002,-0.0063479999999999995,1.006119
372,-13.977264000000002,8.972305,1.159686,-0.042359,-0.002441,0.971817
374,-13.427939000000002,5.371176,0.732433,-0.037110000000000004,-0.023316,0.984756
376,-13.550010999999998,4.150454,0.9155409999999999,-0.057496000000000005,-0.029664,0.9712059999999999
378,-13.122759,1.037613,1.037613,-0.04712,-0.044677999999999995,1.0078280000000002
380,-10.742351,-1.464866,0.48828900000000003,-0.094972,0.013062,1.127092
382,-8.850233,-4.394598,-0.366217,-0.025513,-0.082643,0.953017
384,-8.484016,-5.7984279999999995,0.427253,-0.032715,-0.044923000000000005,1.00441
386,-7.873655,-5.737392,0.671397,-0.038452999999999994,-0.04773,1.002701
388,-7.2022580000000005,-4.760815,0.732433,-0.014282,-0.039918,1.005875
390,-7.629511,-2.2583349999999998,1.40383,-0.008057,-0.062013,1.0251620000000001
392,-7.141222,0.6103609999999999,2.319371,-0.029786,-0.044068,0.9984280000000001
394,-10.193027,0.671397,3.540093,-0.020752,-0.037964,0.995743
396,-11.779964999999999,0.6103609999999999,4.150454,-0.021363,-0.047852,0.9869540000000001
398,-14.587625,-0.854505,4.150454,-0.020263999999999997,-0.059937,0.980606
400,-17.883574,-2.624552,4.089418,-0.043458,-0.027832,0.953262
402,-23.010604999999998,-6.347753,4.394598,-0.043091000000000004,-0.067262,0.984878
404,-26.001373,-6.652933999999999,2.685588,-0.051514,-0.10009900000000001,0.9990389999999999
406,-19.714656,-5.493248,2.868696,-0.046021,-0.06286699999999999,0.973037
408,-26.001373,-7.385367,2.80766,-0.05285700000000001,-0.080201,0.9826809999999999
410,-30.518044,-10.315099,0.244144,-0.048341,-0.085451,0.961074
412,-32.593271,-14.343481,-5.065995,-0.028687,-0.10144199999999999,0.9945219999999999
414,-38.574807,-19.836728,-11.718929,-0.037598,-0.0813,0.9560690000000001
416,-43.51873,-19.409476,-11.108568,0.03003,-0.16003699999999998,1.0564129999999998
418,-42.664225,-13.672084,-8.789197,0.054077999999999994,-0.14990499999999998,1.031998
420,-67.689021,-9.155413000000001,-13.305867000000001,0.023804,-0.075441,0.9973299999999999
422,-97.901884,-5.3101400000000005,-7.080186,-0.054810000000000005,0.235233,0.817884
424,-208.926528,-8.911269,-24.109254999999997,0.319585,-0.041382,0.8883190000000001
426,-370.79423199999997,-20.691233999999998,-42.359045,0.21033000000000002,0.256474,1.096452
428,-610.788129,-53.101395999999994,-0.976577,-0.041138,-0.0813,1.263569
430,-742.137789,-72.999161,45.288777,-0.530159,-1.917632,1.9999689999999999
432,8.850233,-67.017624,4.028382,-0.716808,-0.21484699999999998,1.9999689999999999
434,-19.287404000000002,-11.596857,21.789883,-0.30054200000000003,0.676646,1.399924
436,54.261081999999995,12.085144999999999,33.875029,0.189578,0.435187,0.596201
438,-4.638743,8.42298,10.864424,0.27063400000000004,0.402472,0.9039440000000001
440,56.153201,-13.427939000000002,-17.212177,0.13196,0.550423,1.044327
442,115.297169,-27.588312,-30.334936,-0.033204000000000004,0.490242,1.096696
444,157.473106,-20.508125,-32.898451,-0.21704400000000001,0.328862,1.190326
446,202.82291899999998,-11.963073,-22.827497,-0.361334,0.17163299999999998,1.299947
448,246.70786600000002,1.7700470000000001,-3.90631,-0.44641800000000004,-0.024537,1.202899
450,271.122301,18.005646,16.906996,-0.350835,-0.152224,1.054948
452,278.080415,27.038987,27.283131,-0.111818,-0.24194699999999997,0.9549709999999999
454,257.022965,42.298009,16.418708,0.176516,-0.386114,0.646494
456,219.119554,45.838102,1.7700470000000001,0.079347,-0.35425300000000004,1.0520180000000001
458,203.006027,43.823910999999995,-5.188067,-0.066651,-0.321782,1.9999689999999999
460,246.89097400000003,51.148241,-5.981537,-0.11645699999999999,-0.578134,1.9999689999999999
462,231.815061,61.34126800000001,-4.455634,-0.10925499999999999,-0.751843,1.666163
464,221.560998,62.439918000000006,-3.1128400000000003,-0.15552,-0.818128,1.9999689999999999
466,245.792325,67.444877,1.037613,-0.08984500000000001,-0.8294799999999999,1.9615779999999998
468,236.697948,75.928893,7.01915,-0.09472799999999999,-0.891249,1.52639
470,220.40131200000002,59.327077,24.536507,-0.21301599999999998,-0.984756,1.628199
472,215.152209,53.528649,37.415122,-0.021729,-1.145159,1.289204
474,173.830777,60.547799,34.241245,0.31311500000000003,-1.427878,0.8761120000000001
476,119.50866,53.589684999999996,12.756542,0.875868,-1.967193,0.782971
478,66.65140799999999,43.274586,-23.559929999999998,0.782361,-2.0000310000000003,-0.157473
480,-27.893492,-32.349126,-11.657893,0.193118,-1.7401389999999999,0.084718
482,-182.864118,-69.88632,-15.014878,0.167605,-1.6349129999999998,-0.9391010000000001
484,-119.996948,-37.659265999999995,15.197985999999998,-0.468513,0.8526739999999999,1.265034
486,-270.572976,-77.393759,42.786297,-0.360113,-0.054444000000000006,-0.013184
488,-274.052033,-54.016938,52.368963,0.9309219999999999,-0.272953,1.9999689999999999
490,-145.632105,9.216449,-1.8921189999999999,0.9466700000000001,0.029786,1.9999689999999999
492,-129.518578,44.373236,0.671397,-1.226825,-0.048829000000000004,1.958282
494,-46.204318,-51.63653,33.813992999999996,-0.20972,-0.127077,0.946426
496,-44.92256,-52.491035,20.874342000000002,0.39295,0.069093,1.618433
498,-15.320058,-49.92752,13.305867000000001,-0.147829,0.077028,1.062394
500,-25.696193,-34.607462,2.868696,0.105592,0.05774,1.231464
502,-18.005646,-26.550697999999997,0.976577,0.15173599999999998,0.083375,1.1259940000000002
504,-20.752270000000003,-7.2022580000000005,2.868696,-0.022461000000000002,0.024048,1.016617
506,-21.301595000000002,4.638743,2.319371,0.043702,0.014893,1.10219
508,-12.451362,10.681315,1.70901,0.03772,0.008057,1.0515299999999999
510,-12.207218,9.338521,1.8310830000000002,-0.035889,0.020263999999999997,0.989395
512,-16.540779999999998,5.188067,1.342794,-0.035767,-0.007568000000000001,1.015518
514,-11.779964999999999,4.5166699999999995,1.586938,-0.015747,0.006958,0.997818
516,-10.986496,2.4414439999999997,1.464866,-0.02417,-0.013428,1.0000149999999999
518,-9.52163,1.037613,1.2207219999999999,-0.019165,-0.016968,1.000504
520,-9.643702000000001,1.464866,0.48828900000000003,-0.05127,0.17969000000000002,1.260029
522,-18.188754,-1.2207219999999999,0.671397,-0.016846,-0.017212,0.9308
524,-18.738079,-1.8310830000000002,1.159686,-0.014282,-0.025147,1.005142
526,-16.540779999999998,-2.136263,1.464866,-0.024903,-0.036011,1.00502
528,-12.939651,-2.624552,0.061036,-0.060792,-0.072999,1.1540700000000002
530,-13.000687,-5.432212,0.30518,-0.021606999999999998,-0.040894,0.9876860000000001
532,-12.085144999999999,-5.61532,0.0,-0.010498,-0.046265,1.020035
534,-9.399557000000001,-3.6621650000000003,-0.9155409999999999,-0.037842,-0.046387,1.157
536,-9.338521,-1.953155,0.854505,-0.000122,-0.044068,0.974258
538,-11.413748,-0.48828900000000003,1.342794,-0.010864,-0.048219,1.003433
540,-13.794156,-1.70901,1.70901,-0.019287000000000002,-0.038331,0.9749899999999999
542,-17.822538,-4.5166699999999995,1.7700470000000001,0.0043950000000000005,-0.052979,0.9549709999999999
544,-20.752270000000003,-5.981537,1.70901,-0.019532,-0.041749,0.9953770000000001
546,-25.635157,-5.432212,3.356985,0.019776,-0.059571000000000006,1.006241
548,-26.977951,-1.8921189999999999,5.61532,-0.015015,-0.076295,1.008804
550,-29.907683000000002,-0.6103609999999999,6.225681,-0.041382,-0.085084,0.9826809999999999
552,-33.081559000000006,-6.652933999999999,3.6621650000000003,-0.0028079999999999997,-0.049683,0.9980620000000001
554,-37.964446,-9.765774,-1.281758,0.026001,-0.083619,0.9953770000000001
556,-42.1149,-9.460594,-2.624552,0.0021969999999999997,-0.097902,0.948989
558,-44.251164,-11.535821,-7.01915,-0.064088,-0.20703400000000002,1.172747
560,-46.082246000000005,-11.535821,-9.52163,0.003662,-0.19336199999999998,1.042985
562,-49.744411,-9.948882000000001,-9.277485,0.072389,-0.21033000000000002,1.076555
564,-52.796216,-4.699779,-9.582666,-0.007812999999999999,-0.117067,0.9944
566,-77.02754300000001,-6.530861,-15.320058,0.075074,0.100221,0.8379030000000001
568,-181.58236100000002,-9.765774,-15.625238000000001,0.21924200000000002,0.12109600000000001,0.8750129999999999
570,-330.510414,-21.728847000000002,-41.565576,0.107057,0.492805,1.7217060000000002
572,-612.00885,-30.457008000000002,8.484016,-0.16199000000000002,-0.11230599999999999,1.169574
574,-739.757382,-53.162431999999995,38.452735,-0.17615,-0.9743799999999999,1.4851299999999998
576,-198.42832099999998,-85.206378,12.63447,-0.850477,-1.263325,1.9999689999999999
578,17.578393,-37.537194,4.943923000000001,-0.44165699999999997,0.875624,1.9999689999999999
580,41.382467,-10.070953999999999,49.011978000000006,0.039918,0.284794,1.383078
582,11.963073,11.291675999999999,21.118485999999997,0.24475500000000003,0.42273599999999995,0.754772
584,72.205692,6.836042,-11.596857,0.219852,0.531868,0.9159079999999999
586,124.818799,-31.067369,-24.414435,0.01709,0.39148499999999997,1.078508
588,159.97558600000002,-39.00206,-31.738766,-0.020263999999999997,0.299809,0.973648
590,187.441825,-12.268253999999999,-39.368276,-0.135378,0.20935399999999998,1.103899
592,224.734875,12.085144999999999,-35.461967,-0.26758200000000004,0.056031,1.248432
594,260.86823799999996,23.376822,-20.630198,-0.21814299999999998,-0.08191,1.135393
596,277.22591,20.630198,-8.361944,-0.10583699999999999,-0.132448,1.274556
598,292.118715,32.654307,-10.070953999999999,0.050904000000000005,-0.234379,1.1491870000000002
600,261.53963500000003,70.923934,-21.484703,0.152834,-0.474861,0.659068
602,215.274281,54.383154000000005,-27.588312,0.23291399999999998,-0.32117199999999996,1.129656
604,196.90241899999998,53.71175699999999,-40.40589,0.198489,-0.202396,1.9999689999999999
606,251.1635,78.675517,-46.265353999999995,0.031006,-0.562875,1.9999689999999999
608,251.468681,68.48249,-29.236286,-0.087037,-0.725963,1.9999689999999999
610,280.33875,51.392386,-16.235599,0.097536,-0.76405,1.9999689999999999
612,280.33875,54.871443000000006,-20.569162,0.26160100000000003,-0.800671,1.6108639999999999
614,254.886702,47.852292999999996,-30.273899,0.180911,-0.885267,1.536767
616,230.472267,55.420768,-37.964446,0.157351,-1.1032879999999998,1.381003
618,187.99115,72.816052,-42.90837,0.39392699999999997,-1.606226,1.0121
620,124.20843799999999,97.77981199999999,-57.06874200000001,0.659068,-2.0000310000000003,0.862562
622,66.590372,51.63653,-54.871443000000006,0.6692,-2.0000310000000003,-0.948867
624,-57.862211,-97.230488,-9.765774,0.192142,-1.5907229999999999,0.462654
626,-76.478218,-100.70954499999999,15.747310999999998,-0.42358999999999997,-0.9521629999999999,1.492699
628,-111.45189599999999,-23.132676999999997,11.963073,-0.758679,1.140032,1.505028
630,-132.631418,-69.520104,40.527962,-0.688243,0.900526,-0.6262300000000001
632,-333.745327,-83.25322299999999,83.37529599999999,0.749401,-0.390021,1.322286
634,-239.017319,-8.545052,23.071641,1.4271459999999998,-0.091066,1.9999689999999999
636,-143.312734,43.274586,-21.850919,-0.468391,-0.042115,1.9957580000000001
638,-103.089952,-27.466239,39.00206,-0.910292,-0.5828949999999999,1.151385
640,-67.933165,-69.520104,34.79057,0.8169069999999999,0.068605,1.574975
642,-34.729534,-58.899825,17.761501000000003,-0.300664,-0.07800399999999999,0.9184709999999999
644,-46.021209999999996,-50.843061,5.249104,0.43213599999999996,-0.018067,1.350729
646,-31.921874,-23.071641,3.479057,0.017578,-0.012818000000000001,1.192035
648,-21.362631,-0.244144,3.356985,0.006592,0.042969,1.019303
650,-22.278172,2.4414439999999997,3.6011290000000002,-0.012451,-0.007201999999999999,1.048478
652,-19.714656,2.50248,2.50248,-0.013184,0.014159999999999999,1.000504
654,-16.540779999999998,0.732433,1.037613,-0.022583000000000002,0.000122,1.026139
656,-12.878614,-1.525902,1.159686,-0.025147,-0.027222000000000003,1.0466469999999999
658,-6.897078,-3.967346,0.671397,-0.10278499999999999,0.129519,1.256733
660,-12.207218,-11.352712,0.549325,-0.038941,-0.029175,0.889418
662,-13.061722999999999,-15.930419,0.0,-0.008423,0.000122,1.013931
664,-10.742351,-16.540779999999998,-0.183108,-0.002441,0.021606999999999998,1.093889
666,-11.841001,-14.587625,2.014191,0.036988,-0.0008550000000000001,1.011734
668,-9.765774,-10.803388,1.8310830000000002,0.007201999999999999,-0.025391,1.024674
670,-7.141222,-7.9957270000000005,-1.7700470000000001,0.072023,-0.23352399999999998,0.6994739999999999
672,-6.2867169999999994,-8.850233,1.09865,0.015137000000000001,-0.008911,1.051408
674,-6.897078,-9.460594,0.9155409999999999,0.029175,-0.010131999999999999,0.9876860000000001
676,-7.6905470000000005,-8.361944,0.671397,0.027344,-0.039429,0.989273
678,-7.263294,-6.652933999999999,1.342794,0.047852,-0.06384400000000001,0.980606
680,-6.897078,-5.554284,1.342794,0.007935,-0.017334,0.980972
682,-11.535821,-8.300908,1.342794,0.018433,-0.020142,0.966201
684,-15.686275,-9.643702000000001,0.244144,0.025635,-0.027710000000000002,0.985977
686,-18.677042999999998,-8.178836,0.30518,0.039429,-0.034791,1.0118559999999999
688,-23.010604999999998,-6.2867169999999994,1.342794,0.047242,-0.023681999999999998,0.991226
690,-30.518044,-5.432212,2.075227,0.028687,-0.044068,0.998184
692,-33.997101,-2.624552,3.418021,0.041382,-0.080812,1.029679
694,-28.931106,-0.549325,6.591897,0.031006,-0.037354000000000005,0.980728
696,-47.913329,-1.586938,6.469825,0.022705,-0.056152999999999995,0.9858549999999999
698,-50.293735999999996,-0.244144,1.8310830000000002,0.034302,-0.07190099999999999,1.002701
700,-50.904097,0.6103609999999999,0.9155409999999999,0.031617,-0.063233,1.0310219999999999
702,-58.777752,0.671397,-6.71397,0.015015,-0.06713999999999999,0.9203020000000001
704,-41.565576,-0.9155409999999999,-5.0049589999999995,0.088869,-0.195071,1.086198
706,-36.987869,5.859464,-2.868696,0.12146199999999999,-0.156863,1.038834
708,-63.355458999999996,11.352712,-6.103609,0.04773,0.13281500000000002,0.8767219999999999
710,-161.19630700000002,11.352712,-12.756542,-0.055665,0.30554699999999996,0.65565
712,-268.497749,-28.0766,-26.062409,-0.134279,0.8252079999999999,0.8372930000000001
714,-604.440375,-76.84443399999999,51.880674,-0.07727200000000001,-0.030396,1.559228
716,-749.46212,-136.110475,54.505226,0.048096,-0.266972,0.98793
718,-446.78416100000004,-70.740826,81.36110500000001,-0.9715719999999999,-1.4612040000000002,1.9999689999999999
720,216.372931,18.799115,-52.552071,0.034546,1.348165,1.385397
722,7.873655,-14.465553,31.921874,-0.250492,0.090455,0.665049
724,36.072328000000006,-9.399557000000001,12.085144999999999,0.007935,0.417731,0.199344
726,69.947356,2.380407,-9.399557000000001,0.06006,0.47693599999999997,0.658946
728,91.126879,4.760815,-26.794842,-0.029175,0.390021,1.085832
730,139.22331599999998,2.868696,-32.837415,-0.162722,0.33521,1.226093
732,189.70016,13.855192,-27.893492,-0.251713,0.20019800000000001,1.269184
734,228.15289500000003,32.349126,-12.024109,-0.271855,0.016968,1.2899370000000001
736,257.57229,40.527962,6.347753,-0.12365899999999999,-0.092042,1.1297780000000002
738,270.450904,43.457694000000004,14.404517000000002,0.11767799999999999,-0.07776,1.164691
740,274.296178,47.974365,2.4414439999999997,0.479133,-0.131838,1.257588
742,274.479286,51.819638,-33.142596000000005,0.532967,-0.246342,1.503929
744,271.061265,60.975052000000005,-62.928206,0.344244,-0.485969,1.5364
746,253.177691,68.36041800000001,-69.703212,0.037598,-0.602304,1.368673
748,219.668879,70.923934,-57.557031,-0.21692199999999998,-0.5815520000000001,1.8045930000000001
750,223.147936,76.96650600000001,-36.987869,-0.239139,-0.633188,1.9999689999999999
752,260.074769,92.59174499999999,-23.926146,0.039918,-0.707286,1.992462
754,239.200427,102.17441099999999,-15.259022,0.27393,-0.791882,1.564233
756,217.044327,79.89623900000001,3.784237,0.30041999999999996,-0.944106,1.456443
758,205.264363,18.24979,20.508125,0.274296,-1.3055620000000001,1.281392
760,160.769055,17.212177,-5.065995,0.7485470000000001,-2.0000310000000003,0.952773
762,105.83657600000001,69.459068,-54.077974,0.6246430000000001,-2.0000310000000003,-0.488045
764,-25.391012,-47.608148,-1.40383,-0.0043950000000000005,-1.829618,-0.32300300000000004
766,-157.595178,-167.483024,27.771420000000003,0.5706869999999999,-2.0000310000000003,-0.777478
768,-173.464561,-74.769207,44.3122,-0.379278,-0.425177,0.9188370000000001
770,-243.22880899999998,-77.45479499999999,53.71175699999999,0.10192999999999999,0.596445,1.43093
772,-277.836271,-65.613794,49.256122999999995,1.1158620000000001,-0.37903400000000004,1.594629
774,-208.560311,2.624552,2.136263,0.389532,-0.450813,1.9999689999999999
776,-125.12398,-36.072328000000006,31.006332,-1.059464,-0.41492299999999993,1.670924
778,-41.382467,-17.639429,-2.380407,1.500389,-0.059083000000000004,1.9999689999999999
780,-18.677042999999998,9.765774,7.507439,-0.540902,-0.10461600000000001,0.835096
782,-23.743038000000002,2.197299,-0.122072,0.032471,0.027587999999999998,1.009659
784,-13.061722999999999,-8.667124000000001,0.183108,0.033692,0.037110000000000004,0.9908600000000001
786,-9.887846000000001,-5.249104,0.793469,-0.07324299999999999,-0.040894,1.05568
788,-5.188067,-8.1178,0.0,0.018799,0.032958999999999995,0.96791
790,-6.71397,-4.21149,0.854505,0.04065,0.012085,1.031754
792,-9.52163,-2.4414439999999997,2.319371,0.009644,0.032593000000000004,0.961318
794,-14.160372,-6.469825,1.7700470000000001,-0.038575,0.017212,0.9664450000000001
796,-14.404517000000002,-10.193027,0.549325,-0.033936,0.010498,1.0085600000000001
798,-13.183795000000002,-11.108568,0.366217,0.030639999999999997,-0.015259,1.026139
800,-12.085144999999999,-7.385367,0.244144,0.021851,-0.012573,1.034928
802,-10.193027,-3.051804,-0.976577,-0.04773,-0.048829000000000004,1.0521399999999999
804,-8.850233,-1.159686,2.380407,0.008545,-0.017945,1.0199129999999998
806,-8.667124000000001,-3.051804,2.319371,-0.0015869999999999999,-0.0058590000000000005,0.977066
808,-9.52163,-6.897078,1.525902,-0.005371,0.000977,0.996841
810,-10.803388,-8.484016,1.159686,0.004273,-0.02002,0.993057
812,-12.024109,-10.315099,0.671397,0.022583000000000002,-0.034791,0.982559
814,-13.122759,-8.789197,0.793469,0.036988,-0.030762,1.012222
816,-15.503166,-6.469825,1.159686,0.041138,-0.028808999999999998,1.007218
818,-17.761501000000003,-3.6621650000000003,1.8310830000000002,0.014405000000000001,-0.031127999999999996,0.973404
820,-20.874342000000002,-3.90631,1.70901,0.035401,-0.050172,1.004532
822,-20.263981,-2.136263,2.136263,0.0365,-0.047242,1.0245520000000001
824,-21.972992,-0.549325,2.4414439999999997,0.042847,-0.057496000000000005,1.010636
826,-22.583351999999998,1.159686,3.051804,0.061402,-0.071656,1.028702
828,-24.353399,1.159686,3.1128400000000003,0.027344,-0.028443,0.961807
830,-31.799802000000003,-0.671397,1.8921189999999999,0.028687,-0.045167,0.968887
832,-45.471885,1.40383,4.882887,0.004639,-0.145876,0.976333
834,-38.086519,4.760815,8.606088,0.032349,-0.11523599999999999,1.100114
836,-35.034714,6.530861,7.141222,-0.00647,-0.072633,1.03151
838,-40.222782,2.380407,0.793469,-0.014405000000000001,-0.09777999999999999,0.972671
840,-38.330663,-0.427253,-3.784237,-0.13086099999999998,-0.21460300000000002,1.063493
842,-46.021209999999996,-4.333562000000001,-10.620279,0.080446,-0.22302600000000003,1.06215
844,-38.69688,-1.647974,-5.737392,0.054932,-0.198489,1.07863
846,-45.410849,1.159686,-10.254063,0.002564,0.028808999999999998,0.941909
848,-109.681849,5.554284,-16.052491,0.010131999999999999,0.262821,0.866957
850,-228.15289500000003,-7.751583,-34.241245,0.038087,0.100221,0.602548
852,-469.67269400000004,-32.166018,-29.297321999999998,0.061036,0.428962,1.202289
854,-663.950561,-107.057298,2.80766,-0.026246,-0.393317,1.405051
856,-787.853819,-117.860685,78.553445,-0.004883,-2.0000310000000003,1.9999689999999999
858,178.103304,-39.673457,-40.466926,-0.351446,0.694102,1.9999689999999999
860,-6.103609,17.029068,-5.61532,-0.579599,0.882948,1.202899
862,100.404364,23.682002,-5.249104,-0.11804400000000001,0.394781,0.061158000000000004
864,28.0766,10.193027,-5.0049589999999995,0.022461000000000002,0.244633,0.591196
866,67.505913,1.70901,-19.470512,0.038819,0.454719,0.8807510000000001
868,126.466773,0.9155409999999999,-30.151827,-0.034913,0.43628599999999995,1.148943
870,173.76974099999998,11.718929,-32.166018,-0.14416700000000002,0.24683000000000002,1.108049
872,204.959182,30.334936,-23.804074,-0.249027,0.053712,1.027726
874,228.39704,45.410849,-4.5166699999999995,-0.274907,-0.11133,1.154192
876,249.82070699999997,52.368963,14.282444,-0.062379,-0.19067699999999999,1.2018010000000001
878,261.17341899999997,56.275273,11.718929,0.249271,-0.282597,1.1266040000000002
880,255.802243,54.566262,-6.897078,0.44715,-0.295903,1.307515
882,254.886702,53.406577,-31.006332,0.4065,-0.36841399999999996,1.579736
884,264.22522299999997,55.237658999999994,-44.556344,0.190921,-0.446906,1.6793470000000001
886,264.10315099999997,52.73518000000001,-45.349813,0.113283,-0.491951,1.588891
888,246.829938,62.745098,-47.119859999999996,0.130129,-0.538216,1.631373
890,233.707179,67.750057,-51.209277,0.172976,-0.500984,1.836698
892,228.15289500000003,71.656367,-55.237658999999994,0.12414700000000001,-0.512459,1.818143
894,212.649729,68.421454,-46.387427,-0.102663,-0.664805,1.7171889999999999
896,192.50782,77.02754300000001,-25.085832,-0.216678,-0.992081,1.7967799999999998
898,171.694514,97.474632,-0.183108,0.004517,-1.59585,1.680934
900,137.57534099999998,133.97421200000002,9.277485,0.47803500000000004,-2.0000310000000003,1.55227
902,123.53704099999999,186.83146399999998,16.906996,0.453254,-2.0000310000000003,-1.014054
904,-58.167391,-17.273213000000002,79.22484200000001,0.463142,-1.780301,-0.9956209999999999
906,-211.79522400000002,-184.267948,18.005646,1.840116,-1.056901,0.544076
908,-94.30075500000001,-138.490883,-8.42298,-0.19324000000000002,0.9506979999999999,1.973541
910,-230.533303,-81.300069,15.991454999999998,-0.928847,-0.018189,-0.715831
912,-341.557946,-111.94018500000001,54.44419,0.8653700000000001,-0.184817,1.9999689999999999
914,-153.933013,-16.296635000000002,-5.065995,0.776501,-0.203006,1.9999689999999999
916,-142.27512,-48.584726,36.865797,-1.160906,-1.095232,1.778103
918,-62.073701,-73.548486,29.968719,1.820829,0.21301599999999998,1.9999689999999999
920,-34.302281,7.080186,9.704738,-0.976333,-0.202152,0.61915
922,-30.334936,-26.062409,-0.30518,0.484138,0.07434199999999999,1.2363469999999999
924,-24.048219,-17.151141,-1.525902,-0.001343,-0.040162,1.1239190000000001
926,-11.291675999999999,2.136263,1.159686,-0.014159999999999999,-0.0542,1.1106129999999999
928,-6.958114,3.418021,2.685588,0.036988,0.034546,1.007218
930,-7.751583,1.953155,2.197299,-0.018067,0.01001,1.002213
932,-6.958114,1.281758,1.2207219999999999,-0.036133,-0.002686,0.997818
934,-8.667124000000001,-0.48828900000000003,0.671397,-0.018921,0.004883,1.007462
936,-7.080186,0.6103609999999999,1.09865,-0.0037840000000000005,-0.007201999999999999,1.018448
938,-7.568475,1.09865,1.159686,-0.010742,-0.000488,1.001358
940,-7.385367,0.793469,0.671397,-0.024291999999999998,0.001831,0.979873
942,-10.254063,-1.647974,0.854505,-0.006836,-0.0028079999999999997,1.012589
944,-11.047532,1.342794,1.586938,-0.01001,-0.024291999999999998,1.026383
946,-9.765774,4.028382,2.746624,-0.0074459999999999995,-0.028199000000000002,1.030777
948,-7.507439,3.967346,3.051804,-0.038209,-0.015503,0.976089
950,-8.1178,-0.549325,2.2583349999999998,-0.049073,-0.023438,0.977432
952,-4.272526,-4.760815,1.70901,-0.027955,-0.055542999999999995,0.952773
954,-5.493248,-6.836042,0.976577,-0.020386,-0.021241,0.996597
956,-7.934691,-7.629511,1.037613,-0.001709,-0.025147,0.9984280000000001
958,-5.554284,-10.254063,2.197299,0.056397,0.018433,0.8070189999999999
960,-7.507439,-8.728161,0.30518,-0.016968,-0.041627,1.0236969999999999
962,-11.047532,-7.507439,0.732433,-0.015503,-0.019653999999999998,0.9633940000000001
964,-16.296635000000002,-6.836042,0.48828900000000003,-0.053101,-0.011963,1.156634
966,-24.048219,-8.911269,1.342794,-0.006958,-0.03003,0.959976
968,-31.067369,-9.887846000000001,1.464866,-0.001831,-0.074464,1.021744
970,-24.048219,-7.01915,1.159686,-0.000366,-0.07470800000000001,1.034562
972,-20.508125,-5.065995,1.8921189999999999,0.014159999999999999,-0.07800399999999999,0.99855
974,-22.644388,-2.4414439999999997,3.051804,-0.029907999999999997,-0.065675,0.9834129999999999
976,-32.715343,-2.929732,1.525902,-0.033204000000000004,-0.03772,0.949966
978,-43.21355,-5.676356,0.732433,0.025025,-0.083864,0.972549
980,-42.847333,-5.7984279999999995,1.09865,0.043946,-0.14331300000000002,0.9316549999999999
982,-46.997787,-10.681315,-1.8921189999999999,-0.10278499999999999,-0.203494,1.043351
984,-54.016938,-10.864424,-11.23064,0.017212,-0.200931,1.064103
986,-50.476844,-7.385367,-6.652933999999999,0.051637,-0.143557,1.031266
988,-76.78339799999999,-4.8218510000000006,-14.831769,0.005371,0.10925499999999999,0.8772110000000001
990,-163.02739,-1.09865,-19.775692000000003,0.024413999999999998,0.366217,0.8562139999999999
992,-205.081254,-18.921187,-21.789883,-0.11767799999999999,0.6735939999999999,1.2802930000000001
994,-583.138781,-29.17525,20.996414,-0.232792,0.342901,1.9999689999999999
996,-733.9589530000001,-76.90547,35.767146999999994,-0.224369,-0.16552999999999998,0.8913709999999999
998,-734.996567,-89.784085,131.77691299999998,-1.1103690000000002,-0.305058,1.9999689999999999
1000,294.132906,-49.378195,-21.728847000000002,-0.652964,0.7577020000000001,1.9999689999999999
1002,-13.611048,-24.353399,43.823910999999995,-0.356085,0.094606,0.646616
1004,67.383841,0.793469,14.404517000000002,-0.075196,0.442267,-0.12195
1006,65.980011,-0.48828900000000003,2.136263,0.004883,0.34741700000000003,0.560555
1008,81.72732099999999,-12.451362,-9.82681,-0.010986,0.372442,0.996719
1010,132.631418,-17.029068,-20.080873,-0.074464,0.374395,1.309834
1012,193.667506,-1.647974,-26.428626,-0.173953,0.20740100000000003,1.276753
1014,231.08262799999997,16.906996,-21.850919,-0.275395,-0.014159999999999999,1.064958
1016,248.53894900000003,24.902724,-5.981537,-0.293584,-0.14636500000000002,1.030167
1018,265.99527,22.1561,8.850233,-0.207889,-0.186404,1.1935
1020,276.43244100000004,34.79057,11.413748,-0.01294,-0.20703400000000002,1.293599
1022,269.474327,67.07866,0.427253,0.093019,-0.447272,0.975601
1024,234.500649,79.285878,-4.8218510000000006,0.10779000000000001,-0.46619399999999994,0.984634
1026,201.41908899999999,60.425727,-10.620279,0.17773699999999998,-0.285527,1.7445330000000001
1028,222.23239500000003,61.951629000000004,-22.705425,0.16492,-0.406989,1.9999689999999999
1030,267.826352,65.980011,-27.710384,0.023072,-0.5850920000000001,1.9999689999999999
1032,294.804303,59.388113,-24.475471,0.09362899999999999,-0.734142,1.969757
1034,276.43244100000004,68.909743,-24.292363,0.154177,-0.785779,1.592798
1036,251.895933,60.425727,-30.762188000000002,0.167483,-0.841932,1.637842
1038,222.354467,76.050965,-43.335622,0.116335,-1.206073,1.341573
1040,165.10261699999998,106.69108100000001,-52.613108,0.413092,-2.0000310000000003,1.241352
1042,115.35820600000001,172.487984,-50.598917,0.45374200000000003,-2.0000310000000003,-0.019043
1044,0.671397,54.993515,1.7700470000000001,0.11499200000000001,-2.0000310000000003,-1.206073
1046,-168.33753000000002,-164.24811200000002,37.659265999999995,0.599985,-1.749783,-0.939467
1048,-170.412757,-177.615015,25.940337,0.035401,0.124269,1.9900209999999998
1050,-173.098344,-93.202106,42.90837,-0.6670020000000001,0.352544,1.096941
1052,-271.976806,-103.212024,66.83451600000001,0.63331,-0.176516,0.830335
1054,-221.988251,-46.753643,28.198672,1.6753189999999998,-0.042359,1.9999689999999999
1056,-153.50576,17.822538,-21.05745,-0.6890970000000001,-0.316777,1.839384
1058,-80.384527,-108.155947,49.561303,-0.6204930000000001,-0.548959,1.0984049999999999
1060,-34.912642,-12.512398,-2.868696,1.141497,-0.124025,1.487694
1062,-42.847333,-30.762188000000002,9.948882000000001,-0.08484,-0.076051,1.111467
1064,-42.053864000000004,-4.943923000000001,0.061036,-0.133181,-0.100587,1.2213319999999999
1066,-3.6621650000000003,-19.531548,-3.723201,0.152224,0.080079,0.9431299999999999
1068,-7.568475,-12.207218,1.2207219999999999,-0.033569999999999996,-0.028443,1.03566
1070,-14.648660999999999,-8.300908,2.380407,0.03772,0.015015,0.9939120000000001
1072,-14.587625,-6.958114,2.746624,0.038697,0.019165,1.0053860000000001
1074,-13.855192,-4.394598,1.70901,0.012451,-0.02295,1.0309
1076,-16.906996,-4.943923000000001,1.586938,0.010986,-0.0177,0.997208
1078,-18.432898,-3.479057,1.70901,0.029907999999999997,-0.017456,1.028458
1080,-15.442129999999999,-2.624552,2.014191,0.018067,-0.027955,1.013931
1082,-15.075914000000001,-2.929732,3.051804,0.0008550000000000001,0.020263999999999997,0.975601
1084,-15.747310999999998,-4.577707,1.8921189999999999,0.020386,-0.045167,1.0048979999999998
1086,-13.611048,-4.8218510000000006,1.40383,0.017823,-0.046143,1.019547
1088,-14.770732999999998,-5.676356,1.647974,0.015991,-0.031617,0.9902489999999999
1090,-16.174563,-6.469825,0.793469,0.011231,-0.054077999999999994,1.011124
1092,-13.977264000000002,-5.981537,0.366217,0.030396,-0.083742,1.009781
1094,-12.32929,-5.0049589999999995,0.122072,0.032837,-0.080201,1.030411
1096,-10.070953999999999,-4.089418,0.671397,0.032837,-0.064332,0.9941559999999999
1098,-12.024109,-3.723201,1.2207219999999999,0.042969,-0.06286699999999999,1.001968
1100,-13.855192,-1.525902,1.40383,0.022338999999999998,-0.056275,0.992813
1102,-18.188754,-1.281758,1.464866,0.0058590000000000005,-0.060913999999999996,0.9720610000000001
1104,-20.752270000000003,-1.647974,1.8310830000000002,0.029541,-0.080568,1.004532
1106,-21.972992,-1.647974,1.70901,0.038819,-0.102663,1.007706
1108,-22.583351999999998,-0.6103609999999999,1.586938,0.01709,-0.09485,0.949722
1110,-27.283131,1.586938,2.685588,0.015015,-0.07800399999999999,0.9969629999999999
1112,-28.442816999999998,5.0049589999999995,7.263294,0.037354000000000005,-0.107179,1.01149
1114,-33.447776,6.530861,8.300908,-0.004517,-0.081788,1.0000149999999999
1116,-40.466926,3.845274,3.356985,-0.017456,-0.105715,0.996353
1118,-43.762875,-0.793469,-4.455634,-0.022095,-0.134768,1.0011139999999998
1120,-53.833829,-3.295949,-10.193027,0.047852,-0.256352,1.001358
1122,-26.67277,-3.356985,-5.371176,0.07055800000000001,-0.237186,1.071305
1124,-24.658579,-1.70901,-9.216449,0.025025,0.015503,0.996231
1126,-87.403677,5.432212,-17.822538,-0.012329000000000001,0.20972,1.0637370000000002
1128,-226.19974100000002,-3.173877,-46.814679,0.006104,0.1991,0.718761
1130,-490.73014400000005,-39.856565,-48.52369,-0.18725899999999998,0.354986,1.644312
1132,-746.8375679999999,-165.34676100000001,19.958801,0.09399600000000001,-0.40369299999999997,1.49575
1134,-955.3368429999999,-127.321279,186.648356,-1.045792,-1.402976,1.9999689999999999
1136,279.667353,-7.6905470000000005,4.8218510000000006,-0.445075,0.54725,1.9999689999999999
1138,-80.262455,17.029068,87.953002,-0.45557299999999995,0.484138,0.937148
1140,84.16876500000001,-2.197299,54.932479,0.195071,0.581796,0.050782
1142,22.1561,-20.080873,31.433584999999997,0.553964,0.401007,0.803723
1144,70.435645,-31.494621000000002,-13.794156,0.42761899999999997,0.572274,1.0199129999999998
1146,137.087053,-39.673457,-44.068055,0.172976,0.472786,1.118059
1148,181.27718000000002,-23.071641,-55.970092,-0.096925,0.24890500000000002,1.0116120000000002
1150,211.062791,-4.5166699999999995,-45.838102,-0.31543499999999997,0.036866,0.8999159999999999
1152,231.021592,8.178836,-21.667811,-0.3888,-0.06421,1.066423
1154,255.74120699999997,21.972992,1.7700470000000001,-0.29077600000000003,-0.12573399999999998,1.199115
1156,275.27275499999996,27.649348,15.320058,-0.106081,-0.146731,1.310933
1158,289.005875,34.912642,9.155413000000001,0.112062,-0.217533,1.350607
1160,280.76600299999996,60.730906999999995,-10.437171000000001,0.200076,-0.45215500000000003,1.235615
1162,248.599985,81.23903299999999,-27.588312,0.181033,-0.544564,1.016617
1164,203.311208,71.107042,-30.884259999999998,0.204959,-0.408698,1.960723
1166,243.35088100000002,53.345541000000004,-41.504540000000006,0.261357,-0.5694670000000001,1.9999689999999999
1168,261.78378,61.890593,-54.627297999999996,0.124758,-0.677623,1.9999689999999999
1170,282.291905,63.904784,-55.481804000000004,0.052247,-0.819837,1.9829400000000001
1172,266.17837799999995,69.642176,-48.462654,0.088502,-0.853773,1.6745860000000001
1174,241.092546,77.821012,-50.659953,0.255985,-0.9317770000000001,1.6021969999999999
1176,208.377203,93.385214,-58.472572,0.28186500000000003,-1.3232620000000002,1.3652549999999999
1178,155.153735,113.954376,-62.928206,0.525154,-2.0000310000000003,1.188373
1180,103.639277,162.478065,-67.811093,0.544198,-2.0000310000000003,0.033082
1182,-7.6905470000000005,58.04531899999999,-12.573433999999999,0.116579,-2.0000310000000003,-0.935317
1184,-92.59174499999999,-100.770581,44.678416,0.012695999999999999,-1.257954,0.665049
1186,-152.956436,-130.251011,56.94667,-0.19372899999999998,0.948257,1.844999
1188,-131.77691299999998,-111.085679,47.852292999999996,-0.775158,0.839612,0.292973
1190,-266.239414,-98.817426,78.248264,0.34375500000000003,-0.295415,0.6530859999999999
1192,-207.217517,-54.016938,39.673457,1.99942,0.153201,1.9999689999999999
1194,-140.688182,26.733806,-30.029754999999998,0.37146599999999996,0.068727,1.802518
1196,-135.805295,18.616007,19.958801,-1.926177,-0.440558,1.939727
1198,-55.054551000000004,-84.534981,44.434272,0.489754,0.406744,1.520653
1200,-46.387427,-40.650034000000005,15.564201999999998,-0.132448,-0.017334,1.5987790000000002
1202,-19.65362,-70.679789,5.371176,0.317144,0.165042,1.266499
1204,-21.179522,-23.071641,2.014191,-0.08105599999999999,-0.014282,1.115129
1206,-22.827497,-23.86511,-0.122072,0.165774,0.08215499999999999,1.02211
1208,-19.104295,-1.8310830000000002,4.577707,0.009766,0.005371,1.065324
1210,-17.578393,7.9957270000000005,4.699779,-0.026123,0.046632,1.0477450000000001
1212,-20.630198,10.681315,1.647974,0.002564,0.0177,0.8798959999999999
1214,-24.109254999999997,5.188067,1.464866,-0.08215499999999999,0.036378,1.023331
1216,-26.001373,2.746624,0.48828900000000003,-0.016236,0.009033,1.043839
1218,-20.752270000000003,5.0049589999999995,2.014191,0.005249,-0.011597,1.022354
1220,-17.639429,4.21149,2.80766,-0.017578,-0.008667,1.025772
1222,-15.991454999999998,1.647974,2.014191,-0.037232,-0.015503,0.981216
1224,-15.075914000000001,-1.2207219999999999,-0.244144,-0.039063,0.127565,1.251484
1226,-17.517357,-4.8218510000000006,1.159686,-0.01001,-0.06482,0.971817
1228,-11.047532,-2.80766,1.464866,0.012573,-0.054322,1.0796059999999998
1230,-5.432212,-1.8921189999999999,0.976577,-0.031495,-0.016724,0.973159
1232,-7.141222,-5.127031,0.549325,-0.020386,-0.045167,1.018936
1234,-4.577707,-3.967346,-0.122072,-0.003418,-0.0031739999999999997,1.076432
1236,-5.981537,-4.8218510000000006,0.976577,0.0023190000000000003,-0.037232,0.97731
1238,-8.056764,-4.638743,1.037613,-0.000122,-0.052735000000000004,1.000748
1240,-9.277485,-3.6011290000000002,1.09865,0.004517,-0.073976,1.0008700000000001
1242,-11.291675999999999,-3.418021,2.075227,-0.018433,-0.036378,0.984512
1244,-17.456321,-5.0049589999999995,2.80766,0.011597,-0.026489999999999996,0.986099
1246,-27.100022999999997,-5.249104,3.784237,0.022461000000000002,-0.040284,1.0156399999999999
1248,-29.053178000000003,-2.563516,4.8218510000000006,0.019653999999999998,-0.045777,0.99379
1250,-30.273899,-0.854505,5.554284,0.0031739999999999997,-0.056886,0.99379
1252,-35.461967,-0.48828900000000003,6.042573,-0.050782,-0.054688,0.9904940000000001
1254,-37.354085999999995,-0.183108,6.347753,-0.003418,-0.067994,1.01442
1256,-35.461967,-2.136263,3.051804,0.0074459999999999995,-0.072755,1.028214
1258,-45.471885,-5.249104,-1.159686,-0.020508000000000002,-0.116701,1.001846
1260,-45.777066,-12.817578,-10.376135000000001,-0.0542,-0.060548000000000005,1.06508
1262,-41.565576,-9.338521,-4.638743,0.004761,-0.08984500000000001,0.9873200000000001
1264,-59.021896999999996,-10.437171000000001,-13.916228,0.03418,-0.11303900000000001,1.0118559999999999
1266,-80.079347,-11.352712,-23.498894,0.089601,0.091554,0.807874
1268,-179.018845,-11.169604,-24.048219,0.084352,0.075929,1.054582
1270,-283.329519,-10.925460000000001,-35.706111,-0.055421000000000005,0.7462270000000001,1.0047760000000001
1272,-622.995346,-6.225681,5.61532,-0.16211199999999998,0.059327,1.246967
1274,-781.200885,-23.254749,35.034714,-0.251225,-0.48389399999999994,1.17763
1276,-361.943999,-59.75433,57.312886,-1.511131,-1.8178990000000002,1.9999689999999999
1278,159.365225,-40.466926,18.677042999999998,-0.02417,0.81593,1.430442
1280,-8.667124000000001,-35.400931,78.61448100000001,0.370977,0.139284,0.7528189999999999
1282,18.066682,-7.934691,16.113526999999998,0.613046,0.558846,0.21741100000000002
1284,52.002747,-15.259022,-30.457008000000002,0.41358100000000003,0.548836,0.702281
1286,84.351873,-44.068055,-54.077974,0.13000699999999998,0.43994799999999995,1.096818
1288,140.016785,-52.002747,-62.317845,-0.14868399999999998,0.373419,1.4023649999999999
1290,202.151522,-34.180209000000005,-55.90905600000001,-0.403326,0.145266,1.238178
1292,234.37857599999998,-9.216449,-34.912642,-0.530404,-0.082277,0.901503
1294,243.35088100000002,4.760815,-6.71397,-0.464729,-0.133913,0.953384
1296,260.99031099999996,6.042573,11.413748,-0.23865100000000003,-0.10192999999999999,1.368917
1298,288.883803,22.766461,7.934691,0.016114,-0.187625,1.397604
1300,284.30609599999997,47.42504,-9.399557000000001,0.117556,-0.431159,0.8969860000000001
1302,245.120928,64.881361,-18.005646,0.12854200000000002,-0.442512,1.005509
1304,215.39635299999998,57.618067,-26.428626,0.19861099999999998,-0.281254,1.773098
1306,225.162127,62.378882,-39.185168,0.176028,-0.355352,1.9999689999999999
1308,244.632639,69.336996,-50.476844,0.105348,-0.589487,1.9999689999999999
1310,249.14931,71.046006,-56.153201,0.066041,-0.73817,1.9999689999999999
1312,261.23445499999997,78.248264,-61.707485,0.195193,-0.827405,1.839261
1314,236.942092,95.277333,-69.092851,0.309575,-0.874525,1.4619360000000001
1316,202.761883,98.023957,-64.51514499999999,0.189822,-1.066056,1.517479
1318,185.18348999999998,68.055238,-42.1149,0.147951,-1.5747309999999999,1.2954299999999999
1320,136.47669199999999,62.073701,-26.428626,0.648569,-2.0000310000000003,0.962173
1322,93.75143100000001,80.445563,-37.415122,0.583505,-2.0000310000000003,-0.47180900000000003
1324,-49.378195,-17.212177,3.234913,-0.012451,-1.88687,-0.154421
1326,-156.862745,-134.096284,28.503853000000003,-0.195071,-1.522484,-0.488899
1328,-105.53139499999999,-90.394446,40.772107,-0.208988,0.504158,1.702907
1330,-242.130159,-116.76203600000001,62.378882,0.082399,0.14685299999999998,-0.347051
1332,-304.325933,-65.430686,54.44419,1.347677,-0.029786,1.9999689999999999
1334,-170.778973,24.902724,-19.714656,0.8372930000000001,-0.208499,1.9999689999999999
1336,-171.38933400000002,-20.813306,35.706111,-1.9436330000000002,-1.36965,1.553246
1338,-70.862898,-111.329824,45.532921,1.7915310000000002,0.599008,1.9999689999999999
1340,-41.931792,-13.611048,11.413748,-1.003922,-0.12842,0.8576790000000001
1342,-41.443503,-47.913329,-1.281758,0.625376,0.12146199999999999,1.428977
1344,-34.058137,-27.283131,-1.586938,-0.026123,-0.02417,1.180926
1346,-19.104295,-1.037613,-0.732433,0.014282,0.005493,1.107317
1348,-16.906996,5.737392,1.7700470000000001,0.058227999999999995,0.01294,1.0512860000000002
1350,-13.061722999999999,9.643702000000001,2.4414439999999997,0.034546,-0.020996,1.065568
1352,-12.146181,12.817578,2.685588,-0.038452999999999994,-0.005982,1.0053860000000001
1354,-9.887846000000001,10.315099,2.563516,-0.0177,-0.030518,1.035172
1356,-5.493248,7.324331,2.563516,-0.04358,-0.029907999999999997,1.021988
1358,-0.6103609999999999,2.868696,1.7700470000000001,-0.053346000000000005,-0.00647,0.9674219999999999
1360,-0.6103609999999999,-3.234913,0.793469,-0.046754000000000004,-0.003296,0.965469
1362,-2.319371,-6.836042,0.793469,-0.022095,-0.004517,0.9830469999999999
1364,-4.760815,-6.042573,1.2207219999999999,-0.024413999999999998,-0.001221,0.9867090000000001
1366,-6.775005999999999,-5.981537,-0.30518,-0.050294,-0.008667,1.087907
1368,-10.986496,-11.413748,0.9155409999999999,-0.028199000000000002,-0.015381,0.954849
1370,-10.498207,-11.902037,-2.868696,-0.07946900000000001,-0.132448,0.912734
1372,-12.085144999999999,-14.282444,0.793469,-0.017578,-0.032105,1.035172
1374,-11.535821,-13.122759,0.854505,0.006226,-0.033448,1.018692
1376,-8.789197,-7.263294,-0.732433,0.172976,-0.255497,0.5886319999999999
1378,-7.568475,-7.324331,2.2583349999999998,0.00293,-0.030274000000000002,1.025895
1380,-6.530861,-7.385367,1.464866,0.0008550000000000001,-0.055665,0.972793
1382,-9.704738,-8.789197,0.793469,0.014159999999999999,-0.018921,0.985
1384,-12.32929,-8.850233,0.0,0.033936,-0.055787,0.9754790000000001
1386,-17.94461,-8.667124000000001,0.30518,0.017823,-0.016602000000000002,0.946426
1388,-23.254749,-8.728161,0.183108,0.026856,-0.053467999999999995,1.016983
1390,-22.888533,-5.737392,1.464866,0.032227,-0.07800399999999999,1.0512860000000002
1392,-17.94461,-2.990768,3.356985,0.033936,-0.052490999999999996,1.024308
1394,-21.179522,-3.1128400000000003,4.333562000000001,0.041749,-0.03003,0.966201
1396,-36.621653,-6.591897,2.990768,0.034424,-0.024048,0.9752350000000001
1398,-45.105669,-9.216449,2.136263,0.022583000000000002,-0.075074,1.006241
1400,-48.096437,-5.3101400000000005,-0.122072,0.0023190000000000003,-0.06286699999999999,0.9897610000000001
1402,-52.552071,-10.681315,-8.972305,0.014527000000000002,-0.183474,1.067399
1404,-45.288777,-6.958114,-8.789197,0.13196,-0.181399,1.120989
1406,-50.782025,7.2022580000000005,-0.854505,0.04712,-0.078614,0.969131
1408,-94.728008,12.451362,-7.263294,-0.001831,0.33557600000000004,0.811902
1410,-245.243,10.559242999999999,-12.207218,0.12732100000000002,-0.20264000000000001,0.6869
1412,-398.504616,-28.625925,-7.6905470000000005,-0.024537,0.393072,1.586938
1414,-659.6780349999999,-116.639963,40.772107,-0.007935,-0.28870100000000004,0.9299459999999999
1416,-802.258335,-127.38231499999999,103.334096,-0.132448,-2.0000310000000003,1.9999689999999999
1418,-17.029068,-70.55771700000001,32.959487,-0.43079300000000004,-0.518563,1.9999689999999999
1420,42.298009,19.409476,34.058137,-0.195926,0.910903,1.999542
1422,79.285878,11.718929,59.815366000000004,0.180789,0.278935,0.697398
1424,17.761501000000003,16.357671,29.419394,0.43799499999999997,0.41272600000000004,0.366827
1426,71.534295,14.648660999999999,-14.343481,0.30249499999999996,0.530648,0.660533
1428,116.151675,-28.259709,-33.997101,0.12854200000000002,0.44214499999999995,0.979751
1430,156.740673,-37.170977,-47.73022,-0.010986,0.36585,1.300435
1432,210.45243,-12.451362,-53.589684999999996,-0.20325,0.182498,1.42678
1434,259.586481,2.014191,-43.701839,-0.31091799999999997,-0.011963,1.2603950000000002
1436,287.3579,7.141222,-25.696193,-0.278935,-0.14538800000000002,1.181781
1438,300.419623,6.836042,-12.390326,-0.083497,-0.20923200000000003,0.968887
1440,288.273442,15.503166,-19.409476,0.11718900000000002,-0.292363,0.743542
1442,244.754711,43.640803000000005,-34.363316999999995,0.13196,-0.335088,0.9028459999999999
1444,217.288472,45.227740999999995,-41.504540000000006,0.038941,-0.188113,1.549584
1446,217.410544,64.393072,-38.391698999999996,-0.034668,-0.289799,1.9999689999999999
1448,265.99527,78.248264,-30.518044,-0.023438,-0.553109,1.9999689999999999
1450,265.079728,64.209964,-23.315785,0.195193,-0.723522,1.9999689999999999
1452,271.854734,71.046006,-46.448463000000004,0.585458,-0.8299690000000001,1.8492709999999999
1454,253.72701600000002,78.248264,-74.341955,0.510872,-0.977188,1.618555
1456,220.828565,79.59105799999999,-74.280919,0.178958,-1.345968,1.346334
1458,180.605783,53.162431999999995,-41.077287,0.07531900000000001,-1.960357,1.0637370000000002
1460,122.072175,43.396658,-22.46128,0.6687109999999999,-2.0000310000000003,0.56202
1462,55.84802,67.383841,-46.692607,0.398444,-2.0000310000000003,-0.0177
1464,-34.973678,2.136263,0.549325,-0.467659,-2.0000310000000003,0.006836
1466,-210.33035800000002,-177.798123,45.899138,0.483284,-0.642466,1.604028
1468,-136.903944,-44.068055,48.340581,-0.805554,1.2133969999999998,0.778454
1470,-285.282673,-112.79468999999999,67.444877,0.561044,-0.255741,0.549325
1472,-261.295491,-65.796902,42.298009,1.777249,-0.190921,1.9999689999999999
1474,-178.286412,-16.418708,19.714656,-1.511986,-0.038452999999999994,1.9999689999999999
1476,-29.846646999999997,-99.000534,4.394598,1.179583,-0.08069,1.9999689999999999
1478,-59.571220999999994,2.685588,10.070953999999999,-0.6049899999999999,-0.033936,0.8285040000000001
1480,-32.410163,-32.959487,-4.272526,0.452399,-0.018799,1.293355
1482,-22.522316,-22.766461,-0.122072,-0.014649,-0.069215,1.142107
1484,-18.432898,-15.259022,-0.122072,0.06713999999999999,0.042237000000000004,1.097551
1486,-8.606088,-3.6011290000000002,0.9155409999999999,0.089357,0.019532,1.021622
1488,-13.794156,6.225681,4.455634,0.035157,-0.009155,1.022721
1490,-14.221407999999998,7.751583,4.699779,-0.020874,-0.006592,1.004166
1492,-11.841001,3.6011290000000002,3.479057,-0.0074459999999999995,0.043336,1.0129549999999998
1494,-10.559242999999999,1.70901,2.685588,0.002075,-0.008423,1.016617
1496,-9.216449,1.159686,2.563516,0.006836,-0.01355,1.010513
1498,-6.836042,0.9155409999999999,2.319371,0.01001,-0.003296,1.027359
1500,-3.418021,0.732433,1.586938,0.004639,-0.03125,1.00148
1502,-2.624552,-1.7700470000000001,0.9155409999999999,-0.019165,0.0031739999999999997,0.926894
1504,-10.131991000000001,-7.385367,0.0,-0.002564,-0.01294,0.977554
1506,-12.451362,-8.789197,-0.244144,0.0177,-0.02295,1.003067
1508,-11.596857,-7.873655,-0.854505,0.028931000000000002,-0.031373000000000005,1.001236
1510,-11.718929,-7.324331,-0.427253,0.011353,-0.036378,0.984024
1512,-13.305867000000001,-8.1178,-0.9155409999999999,0.020752,-0.036622,0.996719
1514,-14.587625,-5.981537,-0.427253,0.047242,-0.06274500000000001,1.026139
1516,-13.183795000000002,-1.525902,0.854505,0.044312,-0.053101,1.038956
1518,-12.63447,0.671397,1.70901,0.026856,-0.042237000000000004,1.007218
1520,-15.320058,0.671397,1.342794,0.026733999999999997,-0.045655,0.9741360000000001
1522,-17.212177,-0.6103609999999999,0.732433,0.023804,-0.025879000000000003,0.9751129999999999
1524,-21.728847000000002,-1.525902,0.671397,0.027710000000000002,-0.034302,0.961563
1526,-27.466239,-1.464866,0.244144,0.0365,-0.07470800000000001,0.9510639999999999
1528,-30.457008000000002,2.197299,4.577707,0.055299,-0.077638,1.105608
1530,-28.564889,7.446403,7.385367,-0.005615,-0.098878,1.0040440000000002
1532,-33.020523,5.859464,6.103609,-0.020142,-0.080568,1.006241
1534,-36.560615999999996,1.037613,-0.427253,-0.000244,-0.09472799999999999,1.00441
1536,-32.288090000000004,0.6103609999999999,-1.647974,-0.010620000000000001,-0.10803399999999999,1.036637
1538,-49.744411,-4.8218510000000006,-14.831769,0.06347799999999999,-0.305058,1.114641
1540,-23.987182,0.9155409999999999,-3.6011290000000002,0.040162,-0.242069,1.068864
1542,-10.254063,1.09865,-4.760815,0.096803,-0.0051270000000000005,1.024674
1544,-70.55771700000001,7.629511,-7.751583,0.0008550000000000001,0.179324,0.788708
1546,-180.605783,-2.2583349999999998,-17.090104999999998,-0.025391,0.326787,0.897841
1548,-311.589227,-25.26894,-34.607462,-0.064454,0.53138,1.046525
1550,-630.502785,-53.406577,35.706111,-0.220218,0.11718900000000002,1.303609
1552,-764.90425,-81.23903299999999,40.283818,-0.204227,-0.524788,1.874052
1554,-222.72068399999998,-24.658579,28.992141999999998,-0.9393450000000001,-1.1025559999999999,1.9999689999999999
1556,96.864271,23.315785,-31.738766,-0.411627,1.152361,1.5323719999999998
1558,-8.42298,-42.1149,58.228428,0.109865,0.229618,0.505745
1560,-2.014191,-46.875715,22.1561,0.287846,0.501106,0.541756
1562,51.209277,-15.503166,-15.320058,0.19263,0.573129,0.837781
1564,84.596017,-18.127717999999998,-31.555657,-0.11523599999999999,0.409308,1.00441
1566,130.312047,-34.607462,-26.245518,-0.26208899999999996,0.336919,1.209735
1568,181.887541,-21.911955,-18.310826000000002,-0.295171,0.211429,1.218524
1570,216.861219,6.591897,-7.751583,-0.24866100000000002,0.04358,1.1341729999999999
1572,240.238041,20.263981,4.333562000000001,-0.153079,-0.092653,0.991592
1574,251.834897,17.212177,12.390326,0.011840999999999999,-0.152102,1.051774
1576,261.84481600000004,19.043259,7.568475,0.11950899999999999,-0.190921,1.2992139999999999
1578,273.01442000000003,23.437858,-1.464866,0.096803,-0.300175,1.4457010000000001
1580,265.568017,35.278859000000004,-10.376135000000001,0.127199,-0.479988,1.324117
1582,239.62767999999997,46.936751,-20.569162,0.119631,-0.564706,1.4220190000000001
1584,210.635538,50.2327,-26.428626,0.124025,-0.526131,1.9999689999999999
1586,236.758984,40.833143,-41.80972,0.233646,-0.580819,1.9999689999999999
1588,247.623407,52.857252,-65.857939,0.173342,-0.6890970000000001,1.9999689999999999
1590,244.937819,64.759289,-78.187228,0.068971,-0.7901729999999999,1.624292
1592,224.18555,75.562676,-80.445563,0.175174,-0.766003,1.534081
1594,200.808728,89.662013,-80.5066,0.208988,-0.906508,1.493919
1596,182.61997399999998,82.887007,-65.857939,0.021363,-1.319356,1.165545
1598,138.490883,75.257496,-34.546426000000004,0.034668,-1.979644,1.0564129999999998
1600,96.681163,98.939498,-8.1178,0.167849,-2.0000310000000003,0.458137
1602,16.296635000000002,70.069429,38.635843,0.131472,-2.0000310000000003,-0.606699
1604,-75.19646,-51.63653,83.863584,0.268925,-1.64065,-0.810437
1606,-157.351034,-108.033875,48.157472999999996,0.370489,0.100587,1.859403
1608,-137.75845,-108.827344,33.813992999999996,-0.113527,1.104387,0.08984500000000001
1610,-316.28900600000003,-88.441291,43.945983,0.261967,-0.367315,0.722911
1612,-239.566644,-41.260395,22.705425,1.138323,-0.337407,1.9999689999999999
1614,-150.270848,17.395285,5.493248,-0.8606090000000001,-0.079957,1.9999689999999999
1616,-41.199359,-75.806821,42.969406,-0.387701,-0.26392,0.9002819999999999
1618,-50.720989,-37.781338,12.756542,0.9320209999999999,-0.032105,1.615869
1620,-43.945983,-49.256122999999995,10.376135000000001,-0.278202,0.025879000000000003,1.023331
1622,-49.744411,-23.682002,-0.244144,-0.037476,-0.011109,1.0706950000000002
1624,-28.137635999999997,-26.916915000000003,-3.845274,0.300908,-0.001831,1.169085
1626,-20.080873,-5.3101400000000005,1.8921189999999999,0.036255,-0.031495,1.096941
1628,-17.822538,4.638743,2.563516,0.031617,-0.008789,1.042741
1630,-15.075914000000001,4.943923000000001,2.685588,0.012206999999999999,-0.019043,1.0202790000000002
1632,-11.963073,1.7700470000000001,1.2207219999999999,-0.011353,-0.0008550000000000001,0.988052
1634,-11.718929,-1.953155,-0.244144,0.004883,0.042481,1.016861
1636,-13.427939000000002,-0.671397,0.183108,0.030274000000000002,-0.031495,1.019303
1638,-12.207218,1.70901,1.342794,0.008423,-0.011475,0.9871979999999999
1640,-12.817578,1.09865,2.197299,0.017823,-0.0043950000000000005,0.979751
1642,-15.014878,1.09865,1.8310830000000002,0.018433,-0.024291999999999998,1.012833
1644,-15.747310999999998,1.953155,1.70901,0.001221,-0.028564999999999997,0.997208
1646,-17.517357,3.295949,2.014191,0.023804,-0.055299,1.035172
1648,-14.221407999999998,4.21149,2.075227,-0.0070799999999999995,-0.048585,1.0188139999999999
1650,-10.742351,2.4414439999999997,1.647974,-0.009644,-0.058961,1.008682
1652,-8.850233,0.976577,1.342794,0.0,-0.052125,1.021012
1654,-7.446403,1.342794,0.732433,0.011840999999999999,-0.049561,1.001968
1656,-10.131991000000001,2.136263,1.037613,0.01001,-0.051514,1.003067
1658,-11.474784,3.173877,2.197299,-0.0037840000000000005,-0.059327,1.000992
1660,-10.254063,2.80766,2.80766,-0.00061,-0.067262,1.013443
1662,-11.352712,0.30518,1.8921189999999999,-0.020142,-0.065919,0.9903719999999999
1664,-11.352712,-2.685588,0.671397,0.008911,-0.056275,1.000381
1666,-14.221407999999998,-3.845274,0.48828900000000003,0.005249,-0.06884900000000001,0.993179
1668,-16.418708,-4.272526,-0.122072,0.009522,-0.045899,0.9758450000000001
1670,-21.240558,-3.418021,0.9155409999999999,0.013916,-0.081666,1.013931
1672,-23.010604999999998,-0.48828900000000003,4.089418,0.000732,-0.10815599999999999,1.026505
1674,-22.827497,-1.037613,5.065995,-0.027466,-0.049805,0.9317770000000001
1676,-31.738766,-5.981537,1.464866,-0.035279000000000005,-0.065187,0.95668
1678,-40.222782,-9.643702000000001,-1.586938,-0.011475,-0.088258,0.9973299999999999
1680,-41.504540000000006,-6.2867169999999994,-4.455634,-0.005249,-0.11230599999999999,0.9902489999999999
1682,-50.049592,-7.873655,-10.620279,-0.040772,-0.186893,1.025528
1684,-43.21355,-5.188067,-3.1128400000000003,0.06286699999999999,-0.216678,1.0622719999999999
1686,-35.09575,-3.173877,-3.479057,0.041505,-0.17773699999999998,1.049454
1688,-57.679103000000005,1.953155,-10.009917999999999,-0.003662,0.026001,0.932509
1690,-116.456855,1.7700470000000001,-9.704738,-0.061402,0.26306599999999997,0.918349
1692,-183.047227,-5.981537,-31.433584999999997,0.11609100000000001,0.409308,1.169818
1694,-482.49027199999995,-5.371176,-13.000687,-0.058961,0.131472,1.352071
1696,-661.570153,-49.317159000000004,31.311513,0.064088,-0.290898,1.309712
1698,-784.679942,-124.02533000000001,86.671244,0.627695,-2.0000310000000003,1.9999689999999999
1700,90.089265,-126.71091799999999,-26.428626,-0.086671,0.7215689999999999,1.9999689999999999
1702,59.14396899999999,-8.361944,-34.119172999999996,-0.034668,1.059464,1.5989010000000001
1704,114.747845,38.269627,-36.865797,-0.204715,0.21814299999999998,0.436408
1706,45.410849,10.620279,-18.982223,-0.201297,0.12268299999999999,0.30188400000000004
1708,93.934539,-17.578393,-8.42298,-0.124636,0.360113,0.62269
1710,132.021057,-27.588312,-7.568475,-0.027344,0.376837,1.163836
1712,178.591592,0.0,-22.095064,-0.017456,0.276738,1.241718
1714,223.697261,27.466239,-29.48043,-0.14941600000000002,0.076295,1.122942
1716,251.895933,38.879988,-19.958801,-0.180545,-0.091066,1.1393
1718,274.174105,31.311513,-3.051804,-0.105226,-0.178225,1.364523
1720,293.52254500000004,32.837415,0.244144,0.085939,-0.424567,0.922866
1722,244.266423,68.421454,-6.897078,0.204959,-0.57435,0.532235
1724,195.803769,41.870756,-12.695506,0.19555999999999998,-0.375128,1.3458459999999999
1726,193.667506,31.311513,-25.513085,0.288579,-0.372076,1.9999689999999999
1728,245.243,54.871443000000006,-51.148241,0.167605,-0.645518,1.841825
1730,220.950637,62.989242000000004,-51.63653,-0.10852200000000001,-0.9546040000000001,1.592676
1732,192.324712,75.562676,-38.941024,-0.158816,-0.9143209999999999,1.830716
1734,191.958495,105.714504,-35.278859000000004,0.019898,-0.8879530000000001,1.628931
1736,168.276493,135.19493400000002,-39.368276,0.171756,-0.860243,1.337667
1738,163.271534,113.09987,-32.959487,0.246342,-0.9107799999999999,1.7709009999999998
1740,192.385748,62.56199,-18.493935,0.265873,-1.174456,1.565332
1742,184.817273,42.359045,-4.21149,0.213504,-1.781643,0.749157
1744,123.10978899999999,39.429313,10.742351,0.243168,-2.0000310000000003,0.170657
1746,41.870756,35.400931,15.747310999999998,0.190921,-2.0000310000000003,-0.579721
1748,-166.567483,-106.32486499999999,57.129778,0.391241,-1.434348,-1.451804
1750,-92.896925,-111.81811200000001,17.883574,0.117433,1.01796,1.9999689999999999
1752,-238.52902999999998,-112.855726,38.269627,-0.269291,0.07128999999999999,-0.042237000000000004
1754,-284.061952,-86.671244,50.415808,0.553353,-0.306645,1.9999689999999999
1756,-158.571756,-10.376135000000001,4.577707,0.70753,-0.312871,1.9999689999999999
1758,-85.999847,-13.305867000000001,26.977951,-0.7265739999999999,-0.703014,1.5709469999999999
1760,-53.223468000000004,-39.124132,28.0766,0.7639279999999999,0.245243,1.636744
1762,-41.199359,-7.080186,10.193027,-0.476204,0.016968,1.092912
1764,-26.67277,-28.503853000000003,3.234913,0.273075,0.15613,1.209003
1766,-35.278859000000004,-21.545739,-1.037613,-0.185061,-0.026733999999999997,1.029313
1768,-28.381781,-17.273213000000002,-1.8310830000000002,0.131838,-0.026856,1.184344
1770,-19.043259,-2.929732,1.09865,0.028443,0.018921,1.0953540000000002
1772,-17.639429,1.037613,2.319371,-0.018189,0.009033,0.9969629999999999
1774,-15.991454999999998,0.244144,2.2583349999999998,0.007324,-0.014649,0.997818
1776,-15.197985999999998,-2.929732,2.685588,-0.042847,0.0,0.980728
1778,-14.770732999999998,-7.141222,1.8310830000000002,-0.018067,-0.018433,1.013443
1780,-12.817578,-9.704738,1.40383,-0.01709,-0.02356,0.999283
1782,-14.465553,-16.479744,0.671397,-0.066041,0.034546,0.988296
1784,-20.325017000000003,-22.034028,-0.427253,-0.001709,-0.060913999999999996,0.966934
1786,-20.141909,-20.263981,-1.159686,0.039185000000000005,-0.040772,1.014176
1788,-18.616007,-15.197985999999998,0.0,0.025391,-0.022583000000000002,1.002457
1790,-21.850919,-10.803388,1.342794,0.033814,-0.046508999999999995,1.0199129999999998
1792,-21.179522,-9.52163,1.2207219999999999,0.018067,-0.053712,1.026139
1794,-19.043259,-10.131991000000001,-0.366217,0.021485,-0.052490999999999996,0.985367
1796,-20.752270000000003,-10.193027,-1.09865,0.041749,-0.08569500000000001,1.035782
1798,-19.531548,-7.568475,-0.244144,0.027344,-0.062501,1.015885
1800,-14.892805,-6.103609,-0.244144,0.040284,-0.099733,1.04921
1802,-11.047532,-3.295949,0.30518,0.05359,-0.093263,1.014664
1804,-11.902037,-0.793469,1.037613,0.045655,-0.060913999999999996,0.979751
1806,-23.86511,0.48828900000000003,0.671397,0.038819,-0.069215,0.964981
1808,-24.414435,0.244144,0.793469,0.03772,-0.095705,1.006485
1810,-23.193713,0.793469,0.976577,0.04773,-0.11621300000000001,1.037613
1812,-22.034028,0.732433,1.09865,0.037354000000000005,-0.141604,1.0207680000000001
1814,-16.357671,-0.244144,0.0,0.031983,-0.14721900000000002,1.010147
1816,-11.841001,-1.70901,-0.183108,0.027587999999999998,-0.157717,1.015274
1818,-11.535821,-4.638743,-1.586938,0.022338999999999998,-0.124269,0.997208
1820,-10.131991000000001,-6.103609,-2.319371,0.05127,-0.135134,1.014054
1822,-10.742351,-4.699779,-2.075227,0.041138,-0.122438,1.005997
1824,-14.831769,-0.793469,0.793469,0.033448,-0.134035,1.008682
1826,-19.226368,2.685588,3.051804,0.053346000000000005,-0.128176,0.997574
1828,-23.071641,6.775005999999999,5.127031,0.051514,-0.166751,1.014054
1830,-20.325017000000003,8.1178,6.347753,0.046998000000000005,-0.177371,1.0095370000000001
1832,-16.296635000000002,7.751583,5.371176,0.037964,-0.194705,1.018082
1834,-12.63447,7.324331,3.356985,0.037110000000000004,-0.189334,1.023819
1836,-8.911269,7.2022580000000005,1.647974,0.045167,-0.197269,1.023819
1838,-6.042573,6.775005999999999,1.342794,0.019532,-0.178592,0.985367
1840,-5.371176,5.981537,2.014191,0.019532,-0.20556999999999997,1.01442
1842,-1.464866,6.652933999999999,1.09865,0.013184,-0.18493900000000002,1.0363930000000001
1844,1.40383,8.056764,0.366217,0.013793999999999999,-0.212894,1.031144
1846,0.366217,7.812619000000001,-1.40383,0.014038,-0.153811,0.9896389999999999
1848,-4.8218510000000006,6.042573,-3.173877,-0.013793999999999999,-0.143557,0.918227
1850,-18.066682,0.976577,-5.859464,-0.048829000000000004,-0.132204,0.8452280000000001
1852,-40.527962,-9.216449,-11.352712,0.033936,-0.19677999999999998,0.996231
1854,-40.344854,-7.934691,-10.681315,0.024291999999999998,-0.217777,0.969131
1856,-54.016938,-6.897078,-10.620279,0.036378,-0.118898,0.9754790000000001
1858,-71.656367,-2.685588,-8.239872,0.069093,-0.22388000000000002,1.0047760000000001
1860,-79.468986,2.624552,-9.82681,0.007201999999999999,-0.249516,0.995132
1862,-101.197833,-0.061036,-13.305867000000001,0.023804,-0.15674100000000002,0.9588770000000001
1864,-117.73861299999999,6.042573,-14.465553,0.050660000000000004,-0.21509099999999998,1.035416
1866,-150.209812,8.300908,-19.226368,0.142336,-0.16247799999999998,1.176043
1868,-145.693141,25.391012,-8.484016,-0.26392,0.313603,1.352071
1870,-48.218509000000005,-44.556344,2.746624,-0.6560159999999999,-0.412116,1.9999689999999999
1872,90.394446,-28.137635999999997,17.639429,-0.254643,0.284916,1.018326
1874,115.297169,-5.859464,16.968032,-0.039550999999999996,0.160891,0.62269
1876,113.588159,-4.21149,8.850233,0.040284,0.146975,0.945693
1878,136.842908,0.30518,-2.990768,0.008789,0.11194000000000001,1.015518
1880,153.627832,4.577707,-7.141222,-0.12487999999999999,0.007691,0.714
1882,149.355306,6.591897,-1.7700470000000001,-0.15246800000000002,-0.026978,0.734997
1884,147.158007,12.939651,4.699779,-0.119387,-0.005737,1.02504
1886,155.642023,12.085144999999999,7.507439,-0.015747,-0.024903,1.170916
1888,158.14450300000001,29.236286,6.469825,-0.045411,-0.153079,1.265888
1890,157.289998,39.124132,17.395285,-0.15845,-0.349004,1.11281
1892,137.94155800000001,49.134051,28.015564,-0.040772,-0.424567,0.831312
1894,99.977111,49.134051,28.015564,0.07434199999999999,-0.471321,0.485725
1896,-246.585794,-173.708705,39.673457,1.4431370000000001,-2.0000310000000003,0.9902489999999999
1898,-269.10811,14.282444,-1.525902,1.046036,-2.0000310000000003,1.9999689999999999
1900,218.75333799999999,18.127717999999998,-170.778973,0.687999,1.1899600000000001,-0.775036
1902,-266.30045,-43.152514000000004,53.467613,-0.195193,-0.565072,1.247089
1904,68.543526,-2.2583349999999998,-6.042573,0.191531,0.077882,0.9637600000000001
1906,1.70901,10.742351,3.723201,-0.276371,0.06482,0.9515530000000001
1908,-31.250477000000004,-12.390326,-1.464866,0.086793,-0.093385,1.1331959999999999
1910,-6.408789,-2.50248,0.732433,0.12573399999999998,-0.087892,1.146258
1912,-5.0049589999999995,-0.30518,0.30518,-0.022216999999999997,0.039429,0.9076069999999999
1914,-7.141222,-1.8310830000000002,-0.48828900000000003,0.042969,-0.055665,1.057877
1916,-2.990768,1.037613,0.30518,0.006836,-0.005493,0.9741360000000001
1918,-5.3101400000000005,-0.366217,-0.30518,0.006836,-0.022583000000000002,0.997818
1920,-5.432212,-0.793469,-0.244144,-0.001709,-0.025879000000000003,0.988418
1922,-9.216449,-3.173877,-0.549325,-0.005982,0.000244,0.972549
1924,-13.733120000000001,-5.0049589999999995,-0.976577,0.020752,-0.032105,1.001358
1926,-10.254063,-4.150454,-0.793469,0.026612,-0.057496000000000005,1.036271
1928,-5.127031,-2.014191,-0.732433,0.032349,-0.066285,1.061784
1930,2.685588,0.244144,-0.854505,0.014649,-0.015503,0.9705959999999999
1932,-3.295949,-1.342794,-0.30518,0.009888,-0.026733999999999997,0.977798
1934,-5.0049589999999995,-0.9155409999999999,0.30518,0.021485,-0.045411,1.019425
1936,-3.723201,-0.427253,0.427253,0.012573,-0.040162,1.005509
1938,-1.525902,-0.9155409999999999,-0.183108,0.019653999999999998,-0.047608,1.021988
1940,0.427253,-1.40383,-0.793469,0.017212,-0.037232,0.991592
1942,-1.40383,-2.014191,-0.854505,0.025757,-0.038941,1.0008700000000001
1944,-2.563516,-1.40383,-0.366217,0.022583000000000002,-0.042602999999999995,1.0053860000000001
1946,-2.2583349999999998,-0.061036,0.0,0.026733999999999997,-0.045288999999999996,1.015518
1948,-1.464866,0.48828900000000003,-0.183108,0.019776,-0.048463,1.0048979999999998
1950,-0.122072,0.366217,-0.366217,0.020508000000000002,-0.04712,1.008682
1952,0.366217,0.244144,-0.549325,0.017456,-0.046265,1.001358
1954,0.366217,0.0,-0.549325,0.019532,-0.041505,0.993668
1956,-1.2207219999999999,-0.671397,-0.427253,0.022705,-0.039673,0.993179
1958,-2.197299,-0.732433,-0.366217,0.018799,-0.039918,1.010025
1960,-1.342794,-0.427253,-0.48828900000000003,0.023804,-0.048463,1.01149
1962,-0.244144,0.30518,-0.244144,0.023072,-0.050172,1.01796
1964,0.976577,0.9155409999999999,-0.183108,0.023194,-0.044556,1.005631
1966,1.647974,1.464866,-0.122072,0.018189,-0.04358,0.9946440000000001
1968,0.366217,0.366217,-0.244144,0.016602000000000002,-0.041016000000000004,0.994034
1970,-0.549325,-0.6103609999999999,-0.366217,0.01294,-0.035401,0.9902489999999999
1972,-1.09865,-0.976577,-0.244144,0.022216999999999997,-0.041993,0.9987950000000001
1974,-1.464866,-0.671397,-0.244144,0.022338999999999998,-0.041382,1.009903
1976,-0.793469,0.122072,0.0,0.022583000000000002,-0.050416,1.0156399999999999
1978,0.122072,0.671397,-0.122072,0.021729,-0.045288999999999996,1.006241
1980,1.159686,0.671397,0.0,0.013916,-0.041382,0.985489
1982,-0.9155409999999999,-0.427253,-0.183108,0.020386,-0.041505,0.989273
1984,-2.014191,-0.48828900000000003,-0.183108,0.022338999999999998,-0.044556,1.00441
1986,-1.8310830000000002,-0.061036,0.0,0.023681999999999998,-0.046876,1.003555
1988,-1.037613,0.366217,0.0,0.016236,-0.050294,1.0089270000000001
1990,0.244144,0.854505,0.0,0.024659,-0.050294,1.007095
1992,1.342794,1.09865,-0.122072,0.016114,-0.043336,0.9946440000000001
1994,0.0,0.671397,0.122072,0.016114,-0.046632,0.9908600000000001
1996,-0.732433,0.366217,0.122072,0.019898,-0.051026,0.997818
1998,-1.281758,0.366217,0.122072,0.024781,-0.048463,1.007462
2000,-0.6103609999999999,0.6103609999999999,0.30518,0.026001,-0.045288999999999996,1.010758
2002,-0.122072,0.854505,0.122072,0.019532,-0.050782,1.013443
2004,1.037613,1.09865,-0.122072,0.019165,-0.049073,1.002945
2006,0.48828900000000003,0.671397,-0.183108,0.011963,-0.045899,0.991348
2008,0.244144,0.48828900000000003,0.0,0.014282,-0.04419,0.999649
2010,0.0,0.671397,0.061036,0.014159999999999999,-0.044068,0.9990389999999999
2012,0.122072,0.48828900000000003,0.0,0.015137000000000001,-0.042969,1.001846
2014,0.244144,0.061036,-0.122072,0.015381,-0.054322,1.006241
2016,0.9155409999999999,0.244144,-0.183108,0.014038,-0.0448,1.006729
2018,0.976577,0.183108,-0.183108,0.017212,-0.047363999999999996,1.0011139999999998
2020,0.427253,0.122072,0.0,0.016846,-0.040527999999999995,0.994766
2022,0.793469,0.0,0.122072,0.016114,-0.036988,0.997086
2024,-0.30518,-0.183108,0.0,0.019898,-0.044677999999999995,1.0037989999999999
2026,0.122072,0.366217,0.0,0.015869,-0.04773,1.014908
2028,0.183108,-0.122072,-0.122072,0.013916,-0.042847,1.005875
2030,1.037613,0.0,-0.366217,0.019043,-0.048707,1.007584
2032,1.342794,0.122072,-0.244144,0.016724,-0.037232,0.993668
2034,0.244144,0.122072,-0.30518,0.015625,-0.044677999999999995,1.004532
2036,-0.30518,0.244144,0.0,0.01294,-0.047242,1.004532
2038,-0.061036,0.427253,-0.122072,0.010742,-0.04419,1.0042879999999998
2040,-0.427253,-0.061036,-0.366217,0.014159999999999999,-0.051881,1.006241
2042,1.09865,0.061036,-0.6103609999999999,0.017212,-0.051148,1.02211
2044,4.089418,0.183108,-0.671397,0.018433,-0.04773,1.007095
2046,2.746624,-0.427253,-0.671397,0.014159999999999999,-0.039307,0.996475
2048,1.8310830000000002,-0.549325,-0.366217,0.013916,-0.022216999999999997,0.9907379999999999
2050,1.281758,-0.671397,-0.549325,0.020630000000000003,-0.037964,1.000504
2052,0.366217,-0.793469,-0.48828900000000003,0.015137000000000001,-0.041016000000000004,1.0047760000000001
2054,-0.183108,-0.976577,-0.549325,0.0177,-0.043458,1.010147
2056,1.281758,-0.48828900000000003,-0.549325,0.01648,-0.040284,1.010513
2058,1.525902,-0.366217,-0.671397,0.018433,-0.041382,1.01857
2060,2.50248,0.0,-0.732433,0.02002,-0.036988,1.0091709999999998
2062,3.356985,0.122072,-0.793469,0.018799,-0.037232,1.018082
2064,4.882887,0.9155409999999999,-0.732433,0.024781,-0.040284,1.0213780000000001
2066,7.6905470000000005,1.7700470000000001,-0.976577,0.018067,-0.045533,1.025528
2068,10.193027,2.563516,-0.732433,0.019776,-0.036255,1.012345
2070,10.070953999999999,1.8921189999999999,-0.732433,-0.001465,0.01355,0.911025
2072,-1.586938,-2.197299,-0.854505,0.014527000000000002,-0.032715,1.010391
2074,0.854505,-0.793469,-0.6103609999999999,0.02356,-0.041016000000000004,1.018204
2076,2.868696,0.9155409999999999,-0.427253,0.025757,-0.041382,1.028458
2078,5.371176,2.990768,-0.244144,0.02295,-0.018677000000000003,1.009293
2080,5.9205,4.699779,-0.244144,0.025757,-0.027587999999999998,1.0236969999999999
2082,8.239872,7.507439,0.793469,0.015869,-0.023804,1.006973
2084,6.71397,6.469825,0.9155409999999999,-0.0063479999999999995,-0.008911,0.9826809999999999
2086,7.934691,5.065995,0.9155409999999999,0.001221,-0.014527000000000002,0.993423
2088,8.606088,2.868696,0.183108,-0.0070799999999999995,-0.021118,1.009903
2090,8.178836,1.464866,-0.244144,-0.007568000000000001,-0.00293,0.984512
2092,7.507439,0.183108,-0.30518,-0.015869,0.018067,0.960464
2094,-2.990768,-2.563516,0.0,0.0,0.011475,0.9715719999999999
2096,0.183108,-2.868696,0.183108,0.012451,-0.031861,1.029313
2098,5.981537,-1.70901,0.30518,0.0063479999999999995,0.000366,1.00795
2100,5.188067,-2.380407,0.0,-0.007201999999999999,0.013793999999999999,0.9758450000000001
2102,2.80766,-3.723201,-0.671397,-0.0031739999999999997,0.015747,0.9820709999999999
2104,-10.070953999999999,-4.5166699999999995,-0.6103609999999999,0.00415,0.039063,0.943008
2106,-4.150454,-3.295949,-0.122072,0.061402,-0.050904000000000005,1.085222
2108,2.868696,-1.953155,0.183108,-0.0051270000000000005,0.017456,0.968276
2110,-1.525902,-3.784237,-1.037613,0.001953,-0.009033,1.009659
2112,1.037613,-0.793469,-0.366217,0.046143,0.0074459999999999995,0.9984280000000001
2114,1.8310830000000002,2.563516,0.30518,0.000732,0.014038,0.968032
2116,-3.234913,0.48828900000000003,0.0,0.0008550000000000001,0.0031739999999999997,0.982193
2118,-3.784237,0.061036,-0.427253,0.025391,-0.01294,1.0285799999999998
2120,-3.173877,2.136263,-0.183108,0.015381,-0.025879000000000003,1.036759
2122,1.8921189999999999,3.90631,-0.122072,-0.010131999999999999,0.025513,0.9481350000000001
2124,-6.225681,0.0,0.0,-0.054932,0.036866,0.879408
2126,-20.263981,-8.911269,-1.159686,0.028321,-0.017212,1.018204
2128,-15.259022,-6.591897,-0.976577,0.046508999999999995,-0.047608,1.054582
2130,-4.333562000000001,-0.793469,-0.122072,0.040284,-0.045411,1.068742
2132,-2.380407,-0.183108,0.183108,-0.009644,-0.017212,0.98793
2134,-1.70901,-3.479057,-0.854505,0.001953,0.0,0.9627829999999999
2136,0.0,-4.21149,-0.6103609999999999,0.003296,-0.019532,0.985367
2138,-0.549325,-2.563516,-0.122072,0.025025,-0.048463,1.048478
2140,0.9155409999999999,-0.122072,0.549325,0.016846,-0.043458,1.040543
2142,7.385367,0.0,-0.244144,0.009276999999999999,-0.030762,1.0205229999999998
2144,10.559242999999999,-0.122072,-0.30518,0.038452999999999994,-0.035889,1.034562
2146,9.277485,0.244144,-0.122072,0.005249,0.010620000000000001,0.9279930000000001
2148,0.6103609999999999,-0.854505,-0.122072,0.032958999999999995,0.010254000000000001,0.9713280000000001
2150,-0.183108,1.09865,0.183108,0.021241,-0.013916,1.0089270000000001
2152,0.793469,1.342794,-0.122072,0.005982,-0.0015869999999999999,0.9869540000000001
2154,1.647974,0.854505,-0.6103609999999999,0.022338999999999998,-0.009644,1.0046540000000002
2156,1.2207219999999999,1.525902,-0.30518,0.019287000000000002,-0.010864,1.0089270000000001
2158,0.122072,1.647974,-0.244144,0.01294,-0.017334,1.016983
2160,2.50248,2.136263,0.0,0.020142,-0.014527000000000002,1.0121
2162,4.150454,2.136263,0.061036,0.014893,-0.02356,1.028824
2164,8.728161,2.929732,0.30518,0.007812999999999999,-0.018921,1.01442
2166,10.193027,2.685588,0.549325,0.0094,-0.010254000000000001,0.991592
2168,11.291675999999999,1.8921189999999999,0.671397,0.003906,0.001831,0.975601
2170,3.845274,-0.48828900000000003,0.061036,-0.012573,0.039185000000000005,0.9340959999999999
2172,0.732433,-1.525902,-0.366217,0.016846,0.019043,0.984268
2174,-2.685588,-0.854505,-0.427253,0.014282,-0.005493,1.021256
2176,-1.159686,0.366217,-0.183108,0.019898,0.000488,0.996841
2178,-2.075227,-0.48828900000000003,-0.244144,0.011353,-0.002441,0.9969629999999999
2180,-0.549325,-1.8310830000000002,-0.549325,0.01355,0.007935,0.978042
2182,-4.333562000000001,-0.549325,-0.549325,0.017945,0.019532,0.9625389999999999
2184,-9.582666,-0.366217,-0.671397,0.008667,-0.0058590000000000005,0.999893
2186,-6.775005999999999,0.9155409999999999,-0.48828900000000003,0.023072,-0.019653999999999998,1.037736
2188,-3.295949,1.953155,0.061036,0.008667,-0.010742,1.002701
2190,-2.014191,0.6103609999999999,-0.30518,0.009766,-0.016724,1.006485
2192,-0.6103609999999999,0.48828900000000003,-0.427253,0.010131999999999999,0.007935,0.960342
2194,-7.507439,0.122072,0.061036,0.008057,-0.019653999999999998,0.9868309999999999
2196,-8.056764,-0.427253,0.122072,0.0074459999999999995,-0.016724,1.0118559999999999
2198,-4.455634,-0.427253,0.0,0.011597,-0.018799,1.0048979999999998
2200,-2.929732,-0.6103609999999999,-0.122072,0.008911,-0.016968,1.006485
2202,-1.342794,-1.40383,-0.183108,0.010498,-0.021606999999999998,1.01149
2204,-0.122072,-1.342794,-0.122072,0.008301000000000001,-0.0015869999999999999,0.9901270000000001
2206,-3.6621650000000003,-1.647974,-0.122072,0.006226,-0.015137000000000001,0.9979399999999999
2208,-4.150454,-1.40383,-0.183108,0.008911,-0.032471,1.008682
2210,-1.464866,-0.549325,-0.30518,0.012695999999999999,-0.037354000000000005,1.009659
2212,0.0,0.0,-0.244144,0.014038,-0.026612,1.008194
2214,0.793469,0.061036,0.0,0.010131999999999999,-0.016846,0.9944
2216,0.793469,-0.244144,0.0,0.010376,-0.014771000000000001,0.9945219999999999
2218,-0.976577,-1.2207219999999999,0.061036,0.013672,-0.012451,0.980117
2220,-0.793469,-1.159686,-0.244144,0.043336,-0.07067999999999999,1.028824
2222,-4.5166699999999995,-0.6103609999999999,0.183108,0.030151999999999998,-0.056886,1.059709
2224,-2.319371,-0.244144,0.0,0.019898,-0.037110000000000004,1.013321
2226,0.48828900000000003,-0.183108,-0.183108,0.017823,-0.018921,0.9984280000000001
2228,0.122072,-0.549325,-0.30518,0.023072,-0.023804,1.004532
2230,-0.793469,-0.244144,-0.183108,0.010986,-0.022827,0.988418
2232,-3.967346,-0.48828900000000003,0.061036,0.008423,-0.029419,1.023941
2234,3.479057,-0.183108,0.122072,0.013793999999999999,-0.017456,0.9713280000000001
2236,0.6103609999999999,-0.30518,-0.30518,0.014527000000000002,-0.016358,1.021256
2238,0.9155409999999999,-0.30518,-0.48828900000000003,0.026978,-0.025147,0.9983059999999999
2240,0.6103609999999999,-0.183108,-0.366217,0.011475,-0.018921,1.016129
2242,2.136263,-0.48828900000000003,-0.183108,0.008179,-0.021363,1.002213
2244,2.014191,-0.244144,-0.244144,0.017578,-0.019165,1.001602
2246,0.122072,0.183108,-0.427253,0.018311,-0.019287000000000002,1.001968
2248,-1.2207219999999999,-0.061036,-1.037613,0.0094,-0.022338999999999998,1.003922
2250,-0.6103609999999999,0.122072,-0.9155409999999999,0.020874,-0.019532,1.008682
2252,0.061036,0.122072,-0.854505,0.016358,-0.014527000000000002,1.006241
2254,0.427253,-0.30518,-0.671397,0.015747,-0.014527000000000002,0.9900049999999999
2256,0.061036,-0.6103609999999999,-0.9155409999999999,0.01648,-0.018799,1.001236
2258,-0.793469,-0.427253,-0.976577,0.02002,-0.022461000000000002,0.999649
2260,-0.183108,-0.30518,-0.976577,0.018555000000000002,-0.017456,1.007218
2262,0.0,0.0,-0.6103609999999999,0.016846,-0.018799,0.9991610000000001
2264,0.976577,0.061036,-0.6103609999999999,0.024413999999999998,-0.018433,1.005997
2266,1.159686,-0.183108,-0.976577,0.013062,-0.015259,0.9945219999999999
2268,0.793469,-0.366217,-0.6103609999999999,0.018311,-0.018311,0.9969629999999999
2270,0.793469,-0.183108,-0.30518,0.019532,-0.012695999999999999,0.989883
2272,0.976577,0.183108,-1.159686,0.015503,-0.013306,1.0008700000000001
2274,0.366217,0.183108,-2.075227,0.014771000000000001,-0.015625,1.002213
2276,0.061036,0.0,-1.70901,0.006958,-0.02417,0.991714
2278,0.30518,-0.30518,-0.732433,0.011353,-0.018189,1.002701
2280,0.427253,0.0,-0.30518,0.018311,-0.021363,1.001724
2282,-0.061036,0.48828900000000003,-0.366217,0.010742,-0.012206999999999999,0.9950100000000001
2284,-0.48828900000000003,0.061036,-0.427253,0.020752,-0.021851,1.010025
2286,0.366217,0.0,-0.30518,0.017823,-0.013916,1.002579
2288,2.2583349999999998,0.366217,-0.793469,0.011597,-0.014159999999999999,0.995743
2290,1.09865,0.427253,-1.953155,0.015625,-0.013184,1.006607
2292,-0.061036,0.366217,-2.563516,0.008179,-0.018311,1.002823
2294,-0.732433,0.122072,-1.464866,0.011475,-0.020508000000000002,1.0091709999999998
2296,-0.183108,-0.061036,-0.48828900000000003,0.011597,-0.018555000000000002,0.996597
2298,0.366217,0.0,-0.48828900000000003,0.011231,-0.01294,1.0053860000000001
