Packet number,Gyroscope X (deg/s),Gyroscope Y (deg/s),Gyroscope Z (deg/s),Accelerometer X (g),Accelerometer Y (g),Accelerometer Z (g)
0,0.061036,0.0,-0.183108,-0.0008550000000000001,0.0058590000000000005,0.996719
4,0.183108,0.183108,-0.183108,0.0035399999999999997,0.0051270000000000005,0.992325
8,0.122072,-0.122072,-0.122072,0.002441,0.0037840000000000005,0.9979399999999999
12,-0.061036,-0.183108,0.0,0.0,0.009276999999999999,0.9909819999999999
16,-0.30518,-0.061036,-0.122072,0.004883,0.0058590000000000005,0.9908600000000001
20,-0.061036,0.061036,-0.122072,-0.005737,0.004761,1.008194
24,-0.183108,-0.244144,-0.183108,-0.002686,0.0023190000000000003,0.9956209999999999
28,0.061036,-0.122072,0.0,-0.000366,0.005737,0.9991610000000001
32,-0.244144,-0.30518,0.0,0.000732,0.00415,0.991714
36,-0.122072,-0.30518,-0.122072,0.0015869999999999999,0.003418,0.996597
40,0.6103609999999999,-0.183108,0.0,0.003418,0.009033,0.992447
44,-0.366217,-0.183108,0.0,-0.001831,0.001831,1.0112459999999999
48,-0.30518,-0.30518,-0.122072,-0.003906,0.0037840000000000005,1.002213
52,-0.061036,-0.183108,0.0,0.006592,0.002564,0.9903719999999999
56,0.061036,-0.122072,-0.122072,0.0021969999999999997,0.0028079999999999997,0.9953770000000001
60,-0.061036,-0.30518,-0.183108,-0.003662,0.004028,0.995743
64,1.8921189999999999,0.427253,-0.366217,-0.005371,0.006104,0.985977
68,0.30518,-0.122072,-0.244144,0.008667,0.0035399999999999997,1.00441
72,-0.122072,-0.244144,-0.30518,0.0028079999999999997,0.002075,1.005875
76,0.427253,-0.30518,0.0,0.001831,0.010131999999999999,0.9942780000000001
80,-0.30518,-0.061036,0.0,0.005493,0.00415,1.00441
84,0.0,0.0,-0.183108,-0.003052,0.000977,0.991836
88,0.48828900000000003,-0.30518,0.0,0.0031739999999999997,0.0031739999999999997,0.992813
92,0.0,0.0,0.0,-0.004517,0.009522,0.9944
96,0.366217,0.0,-0.122072,-0.007812999999999999,0.000488,1.013199
100,0.0,0.0,-0.183108,0.004761,0.00647,0.999649
104,2.563516,1.2207219999999999,0.122072,0.01355,0.001953,1.0188139999999999
108,1.159686,0.183108,-0.244144,0.008057,0.011840999999999999,0.992691
112,1.8310830000000002,-1.159686,-0.48828900000000003,-0.004639,0.005615,1.002701
116,6.71397,0.854505,-1.2207219999999999,0.017578,0.0051270000000000005,1.0046540000000002
120,2.2583349999999998,0.244144,-0.183108,0.000488,0.025025,0.973892
124,-0.48828900000000003,-0.183108,0.30518,-0.001953,0.014527000000000002,1.0031889999999999
128,0.0,0.427253,0.732433,-0.006226,0.016724,0.991958
132,-1.464866,-0.793469,0.427253,0.000244,0.011963,1.029801
136,3.418021,1.09865,0.732433,0.010131999999999999,-0.013306,1.0515299999999999
140,4.943923000000001,0.0,1.342794,-0.001343,0.027832,0.9544819999999999
144,1.525902,-2.197299,0.976577,-0.011597,0.030396,0.991714
148,1.647974,-2.075227,1.037613,0.0037840000000000005,0.026489999999999996,1.020035
152,2.929732,-1.037613,0.671397,0.000366,0.033936,0.972793
156,0.671397,-2.50248,0.366217,0.022095,-0.006714,0.969619
160,0.244144,0.549325,0.0,0.002564,0.012573,0.9625389999999999
164,-6.103609,-3.479057,0.976577,-0.048585,0.033082,0.956802
168,-2.50248,-2.50248,0.793469,0.039307,0.014527000000000002,1.035416
172,-1.159686,-3.1128400000000003,0.061036,0.007935,0.022827,0.9969629999999999
176,-0.671397,-4.028382,-1.159686,0.025147,0.01001,1.019547
180,-1.464866,-2.014191,-1.159686,0.004639,0.010620000000000001,1.001236
184,0.061036,-1.8921189999999999,-0.9155409999999999,0.008911,0.015381,0.984634
188,2.319371,-2.014191,-0.427253,0.008179,0.011231,0.9948879999999999
192,0.0,-2.50248,-0.244144,0.018677000000000003,0.014038,0.9946440000000001
196,1.586938,-0.122072,0.0,0.026001,0.035644999999999996,0.9945219999999999
200,0.122072,-0.732433,0.366217,-0.000732,0.016602000000000002,0.9657129999999999
204,-5.371176,-4.150454,-0.30518,0.020508000000000002,0.039918,0.954849
208,-11.535821,-3.6621650000000003,1.09865,0.029175,0.020386,0.9747459999999999
212,-18.677042999999998,-2.197299,2.014191,-0.004517,0.024537,0.953384
216,-23.620966,-4.760815,1.70901,0.026001,0.008911,0.983658
220,-31.677729,-4.394598,2.685588,0.022583000000000002,0.023072,0.960342
224,-69.642176,-1.342794,-0.244144,-0.009033,0.094972,0.98854
228,-75.623713,7.446403,-3.051804,-0.032471,-0.041993,1.090349
232,-60.975052000000005,15.686275,-6.897078,0.174441,-0.322393,0.861341
236,-195.254444,2.685588,10.498207,-0.034546,0.3617,1.077165
240,-435.43144900000004,-63.843748,-25.757229000000002,-0.07470800000000001,0.019165,0.801038
244,134.035248,47.42504,-33.142596000000005,-0.6499119999999999,0.645029,1.9999689999999999
248,38.757915999999994,-0.549325,4.394598,-0.011719,0.390387,0.391119
252,24.292363,36.072328000000006,-6.225681,-0.27576100000000003,0.326421,0.976699
256,117.616541,-3.173877,30.334936,-0.273442,0.307622,1.197162
260,171.511406,22.949569,48.157472999999996,-0.117067,0.150393,0.8889299999999999
264,196.047913,12.756542,48.767834,0.067872,0.10815599999999999,1.395529
268,229.43465299999997,25.391012,23.559929999999998,0.09472799999999999,-0.052003,1.350973
272,237.1252,43.579767,10.742351,0.042847,-0.17663800000000002,1.540673
276,235.049973,29.724575,-19.836728,0.26758200000000004,-0.22302600000000003,1.5758299999999998
280,218.44815699999998,31.433584999999997,-60.303655000000006,0.007324,-0.390753,1.565576
284,166.872663,21.667811,-57.801175,-0.10180800000000001,-0.732189,1.193133
288,95.94873,55.420768,-55.237658999999994,-0.21069699999999997,-1.8789349999999998,0.575937
292,-119.50866,-111.573968,45.654994,0.404913,-2.0000310000000003,-0.074952
296,-120.363165,-39.612421000000005,33.936065,-0.47791300000000003,0.966567,1.470726
300,-191.287099,-43.945983,39.429313,0.583749,-0.005371,1.9999689999999999
304,-82.337682,-11.718929,17.395285,-0.701915,-0.056764,1.237201
308,-59.815366000000004,-55.786984,27.222095,0.402472,0.08691499999999999,1.282246
312,-34.363316999999995,-32.959487,4.577707,0.150759,0.109865,1.264057
316,-33.508812,-21.179522,0.366217,0.080201,-0.0070799999999999995,1.074846
320,-17.151141,-15.930419,-1.2207219999999999,0.015259,0.036866,1.067887
324,-17.700464999999998,-11.169604,0.183108,0.022338999999999998,0.074586,1.005264
328,-20.569162,-8.361944,0.9155409999999999,0.014649,0.055909,1.051408
332,-17.395285,-8.056764,-0.48828900000000003,0.036744,-0.037354000000000005,1.016861
336,-17.029068,-8.667124000000001,-1.647974,0.055421000000000005,-0.029541,1.014664
340,-19.409476,-9.460594,-1.8310830000000002,0.003418,0.085939,0.894667
344,-16.84596,-4.943923000000001,1.586938,0.036378,-0.073121,0.973281
348,-20.263981,-3.1128400000000003,1.525902,0.070314,-0.049439,0.994766
352,-23.498894,-0.061036,0.244144,0.061036,-0.064942,1.036027
356,-32.288090000000004,3.356985,1.7700470000000001,0.123293,-0.06274500000000001,0.963882
360,-46.997787,15.442129999999999,6.591897,0.053834,-0.051759000000000006,0.988418
364,-33.630884,3.6621650000000003,-15.808347,-0.090211,-0.135378,0.963882
368,-41.504540000000006,16.174563,6.164645,0.063355,0.12878599999999998,0.9273819999999999
372,-190.859846,-9.887846000000001,8.484016,-0.10547000000000001,0.277592,0.695933
376,-702.830549,-250.919356,14.526589000000001,0.218021,0.175784,1.2374459999999998
380,314.15274300000004,53.528649,-55.84802,-0.176394,0.41821899999999995,1.9999689999999999
384,20.202945,-45.410849,8.056764,0.076173,0.227543,0.507698
388,108.278019,3.051804,-39.30724,0.012695999999999999,0.430304,0.9979399999999999
392,188.845655,43.21355,-55.359731000000004,-0.109865,0.262943,0.9796290000000001
396,230.28915800000001,64.148928,-21.606775,-0.041138,0.089723,1.160052
400,269.23018199999996,67.750057,-11.474784,0.39526999999999995,-0.120119,0.846693
404,229.007401,70.37460899999999,-37.964446,0.46045600000000003,-0.13159400000000002,1.3019
408,236.209659,79.65209399999999,-39.795528999999995,0.17566199999999998,-0.529305,1.9999689999999999
412,255.680171,77.45479499999999,-8.056764,-0.039918,-0.8685440000000001,1.9999689999999999
416,223.94140499999997,79.16380600000001,-0.6103609999999999,0.295537,-0.9403219999999999,1.518822
420,153.87197700000002,76.84443399999999,15.625238000000001,0.041871,-1.93167,0.7740600000000001
424,5.61532,43.51873,34.058137,0.25903699999999996,-1.9535209999999998,-0.175296
428,-168.21545700000001,-33.875029,27.710384,-0.246952,-0.41834099999999996,0.8061649999999999
432,-267.948425,-79.16380600000001,47.974365,-0.031373000000000005,-0.327764,0.541878
436,-104.859998,1.159686,10.193027,0.251469,0.08276499999999999,1.616602
440,-124.452583,-48.889905999999996,44.190127000000004,-0.25500900000000004,-0.076173,1.428489
444,-42.053864000000004,-17.639429,-4.394598,-0.476692,0.106813,1.11281
448,-57.129778,-17.517357,2.4414439999999997,0.09472799999999999,-0.06775,1.313985
452,-17.273213000000002,2.2583349999999998,0.0,0.044556,0.014771000000000001,1.011368
456,-20.263981,-6.897078,0.061036,-0.008301000000000001,-0.000122,0.9873200000000001
460,-23.071641,-8.606088,3.356985,0.003662,0.00293,0.9663229999999999
464,-17.334249,-8.1178,2.319371,0.016968,-0.051514,1.002579
468,-13.977264000000002,-9.338521,-0.122072,0.02295,-0.050538,1.005509
472,-10.376135000000001,-7.507439,0.30518,0.04419,-0.053101,1.024308
476,-9.460594,-4.455634,0.244144,0.036255,-0.05774,1.006607
480,-13.427939000000002,-3.723201,0.366217,0.051637,-0.038819,0.979751
484,-18.24979,-0.061036,1.8310830000000002,0.030396,-0.081666,0.9908600000000001
488,-18.677042999999998,-3.6621650000000003,1.2207219999999999,0.018677000000000003,-0.0542,0.972549
492,-24.96376,0.366217,4.760815,0.068971,-0.08276499999999999,0.9908600000000001
496,-36.865797,2.624552,3.234913,0.031983,-0.080079,0.955825
500,-42.175937,2.990768,-8.728161,0.020752,-0.100832,1.061051
504,-45.105669,5.554284,-3.173877,0.17773699999999998,-0.276005,1.099504
508,-140.932326,24.414435,-21.911955,0.02002,0.349493,0.601205
512,-515.2056150000001,-59.63225799999999,12.878614,-0.450446,-0.060426,1.171038
516,-924.5746550000001,-221.37788999999998,161.562524,-0.949722,-0.755383,1.9999689999999999
520,-7.934691,14.587625,-20.630198,-0.48548100000000005,0.79762,1.5338370000000001
524,83.55840400000001,6.469825,-1.70901,-0.007568000000000001,0.369757,0.665904
528,160.52491,-7.2022580000000005,-20.080873,0.025147,0.279789,1.04799
532,229.190509,20.080873,-35.645075,-0.083009,0.071656,1.043107
536,270.267796,36.804761,-23.86511,-0.033814,-0.060303999999999996,1.346334
540,276.61554900000004,74.586099,-44.61738,0.315923,-0.5064770000000001,0.6538189999999999
544,189.028763,60.975052000000005,-62.073701,0.264164,-0.2262,1.9999689999999999
548,239.261463,84.71809,-52.857252,-0.0043950000000000005,-0.701671,1.9999689999999999
552,249.14931,85.450523,-20.813306,0.155398,-0.851209,1.590967
556,184.267948,96.803235,-18.921187,0.033936,-1.4537579999999999,1.25771
560,113.771267,129.70168600000002,-14.526589000000001,0.49817700000000004,-2.0000310000000003,0.113283
564,-165.957122,-159.12108,76.539254,0.154055,-1.391623,-0.49085200000000007
568,-211.18486299999998,-97.901884,93.995575,0.24365599999999998,0.563485,0.675914
572,-180.666819,-43.457694000000004,20.630198,1.256001,-0.096559,1.9999689999999999
576,-116.76203600000001,-66.71244399999999,25.26894,0.578134,-0.596445,1.9999689999999999
580,-50.354772,-44.800488,1.09865,0.20911,-0.13464600000000002,1.115984
584,-16.968032,-25.818265,-5.737392,0.100221,-0.040894,1.093034
588,-11.23064,-6.652933999999999,3.051804,0.038452999999999994,-0.104372,1.0724040000000001
592,-9.82681,-5.127031,0.671397,0.008789,-0.029786,1.012833
596,-3.967346,-2.4414439999999997,0.671397,0.075074,-0.055299,1.003311
600,-4.699779,0.0,1.037613,0.034913,-0.016358,0.999649
604,-8.056764,-4.394598,-0.793469,0.036255,-0.024903,0.9868309999999999
608,-8.911269,-2.685588,0.183108,0.058961,-0.048341,1.0037989999999999
612,-10.986496,-2.80766,0.976577,0.04065,-0.042969,0.973892
616,-15.320058,-1.647974,1.2207219999999999,0.076661,-0.075807,1.007584
620,-14.526589000000001,2.380407,1.342794,0.055421000000000005,-0.055542999999999995,0.9909819999999999
624,-25.329976000000002,-0.183108,-0.549325,0.063233,-0.063233,0.981582
628,-27.222095,5.3101400000000005,3.356985,0.053223,-0.152346,0.979141
632,-42.053864000000004,8.300908,2.563516,0.016236,-0.059571000000000006,0.981827
636,-37.354085999999995,8.545052,-10.742351,-0.079225,-0.16907,1.030167
640,-11.291675999999999,14.465553,13.061722999999999,0.046632,-0.202029,1.064591
644,-196.047913,18.677042999999998,6.2867169999999994,-0.167849,0.362921,0.673716
648,-636.362249,-120.91248999999999,49.866484,-0.24548699999999998,-0.006592,1.598657
652,-835.09575,-80.689708,134.462501,0.265751,-0.9351950000000001,1.9999689999999999
656,103.089952,-40.955215,-53.650721,-0.613901,0.45264399999999994,0.021851
660,98.512245,-23.071641,-26.306554,-0.284794,0.332525,0.547127
664,205.386435,-5.0049589999999995,-32.410163,-0.024537,0.390021,1.731228
668,301.701381,50.415808,-48.889905999999996,0.016358,-0.10547000000000001,0.7580680000000001
672,259.525444,46.997787,-54.077974,0.10669100000000001,-0.310185,0.48535900000000004
676,225.650416,106.01968400000001,-71.534295,0.296635,-0.180301,1.930449
680,249.75967000000003,110.71946299999999,-36.316472,0.13379100000000002,-0.7006939999999999,1.9999689999999999
684,284.79438500000003,112.062257,-22.278172,0.661143,-0.811658,1.576806
688,247.37926299999998,46.753643,-29.48043,0.40003099999999997,-1.1428399999999999,1.522972
692,115.84649399999999,95.94873,-42.90837,0.50135,-2.0000310000000003,0.583993
696,-31.311513,-9.094377,37.354085999999995,0.001221,-1.627222,0.10376099999999999
700,-116.945144,-77.210651,60.66987099999999,-0.044068,0.700206,1.9999689999999999
704,-279.911498,-61.34126800000001,46.021209999999996,0.964858,-0.023438,1.9999689999999999
708,-131.288624,3.6011290000000002,17.090104999999998,-1.1734799999999999,-0.24988200000000002,1.428977
712,-49.195087,-36.377508,-1.09865,0.811902,-0.076051,1.728298
716,-37.476158,-20.935378,1.586938,0.099733,0.080446,1.209003
720,-25.513085,-7.629511,1.342794,0.063966,0.016968,1.0741129999999999
724,-24.902724,3.967346,-2.014191,0.051514,-0.075563,1.070817
728,-22.766461,-2.685588,1.70901,0.042969,-0.057862000000000004,1.026139
732,-16.235599,1.647974,1.464866,0.053834,-0.030396,1.0392
736,-19.592584,0.976577,2.014191,0.039307,-0.036011,1.021988
740,-21.667811,2.868696,2.075227,0.042359,-0.066773,1.013321
744,-20.202945,0.976577,1.342794,0.032958999999999995,-0.066285,1.021866
748,-16.968032,-2.197299,0.061036,0.035401,-0.11804400000000001,1.05275
752,-8.606088,0.183108,0.0,0.018677000000000003,-0.081666,0.985367
756,-22.46128,-2.136263,0.0,0.034058,-0.102907,1.015396
760,-23.743038000000002,1.159686,3.356985,0.055909,-0.11767799999999999,0.988663
764,-29.17525,7.568475,10.864424,0.018799,-0.133913,1.01857
768,-27.771420000000003,0.854505,0.671397,-0.021485,-0.076661,0.9560690000000001
772,-39.429313,-8.239872,-21.850919,0.063233,-0.251835,0.997452
776,-24.109254999999997,-0.732433,-5.9205,0.061036,-0.08215499999999999,1.022721
780,-125.612268,2.80766,-20.019837,0.015991,0.31165,0.714855
784,-597.055009,-68.299382,29.053178000000003,-0.411383,-0.023316,1.0199129999999998
788,-464.66773499999994,-145.38796100000002,150.94224499999999,-1.113054,-1.164324,1.9999689999999999
792,-46.753643,0.0,46.875715,-0.186526,0.293095,0.49549099999999996
796,48.096437,-15.991454999999998,13.611048,0.22571100000000002,0.377691,0.728405
800,168.64271000000002,-33.508812,-33.936065,0.100221,0.399542,1.301534
804,242.67948399999997,10.254063,-51.33135,-0.171389,0.037476,1.0394450000000002
808,288.212406,26.367590000000003,-29.17525,-0.084596,-0.151858,1.282002
812,262.699321,58.411536,-36.011292,0.163821,-0.399298,0.7420770000000001
816,208.499275,65.308614,-41.931792,0.25610700000000003,-0.19324000000000002,1.9999689999999999
820,261.47859900000003,57.923246999999996,-37.29305,0.297856,-0.627817,1.9999689999999999
824,268.375677,67.444877,-59.63225799999999,0.325322,-1.009415,1.602441
828,171.938659,89.662013,-39.795528999999995,0.06286699999999999,-2.0000310000000003,1.178607
832,56.702525,73.243305,-11.108568,0.5770350000000001,-2.0000310000000003,-0.408942
836,-142.030976,-75.44060400000001,-5.0049589999999995,0.449104,-0.080446,1.773465
840,-322.69779500000004,-54.749371,40.894179,-0.632456,-0.11840999999999999,0.47351800000000005
844,-156.984817,86.915389,-15.930419,-0.171023,-0.321904,1.9999689999999999
848,-52.491035,-14.343481,17.029068,0.44947,0.11914200000000001,1.150408
852,-41.260395,-45.410849,14.404517000000002,0.236576,0.10620299999999999,1.298116
856,-20.996414,-4.028382,7.812619000000001,0.01648,0.092042,1.0323639999999998
860,-22.949569,-13.061722999999999,8.606088,-0.167849,-0.009644,0.8682989999999999
864,-16.296635000000002,-22.278172,5.0049589999999995,-0.067994,-0.007812999999999999,1.058122
868,-7.324331,-14.953841,1.7700470000000001,-0.028564999999999997,0.0,1.034928
872,-8.789197,-5.554284,2.868696,-0.013184,0.005249,1.011978
876,-12.268253999999999,-6.164645,3.6011290000000002,-0.07019199999999999,-0.01355,0.969741
880,-15.503166,-19.897765,3.723201,-0.013672,-0.043091000000000004,0.9583889999999999
884,-16.052491,-24.414435,3.1128400000000003,-0.009644,-0.037354000000000005,1.035416
888,-15.991454999999998,-17.456321,1.2207219999999999,-0.0051270000000000005,-0.026246,1.019425
892,-38.330663,-18.188754,2.014191,0.025147,0.007812999999999999,0.942275
896,-32.776379,-11.047532,2.014191,0.038087,-0.105959,1.051408
900,-30.579079999999998,-6.530861,4.333562000000001,0.061769000000000004,-0.083742,0.99855
904,-38.941024,1.525902,6.164645,0.026001,-0.080079,1.0584879999999999
908,-40.71107,2.014191,2.563516,-0.191775,0.204105,1.468772
912,-49.378195,-0.671397,-2.929732,0.07190099999999999,-0.152834,1.093889
916,-157.41207,13.672084,-25.757229000000002,-0.013184,0.47559300000000004,0.662486
920,-680.918593,-116.090639,37.781338,-0.652964,-0.022338999999999998,1.131975
924,-64.881361,-85.816739,-9.277485,-0.365118,-0.292119,1.9999689999999999
928,-59.449149,-41.504540000000006,66.407263,-0.21643400000000002,0.287358,1.0407870000000001
932,106.08072,7.629511,22.705425,0.01648,0.42017200000000005,1.20351
936,209.964141,1.7700470000000001,3.234913,0.002564,0.255253,0.786999
940,252.140078,27.344167,-10.986496,-0.008789,0.044923000000000005,1.158587
944,295.597772,27.527276,-26.001373,0.269413,-0.19763499999999998,1.299947
948,217.044327,60.66987099999999,-58.716716000000005,0.112428,-0.44983599999999996,0.9976959999999999
952,256.900893,73.18226899999999,-55.786984,0.098146,-0.591318,1.9999689999999999
956,305.48561800000004,57.618067,-8.056764,0.208988,-0.899062,1.801541
960,244.57160299999998,42.420081,-16.540779999999998,0.261967,-1.070451,1.479759
964,114.625772,90.02822900000001,-76.539254,0.829358,-2.0000310000000003,0.9120010000000001
968,-39.978637,-31.494621000000002,-21.789883,-0.16711700000000002,-2.0000310000000003,-2.0000310000000003
972,-102.90684399999999,-93.44625,4.394598,-0.9248190000000001,0.725475,1.9999689999999999
976,-259.342336,-99.305715,79.16380600000001,0.881239,0.032227,1.9999689999999999
980,-142.702373,15.564201999999998,-3.295949,-1.018692,-0.198001,1.399802
984,-22.583351999999998,5.981537,-5.188067,0.292363,0.155154,1.016861
988,-45.654994,-14.526589000000001,1.342794,-0.056641,-0.073732,0.993301
992,-23.620966,-10.986496,2.014191,0.061402,-0.09094400000000001,1.092912
996,-15.625238000000001,-3.479057,2.136263,0.040772,-0.010376,1.054582
1000,-8.728161,-3.967346,1.647974,0.033082,-0.023681999999999998,0.968521
1004,-17.212177,-5.9205,1.647974,0.041260000000000005,0.047486,1.012833
1008,-17.273213000000002,-3.295949,0.549325,0.043336,-0.061036,1.019547
1012,-16.479744,-4.5166699999999995,0.183108,0.042359,-0.043336,1.001724
1016,-16.723888,-4.028382,0.0,0.045655,-0.06652899999999999,1.010391
1020,-12.573433999999999,-3.479057,0.671397,0.053467999999999995,-0.048219,0.9973299999999999
1024,-15.014878,-3.356985,-0.122072,0.068482,-0.07776,0.9796290000000001
1028,-16.235599,-0.183108,0.0,0.053712,-0.080568,0.997452
1032,-24.231327,-0.427253,-1.159686,0.060303999999999996,-0.094606,0.9749899999999999
1036,-42.359045,9.765774,9.52163,0.045533,-0.08996699999999999,0.9455709999999999
1040,-42.603189,4.943923000000001,-0.732433,-0.061524,-0.14331300000000002,0.999283
1044,-27.588312,2.624552,-3.90631,0.22302600000000003,-0.288945,1.152361
1048,-103.27306,28.931106,-10.437171000000001,-0.043458,0.44593,0.8392459999999999
1052,-512.153811,-40.222782,-21.972992,-0.19336199999999998,0.37109899999999996,1.49575
1056,-1063.004501,-220.767529,131.654841,0.797986,-2.0000310000000003,1.9999689999999999
1060,157.473106,34.973678,-54.993515,-0.628428,0.775036,1.1141530000000002
1064,112.428473,-14.160372,7.141222,-0.23474499999999998,0.393072,0.370245
1068,157.839323,-2.80766,-7.141222,0.029907999999999997,0.453254,1.308492
1072,272.831312,27.161059,-40.283818,0.028931000000000002,0.059937,1.124407
1076,304.08178799999996,30.640116,-45.777066,0.161135,-0.163699,0.9906159999999999
1080,228.519112,69.275959,-63.599603,0.15368900000000002,-0.373785,1.144427
1084,239.44457200000002,112.12329299999999,-36.987869,-0.49158500000000005,-0.773938,1.9999689999999999
1088,301.029984,99.916075,33.081559000000006,-0.038819,-1.0112459999999999,1.9999689999999999
1092,247.074083,117.43343300000001,25.207904,0.724743,-0.816297,1.911772
1096,203.555352,77.332723,-14.160372,0.883192,-2.0000310000000003,1.063127
1100,9.155413000000001,75.867857,-56.824597999999995,0.06543099999999999,-2.0000310000000003,-1.357076
1104,-248.90516499999998,-217.105364,30.945296000000003,0.204715,-0.75758,1.89395
1108,-248.783093,-95.521477,63.660639,0.471321,-0.166384,-0.05712999999999999
1112,-104.921035,42.725260999999996,-15.197985999999998,-0.297612,-0.204105,1.98941
1116,-28.198672,-28.320745000000002,1.09865,1.221576,-0.017945,1.399924
1120,-33.752956,-14.221407999999998,1.70901,0.069215,0.0636,1.013565
1124,-26.733806,-11.535821,1.525902,-0.026123,0.00293,1.051896
1128,-25.940337,-9.216449,5.676356,0.062135,0.036378,1.037247
1132,-28.870069,-12.32929,2.136263,-0.0074459999999999995,-0.009155,0.9427629999999999
1136,-23.132676999999997,-11.902037,0.48828900000000003,0.05359,-0.070069,0.9309219999999999
1140,-21.728847000000002,-4.8218510000000006,0.671397,0.033082,-0.058227999999999995,1.019791
1144,-20.141909,-5.554284,0.061036,0.036378,-0.07324299999999999,1.033951
1148,-11.535821,-5.065995,0.0,0.043824,-0.075685,1.018204
1152,-7.629511,-4.577707,0.48828900000000003,0.042847,-0.07910299999999999,1.002945
1156,-12.878614,-3.6011290000000002,1.647974,0.054077999999999994,-0.07067999999999999,0.989883
1160,-17.090104999999998,1.342794,1.7700470000000001,0.040527999999999995,-0.070924,1.0118559999999999
1164,-16.540779999999998,1.953155,0.183108,0.031127999999999996,-0.076905,0.9950100000000001
1168,-27.161059,7.751583,7.507439,0.036133,-0.06836,1.0411540000000001
1172,-44.678416,6.652933999999999,0.549325,0.004761,-0.08984500000000001,1.016861
1176,-44.678416,-1.037613,-13.427939000000002,0.100465,-0.225223,0.9904940000000001
1180,-65.308614,13.794156,-15.686275,0.121706,0.125124,0.977066
1184,-254.76462999999998,-15.930419,-19.714656,0.145998,0.871351,1.0717940000000001
1188,-811.718929,-194.33890300000002,75.44060400000001,0.419562,-0.44214499999999995,1.37734
1192,256.412604,88.624399,-37.29305,-0.060792,1.1662780000000001,1.5077129999999999
1196,80.262455,-30.640116,30.640116,0.132326,0.40174,0.424201
1200,112.428473,-13.733120000000001,-27.954528000000003,0.07531900000000001,0.481209,0.917983
1204,195.68169699999999,-8.42298,-41.077287,-0.208377,0.144289,1.203021
1208,240.543221,33.936065,-5.0049589999999995,-0.331914,-0.20361600000000002,0.8652479999999999
1212,254.45944900000003,42.969406,-3.479057,0.31165,-0.198123,1.301656
1216,262.882429,52.491035,-39.978637,0.40881999999999996,-0.43372200000000005,1.570336
1220,238.773175,50.110628000000005,-52.979324,0.095705,-0.612314,1.505882
1224,226.504921,50.476844,-53.528649,0.059692999999999996,-0.516976,1.8990770000000001
1228,194.949264,77.02754300000001,-60.852979000000005,0.15332300000000001,-0.596811,1.5182120000000001
1232,169.008927,84.779126,-64.271,0.423346,-1.081193,1.617456
1236,103.27306,109.559777,-68.23834599999999,0.47974399999999995,-2.0000310000000003,0.507088
1240,-177.737087,-183.169299,79.77416600000001,0.288579,-1.661036,-1.503685
1244,-155.27580700000001,-109.74288500000002,43.945983,0.082887,0.22717600000000002,-1.097185
1248,-211.55107999999998,2.319371,10.498207,0.847669,-0.49305,1.9999689999999999
1252,-49.805446999999994,-57.618067,22.217136,1.610376,0.5186850000000001,1.9999689999999999
1256,-37.354085999999995,-8.911269,8.300908,0.427375,0.188113,1.2755319999999999
1260,-9.948882000000001,6.652933999999999,4.455634,0.002564,0.080201,1.031876
1264,-17.700464999999998,-7.385367,4.455634,-0.122927,-0.005737,0.970352
1268,-11.108568,-14.953841,4.089418,-0.033814,-0.007935,1.1267260000000001
1272,-3.051804,-8.850233,0.549325,-0.026123,-0.003662,1.069474
1276,-0.854505,0.122072,0.9155409999999999,-0.045777,-0.0031739999999999997,1.030411
1280,-0.244144,3.723201,2.80766,-0.095216,0.031617,0.9472799999999999
1284,-5.3101400000000005,-8.484016,3.234913,-0.08838,0.014038,0.964858
1288,-4.943923000000001,-15.442129999999999,3.051804,-0.081544,-0.005737,0.9433739999999999
1292,-9.094377,-14.465553,0.671397,0.000244,-0.116579,0.808606
1296,-18.188754,-15.320058,1.70901,-0.04773,0.013062,1.0825360000000002
1300,-25.635157,-12.390326,2.2583349999999998,-0.008179,-0.032715,0.950576
1304,-31.067369,-9.704738,5.065995,-0.035279000000000005,-0.027832,0.9873200000000001
1308,-39.00206,-10.376135000000001,4.028382,-0.045288999999999996,-0.032958999999999995,0.95314
1312,-52.368963,-15.320058,-2.319371,0.07946900000000001,-0.05712999999999999,1.0321200000000001
1316,-58.594643999999995,-11.902037,-1.7700470000000001,-0.017578,-0.066285,1.0832680000000001
1320,-48.035401,-2.380407,-5.3101400000000005,0.054322,-0.135744,0.977798
1324,-165.46883300000002,5.61532,-4.21149,0.000122,0.25745,0.765759
1328,-624.826429,-66.102083,43.030442,-0.359136,0.048096,1.198627
1332,-440.49744400000003,-136.415656,103.456168,-1.076555,-0.988785,1.9999689999999999
1336,-11.108568,-26.489662,46.753643,-0.34107,0.147829,-0.415534
1340,54.566262,-11.474784,25.26894,0.04004,0.386969,0.735485
1344,163.820859,-10.131991000000001,-17.578393,0.028931000000000002,0.39588,1.4378879999999998
1348,273.990997,25.940337,-37.781338,-0.13379100000000002,-0.036622,1.189349
1352,294.499123,37.29305,-19.287404000000002,-0.104494,-0.284184,0.916518
1356,199.22179,59.815366000000004,-39.00206,0.211063,-0.36780300000000005,1.152728
1360,252.323186,96.009766,-58.594643999999995,-0.052247,-0.720348,1.9999689999999999
1364,289.433127,78.553445,-40.955215,0.339361,-0.81117,1.9999689999999999
1368,244.449531,74.402991,-79.468986,0.514778,-0.75758,1.695705
1372,192.080568,52.307927,-69.153887,-0.21252800000000002,-1.426535,0.977432
1376,69.642176,102.052338,4.760815,0.029175,-2.0000310000000003,0.262333
1380,-73.79263,-62.684062,94.42282800000001,0.415534,-1.232807,0.843397
1384,-69.642176,-85.08430600000001,62.806134,-0.235843,1.093767,0.083253
1388,-254.520485,-70.618753,44.861523999999996,1.720851,-0.079835,1.9999689999999999
1392,-106.141756,33.325703999999995,10.070953999999999,-1.118914,-0.20923200000000003,1.7955599999999998
1396,-77.02754300000001,-79.40795,27.283131,0.519173,0.05774,1.796414
1400,-31.799802000000003,-39.00206,-0.244144,0.186893,-0.016846,1.331807
1404,-22.583351999999998,-7.080186,0.854505,0.056397,0.063111,1.022232
1408,-22.339208,10.803388,2.685588,-0.033082,0.034791,0.9902489999999999
1412,-16.784924,3.723201,-0.122072,-0.021241,-0.001099,1.010025
1416,-15.381094000000001,-1.464866,3.234913,-0.028808999999999998,0.01355,0.958633
1420,-15.564201999999998,-6.164645,1.09865,0.003052,0.045533,1.007095
1424,-22.766461,-2.868696,1.40383,0.001343,0.009766,0.9555809999999999
1428,-21.362631,0.30518,1.464866,-0.005005,-0.054932,1.049577
1432,-13.672084,5.737392,2.319371,-0.004761,-0.049561,0.9909819999999999
1436,-18.371862,2.014191,2.380407,-0.03003,-0.028076999999999998,0.989151
1440,-23.498894,-4.150454,0.122072,-0.014771000000000001,-0.051759000000000006,0.9864649999999999
1444,-35.584039000000004,-3.6621650000000003,0.549325,0.028564999999999997,-0.075563,1.005875
1448,-41.992828,-1.464866,6.71397,-0.035523,-0.07776,0.9784079999999999
1452,-34.851606,1.586938,0.183108,-0.095216,-0.041260000000000005,1.051408
1456,-41.260395,-3.051804,-7.263294,0.116335,-0.220096,1.094743
1460,-101.686122,1.40383,-20.752270000000003,0.043946,0.127199,0.898817
1464,-397.528038,-9.643702000000001,-17.700464999999998,0.07715,0.549813,1.326436
1468,-923.537041,55.970092,63.172351,1.096818,-2.0000310000000003,1.9999689999999999
1472,205.447471,-29.907683000000002,-12.085144999999999,-0.5311359999999999,0.751354,1.342184
1476,110.658427,-72.083619,37.170977,0.115602,0.508675,0.259892
1480,144.289311,-36.621653,-27.832456,0.046265,0.473152,1.1613950000000002
1484,278.202487,-35.400931,-64.08789200000001,-0.061036,0.080079,1.11989
1488,294.682231,-21.972992,-71.534295,-0.13489,-0.13379100000000002,1.001358
1492,260.196841,53.955901000000004,-84.71809,-0.150393,-0.435554,0.86598
1496,217.410544,88.50232700000001,-59.937438,-0.286381,-0.45630600000000004,1.9999689999999999
1500,254.76462999999998,99.916075,-5.3101400000000005,-0.163821,-0.8256959999999999,1.9999689999999999
1504,285.221637,99.732967,0.793469,0.711803,-0.753796,1.628565
1508,228.213931,26.245518,-24.658579,0.214115,-1.617945,1.521996
1512,100.64850799999999,164.980545,-103.761349,0.105592,-2.0000310000000003,-2.0000310000000003
1516,-117.18928799999999,-139.894713,10.376135000000001,0.5850920000000001,0.38464899999999996,1.9999689999999999
1520,-270.878157,-59.266041,52.918288000000004,0.045045,-0.207767,1.9424119999999998
1524,-159.243153,17.395285,25.574120999999998,-0.805188,0.175174,1.41323
1528,-9.155413000000001,-30.884259999999998,-2.685588,0.7013050000000001,-0.013306,1.317403
1532,-43.640803000000005,-10.925460000000001,1.09865,-0.077882,-0.025757,1.111955
1536,-19.409476,-4.455634,2.319371,0.056397,0.005371,1.054337
1540,-20.935378,-5.981537,2.868696,0.022095,-0.002441,0.9922030000000001
1544,-23.86511,-10.620279,2.685588,-0.025635,-0.022338999999999998,0.981827
1548,-11.169604,-10.070953999999999,0.793469,0.019532,-0.034058,1.0234530000000002
1552,-15.259022,-9.52163,0.48828900000000003,0.037232,-0.01294,1.000992
1556,-11.841001,-5.493248,0.9155409999999999,0.050904000000000005,-0.041505,1.023331
1560,-7.873655,-1.8921189999999999,1.342794,0.01648,0.008789,0.9710840000000001
1564,-12.512398,-2.563516,0.976577,0.059937,-0.057617999999999996,1.0118559999999999
1568,-10.681315,1.281758,1.7700470000000001,0.045533,-0.054322,0.98854
1572,-21.667811,-3.540093,1.70901,0.030639999999999997,-0.039185000000000005,0.966934
1576,-23.743038000000002,-3.295949,2.2583349999999998,0.11084200000000001,-0.05505499999999999,1.082902
1580,-19.043259,6.225681,7.812619000000001,0.104128,0.001465,0.956924
1584,-47.42504,3.295949,0.793469,-0.014159999999999999,-0.098146,0.9681540000000001
1588,-39.30724,3.540093,-7.6905470000000005,0.032105,-0.241581,1.010513
1592,-24.780652,4.8218510000000006,-0.854505,0.046021,-0.020142,1.011002
1596,-178.225376,9.094377,-28.931106,-0.189578,0.21643400000000002,0.744152
1600,-696.2996870000001,-174.25803,24.231327,-0.231449,0.098756,1.186664
1604,-14.587625,-70.252537,-23.376822,-0.105959,-1.081926,1.9999689999999999
1608,-58.777752,-60.547799,53.162431999999995,-0.32874000000000003,0.075196,0.251469
1612,68.604562,-14.221407999999998,26.550697999999997,-0.10388299999999999,0.340826,1.065934
1616,189.39498,7.385367,-9.82681,0.08069,0.309697,1.046891
1620,241.51979900000003,41.565576,-25.635157,-0.036988,-0.10656900000000001,1.093645
1624,268.863966,66.895552,-38.818952,0.435065,-0.258793,1.3620809999999999
1628,266.422522,67.566949,-61.280232,0.17236600000000002,-0.66981,1.4017549999999999
1632,250.24795899999998,56.702525,-35.523003,-0.083986,-0.644785,1.7355
1636,236.758984,78.370336,-4.882887,-0.024903,-0.634165,1.7650419999999998
1640,222.293431,68.787671,2.380407,0.215702,-0.617319,1.6196540000000001
1644,183.230335,63.172351,-34.79057,0.259525,-1.091325,1.498924
1648,114.56473600000001,130.67826399999998,-26.916915000000003,0.546639,-2.0000310000000003,0.681651
1652,-184.939345,-170.656901,53.528649,1.038468,-1.7451439999999998,-2.0000310000000003
1656,-276.554513,-107.789731,32.654307,-0.9984280000000001,0.20911,0.5732510000000001
1660,-185.122454,-46.448463000000004,40.650034000000005,1.6501720000000002,-0.048829000000000004,1.9999689999999999
1664,-78.858625,-55.664912,35.584039000000004,-0.5473720000000001,-0.271,1.440452
1668,-54.993515,-54.016938,13.305867000000001,-0.180423,0.004028,1.138811
1672,-7.751583,-29.48043,-3.1128400000000003,0.126711,0.065919,0.958145
1676,-28.564889,-1.7700470000000001,1.8310830000000002,0.098634,0.002441,1.049577
1680,-20.935378,8.42298,2.868696,0.023804,-0.020996,1.024186
1684,-20.691233999999998,8.545052,0.976577,0.030883999999999998,-0.066163,1.037369
1688,-12.32929,6.103609,2.2583349999999998,0.015503,-0.068482,1.010636
1692,-12.024109,2.746624,1.7700470000000001,0.005249,-0.055909,0.9713280000000001
1696,-9.643702000000001,-0.30518,1.464866,0.003052,-0.083742,1.023087
1700,-7.812619000000001,-7.01915,0.0,0.004883,-0.059815,0.980728
1704,-7.629511,-6.652933999999999,-0.854505,0.025391,-0.067628,0.989883
1708,-9.643702000000001,-2.80766,0.793469,0.024291999999999998,-0.086549,0.982925
1712,-19.287404000000002,-5.7984279999999995,-0.549325,0.025025,-0.066163,0.9713280000000001
1716,-25.146867999999998,-3.051804,0.0,0.054077999999999994,-0.149172,1.001724
1720,-15.381094000000001,0.30518,2.014191,0.042115,-0.089479,0.980117
1724,-30.029754999999998,2.624552,3.90631,0.0074459999999999995,-0.10974300000000001,1.0042879999999998
1728,-32.959487,4.394598,1.647974,-0.000488,-0.13464600000000002,0.985489
1732,-23.315785,0.48828900000000003,-12.451362,-0.005371,-0.235477,1.011002
1736,-21.789883,3.295949,-4.8218510000000006,0.046998000000000005,-0.1355,1.033463
1740,-125.307088,8.545052,-26.001373,-0.069459,0.177859,0.707408
1744,-492.744335,-124.635691,16.540779999999998,-0.827527,-0.380621,0.858167
1748,-732.860304,-246.52475800000002,145.754177,0.441413,-1.939971,1.9999689999999999
1752,30.395971999999997,46.570535,-31.860838,-0.30530300000000005,0.851087,1.9999689999999999
1756,133.363851,20.935378,7.507439,-0.24866100000000002,0.116579,0.301762
1760,158.693828,26.367590000000003,5.554284,0.138918,0.161746,0.862074
1764,235.355154,71.351186,-56.275273,0.473884,-0.132082,1.291524
1768,273.807889,69.275959,-80.628672,0.117433,-0.781262,0.854627
1772,230.655375,47.73022,-17.334249,-0.408453,-0.954849,1.06508
1776,198.42832099999998,40.955215,69.275959,-0.307988,-0.846815,1.5951170000000001
1780,176.882582,86.12191999999999,52.429999,0.713024,-0.7462270000000001,1.294453
1784,146.18143,2.075227,17.090104999999998,0.54432,-0.882216,1.103899
1788,68.48249,64.820325,-72.327764,0.273442,-1.259419,1.08571
1792,-12.573433999999999,93.44625,-54.505226,-0.110475,-1.997711,-1.017105
1796,-43.762875,-65.613794,-25.757229000000002,0.049194999999999996,-0.166384,1.689845
1800,-117.18928799999999,-151.369497,44.3122,0.28821199999999997,0.057984,0.905531
1804,-13.488975,-13.244831,6.591897,-0.172122,0.067628,0.904799
1808,-16.052491,2.685588,4.699779,-0.032593000000000004,0.06543099999999999,0.8841690000000001
1812,-12.085144999999999,-9.52163,0.183108,0.058106,0.030396,1.038834
1816,-6.347753,-1.953155,-0.183108,0.035889,0.049683,0.9820709999999999
1820,-9.52163,0.122072,2.197299,-0.019532,0.010254000000000001,1.0089270000000001
1824,-2.868696,-0.671397,0.48828900000000003,0.001343,0.008667,0.9980620000000001
1828,-3.051804,-2.075227,-0.183108,-0.0074459999999999995,-0.0058590000000000005,1.001358
1832,1.342794,0.793469,0.976577,0.02417,-0.000977,1.026505
1836,-6.164645,-1.7700470000000001,0.30518,-0.025025,-0.000488,0.992447
1840,-6.164645,-4.8218510000000006,-0.854505,0.002441,0.015869,0.972793
1844,-8.789197,-5.065995,-0.6103609999999999,-0.0037840000000000005,-0.009033,0.9956209999999999
1848,-8.484016,-4.150454,-0.9155409999999999,0.024413999999999998,-0.028931000000000002,1.0251620000000001
1852,-4.028382,-0.793469,-0.427253,0.008545,-0.031006,1.014298
1856,-4.333562000000001,-2.624552,-0.366217,0.010620000000000001,0.001221,0.973037
1860,-5.493248,-2.2583349999999998,-0.366217,0.003418,0.0542,1.084489
1864,-5.432212,-1.647974,0.0,-0.005615,-0.03772,0.9909819999999999
1868,-2.563516,-3.6011290000000002,-1.40383,0.027710000000000002,-0.040284,1.008194
1872,0.48828900000000003,1.586938,-0.366217,0.021485,-0.035401,1.008316
1876,2.868696,2.685588,-0.854505,0.018799,-0.041382,1.007218
1880,5.432212,4.699779,0.122072,0.010498,-0.030639999999999997,0.997818
1884,4.8218510000000006,3.234913,-0.366217,0.002441,-0.032349,1.0116120000000002
1888,8.484016,3.234913,-1.09865,0.019532,-0.020874,1.003433
1892,0.0,3.723201,0.48828900000000003,0.021118,-0.028076999999999998,1.028824
1896,0.183108,3.723201,0.366217,-0.025147,-0.011840999999999999,0.9835360000000001
1900,0.061036,-0.30518,-0.6103609999999999,0.004028,-0.030151999999999998,1.025406
1904,1.342794,4.394598,1.40383,-0.006714,0.000244,0.9904940000000001
1908,1.525902,-2.319371,-0.244144,-0.056275,-0.015381,0.972915
1912,0.671397,-5.249104,0.122072,0.032227,-0.056397,1.055192
1916,1.09865,0.671397,0.427253,-0.007201999999999999,0.017578,0.9663229999999999
1920,-1.281758,-4.21149,-0.732433,0.0035399999999999997,-0.010498,0.9900049999999999
1924,1.09865,-2.136263,0.122072,0.024048,-0.035279000000000005,1.032609
1928,-0.854505,2.075227,0.122072,-0.009155,0.0031739999999999997,0.9796290000000001
1932,-2.319371,-2.929732,-1.40383,0.005371,-0.0448,1.03566
1936,4.882887,3.540093,-0.244144,0.008545,0.02002,0.9720610000000001
1940,1.8921189999999999,0.183108,-0.732433,-0.044312,-0.012451,0.9712059999999999
1944,0.854505,-2.685588,-0.854505,0.006226,-0.020752,0.9991610000000001
1948,2.197299,1.40383,1.09865,0.0074459999999999995,-0.008911,1.005264
1952,0.427253,-2.075227,-0.671397,-0.000488,0.001709,0.978775
1956,0.9155409999999999,-1.953155,-0.549325,-0.005737,-0.0070799999999999995,0.988174
1960,-0.549325,-0.061036,0.061036,0.0074459999999999995,-0.011597,1.016373
1964,1.8310830000000002,0.793469,-0.244144,-0.014649,-0.005371,0.985245
1968,3.540093,-0.549325,-0.48828900000000003,0.014159999999999999,-0.003418,1.003311
1972,2.380407,0.244144,-0.427253,0.003296,0.000488,0.9984280000000001
1976,4.394598,0.671397,-0.48828900000000003,0.006836,-0.0070799999999999995,1.009049
1980,4.272526,0.793469,0.366217,-0.0035399999999999997,0.010498,0.978775
1984,5.371176,0.122072,0.30518,0.00293,0.004883,1.006119
1988,3.723201,-1.647974,0.061036,-0.003906,0.02417,0.965469
1992,-0.122072,-3.479057,-0.183108,0.003052,0.014527000000000002,0.992447
1996,-1.281758,-2.868696,-0.183108,0.006714,0.008789,0.9939120000000001
2000,-2.197299,-0.793469,0.061036,0.013672,0.027832,0.977432
2004,-2.136263,0.183108,-0.122072,0.013793999999999999,0.000122,1.017227
2008,-0.6103609999999999,0.6103609999999999,-0.122072,0.008057,0.003418,0.9991610000000001
2012,0.30518,1.159686,-0.793469,0.008057,0.022827,0.991592
2016,0.122072,0.732433,-1.159686,0.008545,0.005737,1.006729
2020,-0.122072,0.366217,-2.2583349999999998,0.011597,0.008789,1.008316
2024,2.563516,0.671397,-2.563516,-0.002441,0.015747,0.9914700000000001
