Packet number,Gyroscope X (deg/s),Gyroscope Y (deg/s),Gyroscope Z (deg/s),Accelerometer X (g),Accelerometer Y (g),Accelerometer Z (g)
0,-0.244144,-0.366217,-0.183108,0.0008550000000000001,-0.007935,0.986099
2,-1.281758,-0.30518,-0.122072,-0.003052,-0.013306,1.018326
4,-0.48828900000000003,0.0,-0.122072,0.0051270000000000005,-0.006226,0.9980620000000001
6,0.0,0.061036,-0.122072,0.0021969999999999997,0.003052,0.9945219999999999
8,-0.061036,-0.122072,-0.122072,-0.000732,-0.010131999999999999,1.006729
10,0.061036,0.061036,-0.183108,0.0063479999999999995,-0.0070799999999999995,0.997086
12,-0.30518,-0.061036,0.0,0.004273,-0.004273,1.002823
14,0.0,0.061036,-0.122072,0.0028079999999999997,-0.008057,0.991714
16,-0.122072,-0.061036,-0.244144,0.0028079999999999997,-0.003296,0.995865
18,-0.122072,-0.061036,-0.122072,0.00647,-0.0051270000000000005,1.001846
20,0.0,0.061036,-0.122072,0.006226,-0.0058590000000000005,0.999527
22,-0.122072,-0.061036,-0.183108,0.006104,-0.001831,0.992569
24,-0.30518,-0.244144,-0.122072,0.005982,-0.008179,0.9945219999999999
26,-0.549325,-0.061036,0.0,0.0058590000000000005,-0.005982,1.0040440000000002
28,-0.427253,0.061036,-0.122072,-0.003052,-0.010254000000000001,0.997086
30,-0.427253,0.0,0.0,0.006714,-0.013062,0.9941559999999999
32,-0.30518,-0.183108,-0.122072,0.009888,-0.008057,0.9901270000000001
34,-0.244144,-0.061036,-0.122072,0.0037840000000000005,-0.003296,0.999283
36,-0.366217,-0.244144,-0.183108,-0.000366,-0.005249,0.993301
38,-0.244144,-0.427253,-0.122072,0.006226,-0.00415,0.9941559999999999
40,-0.30518,-0.549325,-0.122072,0.000366,-0.004028,0.999893
42,-0.061036,-0.427253,0.0,0.0021969999999999997,-0.0037840000000000005,0.991714
44,-0.48828900000000003,-0.427253,0.0,0.007691,-0.006592,1.002579
46,-0.854505,-0.30518,0.0,0.007935,-0.015991,1.011002
48,1.40383,0.0,-0.122072,0.000488,-0.0031739999999999997,0.960464
50,-0.793469,-0.366217,0.0,-0.001709,-0.014649,1.005264
52,-1.342794,-0.30518,0.0,-0.0028079999999999997,-0.008057,1.012467
54,0.0,0.0,0.0,0.002441,-0.003906,0.994766
56,0.244144,0.122072,-0.244144,-0.000488,-0.005249,0.995865
58,-0.122072,0.0,0.0,0.000366,-0.006958,0.994034
60,-0.183108,-0.061036,-0.183108,0.000122,-0.008179,0.997574
62,-0.122072,-0.061036,-0.183108,0.007201999999999999,-0.007691,1.002213
64,0.0,0.122072,-0.122072,0.002075,-0.0028079999999999997,0.997818
66,-0.244144,-0.061036,-0.183108,0.003662,-0.008545,0.998184
68,-0.366217,-0.061036,-0.244144,0.0008550000000000001,-0.006592,0.99379
70,-0.183108,-0.183108,-0.183108,0.000488,-0.008545,1.006485
72,-0.061036,-0.122072,-0.122072,-0.000488,-0.003296,0.9976959999999999
74,0.366217,0.061036,-0.122072,-0.001343,-0.004639,0.993301
76,-0.244144,0.061036,-0.122072,-0.0015869999999999999,-0.005982,0.99379
78,-0.30518,0.183108,-0.122072,0.003052,-0.0074459999999999995,1.00148
80,0.0,0.122072,-0.122072,0.000977,-0.0043950000000000005,0.9948879999999999
82,0.0,0.122072,-0.122072,0.006226,-0.00647,0.996109
84,0.183108,0.122072,-0.122072,0.0023190000000000003,-0.00415,0.993057
86,0.061036,0.061036,-0.183108,0.0008550000000000001,-0.006226,0.9948879999999999
88,0.0,0.061036,-0.122072,0.003052,-0.004028,0.992569
90,-0.244144,-0.061036,0.0,-0.001709,-0.003418,0.998184
92,-0.6103609999999999,-0.061036,-0.122072,-0.00293,-0.0028079999999999997,1.001236
94,-0.183108,-0.244144,-0.183108,0.000366,-0.006104,1.0011139999999998
96,-0.122072,-0.244144,-0.122072,0.002686,-0.008301000000000001,0.9994049999999999
98,-0.732433,-0.30518,-0.122072,0.001343,-0.004761,0.991958
100,-0.061036,-0.122072,0.0,0.0035399999999999997,-0.0008550000000000001,0.9990389999999999
102,0.0,0.0,-0.122072,0.007201999999999999,-0.0074459999999999995,1.006119
104,-0.549325,-0.244144,-0.122072,0.003052,-0.000977,1.000381
106,0.0,-0.122072,-0.122072,0.001709,-0.0028079999999999997,0.9984280000000001
108,-0.30518,-0.183108,-0.122072,0.005493,-0.0037840000000000005,1.001602
110,0.0,0.0,-0.183108,0.0031739999999999997,-0.005371,0.999893
112,0.0,0.0,-0.122072,0.003052,-0.003906,0.993301
114,0.183108,0.0,0.0,0.0051270000000000005,-0.005615,0.999283
116,-0.366217,0.0,0.0,0.004761,-0.006592,0.9994049999999999
118,-0.183108,0.061036,0.0,0.00061,-0.0028079999999999997,1.000748
120,0.0,0.0,0.0,0.001221,-0.005493,1.001602
122,0.183108,0.0,0.0,-0.003296,-0.0035399999999999997,1.001602
124,-0.244144,-0.48828900000000003,0.0,0.005249,-0.006958,0.988907
126,-0.6103609999999999,-0.427253,0.0,0.0037840000000000005,-0.006836,0.998917
128,-0.549325,-0.48828900000000003,0.0,0.0,-0.007201999999999999,1.012345
130,-0.122072,-0.427253,0.0,0.0037840000000000005,-0.0031739999999999997,1.0008700000000001
132,0.9155409999999999,0.122072,0.061036,0.007201999999999999,-0.0058590000000000005,1.005142
134,0.671397,0.061036,0.0,0.0070799999999999995,-0.008667,0.992325
136,1.2207219999999999,0.48828900000000003,0.0,-0.004517,-0.005982,0.9870760000000001
138,-1.037613,-0.061036,0.061036,-0.000244,-0.014527000000000002,1.008682
140,0.0,0.0,0.122072,-0.0058590000000000005,-0.008423,1.000504
142,0.061036,0.061036,0.0,-0.010254000000000001,-0.007812999999999999,0.996353
144,-0.366217,-0.976577,0.122072,0.006836,0.0023190000000000003,1.007095
146,-0.30518,-0.244144,0.122072,-0.00647,-0.005615,1.015518
148,1.342794,0.427253,0.0,-0.003906,0.000366,0.99379
150,2.2583349999999998,0.366217,0.0,0.002075,-0.000122,0.993423
152,0.0,0.0,-0.30518,0.007324,-0.005371,1.0215
154,0.732433,0.366217,-0.6103609999999999,0.006958,-0.010742,0.9983059999999999
156,2.014191,0.671397,-0.427253,-0.004761,0.008301000000000001,1.001358
158,0.244144,0.549325,-0.48828900000000003,0.017456,-0.015503,0.958145
160,-0.244144,-0.9155409999999999,0.671397,-0.023072,0.005005,0.907118
162,-8.789197,-1.8310830000000002,-0.6103609999999999,-0.000122,-0.02002,1.0365149999999999
164,1.647974,0.061036,-0.244144,0.003296,-0.0063479999999999995,1.017105
166,1.525902,-0.793469,0.244144,-0.007568000000000001,0.019532,0.9900049999999999
168,0.976577,-2.197299,-0.30518,-0.000244,0.002441,0.9864649999999999
170,-1.40383,-3.234913,-0.244144,-0.0023190000000000003,-0.006714,0.989395
172,-1.037613,-3.234913,-0.183108,-0.000122,0.003418,0.973037
174,-3.1128400000000003,-2.990768,-0.30518,0.017212,-0.019532,1.0439610000000001
176,-0.6103609999999999,-1.647974,-0.183108,0.008667,-0.006714,1.0011139999999998
178,3.051804,-0.6103609999999999,0.0,0.012573,-0.009155,0.997452
180,1.647974,-1.586938,0.244144,0.003662,0.0043950000000000005,0.985367
182,-0.976577,-2.136263,0.122072,-0.006592,0.000366,0.9935450000000001
184,-0.793469,-2.563516,0.061036,0.011109,0.000732,0.984146
186,-1.037613,-2.868696,0.366217,0.016114,-0.0037840000000000005,0.993668
188,-2.075227,-2.929732,0.244144,0.0015869999999999999,-0.019776,1.015518
190,-0.122072,-3.234913,0.183108,-0.001953,0.0015869999999999999,0.9788969999999999
192,-2.197299,-5.127031,0.48828900000000003,-0.001099,0.037110000000000004,0.985245
194,-3.479057,-5.127031,-0.549325,0.01294,0.021851,0.9592430000000001
196,-13.855192,-4.8218510000000006,0.0,0.019409,-0.020630000000000003,1.060929
198,-7.629511,-2.624552,0.183108,0.028199000000000002,0.002564,0.9754790000000001
200,-10.437171000000001,-3.723201,0.976577,0.022216999999999997,-0.042847,1.0472569999999999
202,-4.8218510000000006,-2.380407,1.342794,0.028076999999999998,-0.06421,1.049943
204,1.40383,-3.1128400000000003,1.8921189999999999,0.008179,0.022827,0.9080950000000001
206,-7.568475,-7.263294,2.014191,0.026368,-0.012818000000000001,0.9911040000000001
208,-5.9205,-6.469825,2.136263,0.035767,-0.041627,1.023575
210,-4.21149,-5.3101400000000005,2.014191,0.037598,-0.029419,1.006119
212,-0.244144,-3.845274,2.380407,0.048951,-0.048707,1.017472
214,-4.882887,-3.1128400000000003,2.50248,0.028076999999999998,0.007324,0.947524
216,-9.033341,-5.61532,2.075227,0.035644999999999996,-0.001099,0.978042
218,-19.043259,-6.652933999999999,2.563516,0.055542999999999995,-0.001831,0.975723
220,-22.217136,-7.629511,1.7700470000000001,0.050660000000000004,-0.027587999999999998,1.033219
222,-20.569162,-5.981537,1.525902,0.040162,-0.041016000000000004,1.001236
224,-20.996414,-5.7984279999999995,1.464866,0.043336,-0.075196,1.018082
226,-15.686275,-6.2867169999999994,0.976577,0.026978,-0.058838999999999995,0.9980620000000001
228,-14.404517000000002,-8.789197,0.366217,0.039307,-0.072511,0.997574
230,-16.418708,-9.216449,0.671397,0.045288999999999996,-0.060792,1.019303
232,-18.799115,-7.6905470000000005,0.732433,0.048707,-0.09131,0.994034
234,-17.578393,-6.836042,0.9155409999999999,0.05359,-0.077638,0.9820709999999999
236,-17.212177,-7.080186,-0.244144,0.046387,-0.091188,1.0011139999999998
238,-17.578393,-6.958114,0.0,0.055787,-0.100343,1.01442
240,-14.282444,-4.577707,0.48828900000000003,0.069459,-0.114626,1.023209
242,-12.390326,-1.647974,1.464866,0.09057799999999999,-0.102174,1.039567
244,-10.193027,2.197299,3.234913,0.040894,-0.125612,0.977188
246,-9.155413000000001,2.380407,4.028382,0.061646000000000006,-0.084108,1.010513
248,-11.413748,2.929732,2.685588,0.07910299999999999,-0.072755,0.96791
250,-24.597542999999998,6.958114,6.042573,0.099245,-0.10547000000000001,0.9908600000000001
252,-34.851606,10.315099,7.568475,0.058227999999999995,-0.070069,1.008438
254,-42.420081,9.460594,4.272526,0.017823,-0.11572400000000001,1.0031889999999999
256,-47.73022,9.52163,-0.30518,0.030762,-0.14197,0.992691
258,-54.566262,6.958114,-3.90631,-0.0015869999999999999,-0.160647,0.999283
260,-51.880674,6.164645,-11.352712,0.026368,-0.206058,1.033707
262,-22.583351999999998,0.0,-12.573433999999999,0.128176,-0.20679,1.1120780000000001
264,-45.654994,14.160372,-6.408789,0.080934,-0.046632,1.081193
266,-81.483177,28.259709,-6.591897,0.0542,-0.023194,0.934585
268,-129.33547,33.936065,0.793469,0.082887,-0.16907,0.9052870000000001
270,-210.26932200000002,15.625238000000001,-12.756542,-0.154421,0.037964,1.096574
272,-451.54497599999996,36.255435999999996,33.142596000000005,0.308965,0.12878599999999998,1.652247
274,-593.1486990000001,48.462654,16.357671,0.083742,-0.108766,1.249897
276,-767.040513,95.094224,113.03883400000001,-0.750134,-1.598291,1.9999689999999999
278,103.089952,55.054551000000004,-45.471885,-0.400519,0.330938,1.9999689999999999
280,-117.18928799999999,-4.272526,15.869383,-0.42761899999999997,0.48426,1.611353
282,99.977111,-45.716029999999996,17.029068,-0.08142200000000001,0.449226,0.9749899999999999
284,22.827497,-46.082246000000005,8.056764,0.22571100000000002,0.379767,0.946304
286,95.94873,-16.357671,-24.536507,0.057984,0.346441,0.834974
288,108.94941599999999,-35.461967,-27.771420000000003,-0.153201,0.20947600000000002,0.944839
290,138.06363000000002,-38.513771000000006,-19.470512,-0.24329,0.23450100000000001,1.227192
292,188.845655,-19.104295,-7.080186,-0.31555700000000003,0.126833,1.354025
294,226.81010099999997,-14.0383,12.207218,-0.229496,-0.036255,1.068986
296,237.61348900000002,-18.493935,23.315785,0.067872,-0.068727,0.9553370000000001
298,246.64683,-15.686275,12.512398,0.282963,-0.051759000000000006,1.24184
300,263.73693399999996,-6.164645,-6.225681,0.23559899999999998,-0.09729199999999999,1.430564
302,279.301137,-7.01915,-19.165332,0.186282,-0.20556999999999997,1.370016
304,270.756085,-0.549325,-32.837415,0.169924,-0.37891199999999997,1.361227
306,255.436027,22.705425,-41.016251000000004,0.10803399999999999,-0.451179,1.604883
308,242.31326800000002,22.278172,-45.532921,0.142824,-0.44995799999999997,1.719265
310,224.979019,16.84596,-53.406577,0.148928,-0.548592,1.9999689999999999
312,268.314641,21.179522,-63.233387,-0.012818000000000001,-0.762829,1.9999689999999999
314,274.052033,31.921874,-60.364691,0.050660000000000004,-0.918959,1.4990459999999999
316,231.26573599999998,38.69688,-50.782025,-0.019165,-1.032853,1.4774399999999999
318,205.93576000000002,40.222782,-28.931106,-0.15820599999999999,-1.352926,1.322408
320,160.769055,41.443503,-20.080873,0.386847,-1.8379189999999999,0.8524299999999999
322,106.50797299999999,43.701839,-51.209277,0.800671,-2.0000310000000003,0.361822
324,45.838102,9.704738,-56.397344999999994,0.322393,-2.0000310000000003,-0.071046
326,-25.26894,-60.730906999999995,-20.935378,-0.167849,-1.392355,0.601328
328,-153.87197700000002,-83.802548,-42.542153000000006,-0.37793499999999997,-1.8910200000000001,-0.954116
330,-151.247425,-47.791257,21.911955,-0.373297,0.122805,1.3936979999999999
332,-279.850462,-68.36041800000001,41.504540000000006,-0.378668,0.11316099999999998,0.809461
334,-265.934234,-46.631571,60.547799,0.443366,-0.402472,1.9479060000000001
336,-193.91165,-33.875029,25.513085,1.03859,-0.38721300000000003,1.9999689999999999
338,-64.271,-10.070953999999999,9.155413000000001,-0.700572,0.21069699999999997,1.6925310000000002
340,-81.544213,-70.55771700000001,21.179522,0.9362940000000001,0.251102,1.9999689999999999
342,-2.80766,8.1178,0.671397,-0.505013,0.087037,1.139788
344,-35.156786,-25.574120999999998,1.342794,0.4065,-0.020996,1.3038530000000002
346,-27.283131,-6.652933999999999,2.746624,-0.016724,-0.024537,1.137713
348,-19.958801,-2.319371,1.7700470000000001,0.014771000000000001,0.009276999999999999,1.005997
350,-18.371862,1.464866,1.70901,0.072999,0.00061,1.0042879999999998
352,-21.362631,5.3101400000000005,2.197299,0.059204999999999994,-0.032471,1.07216
354,-17.761501000000003,9.887846000000001,2.50248,0.037598,-0.045045,1.048234
356,-14.465553,9.887846000000001,2.197299,-0.004761,-0.042237000000000004,1.013321
358,-7.9957270000000005,7.9957270000000005,1.525902,0.000244,-0.033936,1.007218
360,-6.897078,4.333562000000001,1.09865,0.005371,-0.05712999999999999,1.0205229999999998
362,-3.234913,2.197299,0.48828900000000003,0.010498,-0.046265,1.002335
364,-1.70901,0.48828900000000003,0.427253,0.017578,-0.048829000000000004,1.009293
366,-2.929732,0.183108,0.671397,0.006104,-0.032349,0.968643
368,-7.263294,-0.061036,0.9155409999999999,0.010986,-0.048707,1.003555
370,-6.775005999999999,-0.854505,1.2207219999999999,0.012818000000000001,-0.042969,0.998184
372,-7.080186,-3.051804,1.40383,-0.000122,-0.0448,0.9952540000000001
374,-5.7984279999999995,-5.859464,0.427253,0.010498,-0.059204999999999994,0.988296
376,-6.347753,-6.958114,0.183108,0.009888,-0.037232,0.970474
378,-15.13695,-8.484016,0.671397,0.019287000000000002,-0.024291999999999998,0.9517969999999999
380,-25.207904,-8.484016,1.037613,0.038697,-0.055787,1.014542
382,-26.794842,-5.676356,1.525902,0.039918,-0.072145,1.028092
384,-23.437858,-3.051804,1.8310830000000002,0.033204000000000004,-0.081788,1.018936
386,-22.034028,-3.051804,1.40383,0.029907999999999997,-0.062379,0.991836
388,-23.743038000000002,-5.61532,-0.48828900000000003,0.017823,-0.049439,0.968887
390,-36.865797,-7.812619000000001,-2.2583349999999998,0.031373000000000005,-0.104005,0.9830469999999999
392,-32.227053999999995,-6.71397,-0.30518,0.028931000000000002,-0.137209,1.006729
394,-33.936065,1.281758,6.347753,0.047242,-0.109865,1.002701
396,-43.51873,5.432212,9.704738,0.032958999999999995,-0.102174,0.9629049999999999
398,-56.641489,5.859464,8.056764,-0.0043950000000000005,-0.129274,0.9673
400,-63.416495,5.859464,4.760815,-0.048096,-0.125978,1.078508
402,-59.693293999999995,-3.967346,-15.991454999999998,0.000122,-0.261479,1.044938
404,-30.029754999999998,-5.61532,-18.310826000000002,0.058227999999999995,-0.268681,1.1112229999999998
406,-36.865797,3.051804,-10.498207,0.034791,-0.013916,0.98146
408,-103.212024,29.419394,-16.113526999999998,0.031861,0.10388299999999999,0.936416
410,-138.307774,-1.342794,-13.122759,-0.20923200000000003,0.529671,0.798596
412,-512.886244,-20.691233999999998,-5.554284,0.340215,0.354986,1.318257
414,-802.563516,-66.77348,50.659953,0.034302,-0.400397,1.4142059999999999
416,-993.91165,-93.018997,104.066529,0.752575,-2.0000310000000003,1.9999689999999999
418,193.179217,-62.50095400000001,-37.415122,-0.068971,0.169802,1.9999689999999999
420,109.254597,-19.775692000000003,-2.80766,-0.172854,1.153094,1.707546
422,78.736553,-41.80972,0.732433,-0.077394,-0.126101,0.8973530000000001
424,137.88052199999998,-21.667811,-20.569162,-0.054077999999999994,0.28186500000000003,0.14941600000000002
426,126.10055700000001,3.6011290000000002,-12.63447,-0.087037,0.194217,0.652598
428,151.857786,-17.212177,-13.733120000000001,-0.08581699999999999,0.297734,0.9719389999999999
430,210.75761,-14.160372,-20.813306,-0.056641,0.252934,1.294087
432,249.210346,6.164645,-24.96376,-0.129519,0.034791,1.206683
434,278.873884,14.648660999999999,-20.141909,-0.13159400000000002,-0.098024,1.026139
436,291.447318,20.141909,-13.183795000000002,-0.015625,-0.17322,1.218402
438,310.856794,23.132676999999997,-15.075914000000001,0.08142200000000001,-0.279667,1.169085
440,294.132906,36.743725,-21.911955,0.20032,-0.491829,0.807385
442,248.35584,42.847333,-28.259709,0.308965,-0.35547399999999996,1.518822
444,255.25291800000002,53.04036,-45.288777,0.2262,-0.427008,1.887968
446,239.44457200000002,64.637217,-38.941024,-0.016846,-0.637705,1.9999689999999999
448,251.04142799999997,54.932479,-27.466239,-0.129397,-0.780285,1.9999689999999999
450,290.409705,71.595331,-20.996414,-0.06225700000000001,-1.000992,1.9999689999999999
452,270.328832,84.901198,-13.916228,0.026001,-1.076921,1.503441
454,231.570916,76.234073,-10.925460000000001,0.072633,-1.118425,1.733181
456,213.199054,63.599603,-19.104295,0.330083,-1.656886,1.8277869999999998
458,174.441138,108.827344,-61.158159999999995,0.802991,-2.0000310000000003,0.957046
460,152.590219,138.307774,-77.02754300000001,0.363775,-2.0000310000000003,-1.415549
462,-59.14396899999999,-71.412222,-1.8921189999999999,-0.047608,-1.803006,-0.43445500000000004
464,-196.71931,-192.446784,22.400244,0.089113,-1.8600139999999998,-0.390021
466,-162.844282,-113.282979,41.382467,-0.207767,0.36536199999999996,1.9999689999999999
468,-226.016632,-82.948043,60.914015,-0.015015,0.180056,0.048341
470,-325.627527,-42.420081,72.266728,0.98439,-0.16430899999999998,1.682521
472,-216.18982200000002,38.452735,5.9205,0.948623,-0.47803500000000004,1.9999689999999999
474,-183.108263,-38.635843,35.339895,-1.391989,-1.1192799999999998,1.9999689999999999
476,-16.052491,-73.79263,6.469825,1.750393,0.272099,1.9999689999999999
478,-35.217822999999996,-8.484016,15.747310999999998,-0.831189,-0.014527000000000002,1.054215
480,-22.46128,-15.381094000000001,-1.2207219999999999,0.34460999999999997,0.015503,1.131731
482,-16.479744,-17.090104999999998,1.09865,0.10132000000000001,-0.053346000000000005,1.159197
484,-21.728847000000002,-1.8921189999999999,3.6621650000000003,-0.07190099999999999,-0.062623,1.0558020000000001
486,-12.695506,2.075227,2.197299,0.044923000000000005,0.00415,1.0160069999999999
488,-5.371176,6.103609,1.40383,0.05774,-0.0271,1.045548
490,-8.300908,9.643702000000001,1.342794,0.008789,-0.017334,1.000626
492,-11.413748,8.239872,0.976577,-0.027222000000000003,0.0037840000000000005,0.962051
494,-10.620279,5.737392,0.48828900000000003,-0.015259,-0.027955,1.0031889999999999
496,-10.254063,3.845274,0.549325,-0.104005,0.096193,1.333028
498,-12.146181,-0.732433,0.0,-0.021241,-0.049928,0.9559469999999999
500,-9.82681,-2.80766,-0.30518,-0.011109,-0.022583000000000002,0.963516
502,-14.465553,-4.272526,0.0,-0.009276999999999999,-0.041260000000000005,1.0037989999999999
504,-10.559242999999999,-2.624552,-0.183108,-0.041505,-0.000244,1.148455
506,-10.925460000000001,-4.5166699999999995,0.732433,0.001709,-0.052125,1.002457
508,-11.779964999999999,-4.760815,0.976577,0.013793999999999999,-0.059327,1.026749
510,-8.484016,-3.1128400000000003,1.525902,-0.067506,-0.004273,1.122942
512,-11.474784,-3.1128400000000003,2.2583349999999998,-0.028931000000000002,-0.038697,0.9515530000000001
514,-17.639429,-4.699779,3.234913,0.005982,-0.059692999999999996,1.017716
516,-17.700464999999998,-3.723201,1.70901,-0.0074459999999999995,-0.087648,0.9901270000000001
518,-27.038987,-6.103609,4.333562000000001,-0.020996,-0.065309,0.992447
520,-29.419394,-5.7984279999999995,3.234913,0.002564,-0.091066,0.9782860000000001
522,-31.982909999999997,-4.699779,3.1128400000000003,0.03003,-0.068971,0.992935
524,-40.039673,-2.136263,4.699779,-0.037842,-0.08191,0.9555809999999999
526,-44.129090999999995,-3.356985,4.089418,-0.052125,-0.09399600000000001,0.9858549999999999
528,-43.152514000000004,-0.366217,7.934691,-0.060426,-0.177249,1.000748
530,-36.377508,2.624552,7.934691,-0.011840999999999999,-0.141238,1.009415
532,-36.987869,-1.8310830000000002,4.028382,-0.115846,-0.084108,1.1277030000000001
534,-67.689021,-5.7984279999999995,-7.6905470000000005,-0.064454,-0.09424,0.993057
536,-80.201419,-6.408789,-15.747310999999998,0.048585,-0.282597,1.044327
538,-37.842374,-9.216449,-18.24979,0.034913,-0.271733,1.04567
540,-48.218509000000005,1.40383,-16.235599,0.07715,0.037232,0.9432520000000001
542,-112.48950900000001,21.789883,-28.564889,-0.035279000000000005,0.215335,0.8098270000000001
544,-191.042954,-19.165332,-19.775692000000003,0.100343,0.796399,0.949233
546,-614.328222,-33.203632,26.367590000000003,-0.43201300000000004,0.128908,1.254536
548,-745.922026,-99.977111,28.137635999999997,0.06384400000000001,-0.17847000000000002,1.067887
550,-1031.937133,-57.25185,185.48866999999998,-0.429572,-1.9016400000000002,1.9999689999999999
552,284.55024,-32.349126,-13.611048,-0.35730500000000004,0.676036,1.9999689999999999
554,-25.207904,-23.987182,45.777066,-0.34216799999999997,0.9591209999999999,1.741482
556,132.936599,-4.760815,44.251164,-0.13586600000000001,0.220462,1.107927
558,99.36675100000001,-8.42298,26.489662,0.093507,0.239506,0.347906
560,134.401465,-0.48828900000000003,18.188754,0.118288,0.22485700000000003,0.62562
562,134.82871699999998,-20.935378,6.103609,0.038452999999999994,0.250614,1.007462
564,198.733501,-19.470512,-10.864424,0.041138,0.202396,1.2256049999999998
566,231.143664,-1.159686,-22.034028,-0.08142200000000001,-0.029419,1.258076
568,264.10315099999997,7.385367,-17.517357,-0.21460300000000002,-0.22070599999999999,1.296773
570,290.409705,9.704738,-5.554284,-0.127077,-0.382818,1.316793
572,302.738994,24.231327,-6.775005999999999,0.020386,-0.48426,1.199115
574,295.71984399999997,25.818265,-13.488975,0.151125,-0.48340600000000006,1.157733
576,277.714199,19.531548,-30.090790999999996,0.42017200000000005,-0.43823900000000005,1.489403
578,271.549554,27.527276,-63.111315000000005,0.485725,-0.539193,1.888457
580,276.310369,43.030442,-83.49736800000001,0.149783,-0.749767,1.8220490000000003
582,270.023651,35.217822999999996,-73.670558,-0.026489999999999996,-0.790539,1.663111
584,249.51552599999997,30.823224,-67.20073199999999,0.110475,-0.6981310000000001,1.598535
586,226.138705,48.035401,-76.84443399999999,0.11902,-0.662608,1.664332
588,202.88395500000001,58.594643999999995,-76.417182,-0.088624,-0.8653700000000001,1.792386
590,185.244526,70.740826,-53.345541000000004,-0.175174,-1.277607,1.9999689999999999
592,187.685969,91.859312,-16.540779999999998,0.068116,-2.0000310000000003,1.680812
594,150.087739,99.24467800000001,-9.277485,0.952041,-2.0000310000000003,0.344244
596,82.21561,103.578241,-19.104295,0.581674,-2.0000310000000003,-1.057267
598,-131.105516,-69.398032,20.508125,-0.252201,-2.0000310000000003,-2.0000310000000003
600,-143.007553,-148.867018,16.968032,0.48731199999999997,0.6090180000000001,1.9999689999999999
602,-232.730602,-124.269474,31.738766,-0.756115,0.026123,0.011231
604,-312.077516,-82.459754,69.153887,0.722179,-0.581796,0.806775
606,-264.40833100000003,-19.34844,33.813992999999996,1.402976,-0.552499,1.9999689999999999
608,-186.58732,-17.334249,27.222095,-1.308003,-0.286503,1.9999689999999999
610,-17.94461,-119.08140700000001,36.743725,1.141985,0.308721,1.9999689999999999
612,-23.071641,2.4414439999999997,6.897078,-0.45593999999999996,0.003052,1.081926
614,-32.166018,-50.537881,1.525902,0.531868,-0.041871,1.252216
616,-40.588998,-20.019837,3.234913,-0.033936,-0.104128,1.143572
618,-20.508125,-8.789197,1.525902,0.072389,0.007568000000000001,1.02443
620,-10.376135000000001,-0.793469,2.075227,0.108766,0.020508000000000002,1.015274
622,-20.996414,6.836042,2.929732,0.058961,-0.023681999999999998,1.033097
624,-18.860151000000002,6.836042,3.6011290000000002,0.059083000000000004,-0.032349,1.017105
626,-20.874342000000002,2.380407,3.1128400000000003,0.017334,-0.034668,0.996231
628,-17.273213000000002,-0.427253,2.990768,0.011719,-0.056886,1.010758
630,-15.747310999999998,-4.333562000000001,3.051804,-0.000732,-0.038575,1.007218
632,-14.221407999999998,-7.873655,1.464866,0.02356,-0.05127,1.0095370000000001
634,-17.090104999999998,-10.070953999999999,0.793469,0.032958999999999995,-0.045655,0.9950100000000001
636,-19.165332,-10.437171000000001,0.30518,0.049194999999999996,-0.076783,1.046891
638,-14.221407999999998,-8.300908,0.427253,0.039796,-0.06640700000000001,0.984634
640,-20.752270000000003,-8.545052,0.48828900000000003,0.047608,-0.067506,1.006119
642,-20.935378,-8.545052,-1.09865,0.060182000000000006,-0.080323,1.002335
644,-19.592584,-6.225681,-0.854505,0.06274500000000001,-0.10656900000000001,1.005264
646,-22.034028,-4.089418,0.244144,0.062013,-0.128664,1.046525
648,-16.540779999999998,-1.2207219999999999,1.2207219999999999,0.07128999999999999,-0.106813,1.026993
650,-13.611048,1.09865,1.525902,0.07019199999999999,-0.11609100000000001,1.0196690000000002
652,-15.320058,1.037613,2.2583349999999998,0.065553,-0.095949,0.9702299999999999
654,-21.972992,0.9155409999999999,2.075227,0.06994700000000001,-0.10241900000000001,1.0323639999999998
656,-28.747996999999998,1.953155,1.7700470000000001,0.05712999999999999,-0.114382,1.002701
658,-29.053178000000003,1.70901,1.2207219999999999,0.06274500000000001,-0.11523599999999999,0.970352
660,-26.611734000000002,2.746624,2.990768,0.076905,-0.145876,1.0000149999999999
662,-28.686961,6.775005999999999,9.948882000000001,0.045899,-0.15552,1.009781
664,-35.461967,6.408789,10.193027,0.040284,-0.119875,1.010147
666,-43.457694000000004,4.943923000000001,4.333562000000001,0.007691,-0.122927,1.019181
668,-47.241932,5.432212,-1.8921189999999999,-0.044556,-0.166751,1.013443
670,-53.223468000000004,-0.427253,-17.700464999999998,0.042847,-0.343877,1.013687
672,6.408789,-10.925460000000001,-13.366903,0.146731,-0.266728,1.1543139999999998
674,-34.607462,11.779964999999999,1.40383,0.06421,0.110597,0.9388569999999999
676,-92.408637,31.799802000000003,-7.873655,-0.05139199999999999,0.338506,0.896742
678,-180.117494,-8.178836,-1.525902,-0.106081,0.658213,0.879164
680,-561.409934,-24.536507,16.540779999999998,-0.16125699999999998,0.167483,1.253925
682,-801.525902,-130.55619099999998,60.425727,-0.0907,-0.284916,1.058976
684,-1109.575036,-102.235447,232.79163799999998,-0.095216,-1.8585490000000002,1.9999689999999999
686,355.779355,-6.225681,-16.052491,0.20764499999999997,1.022477,1.9999689999999999
688,52.67414399999999,-12.207218,-10.009917999999999,-0.240238,0.84303,1.034562
690,111.573968,-10.376135000000001,-6.652933999999999,-0.003906,0.065553,0.492317
692,88.624399,1.342794,-26.550697999999997,0.137697,0.293584,0.077394
694,103.883421,-3.479057,-34.363316999999995,0.120851,0.324468,0.547616
696,120.24109299999999,-22.400244,-45.227740999999995,-0.031861,0.372564,0.985367
698,184.20691200000002,-15.320058,-49.134051,-0.13379100000000002,0.264775,1.219745
700,220.21820400000001,5.61532,-37.720302000000004,-0.345464,0.064088,1.219135
702,257.450217,20.935378,-10.925460000000001,-0.390875,-0.139406,1.251606
704,283.634699,31.311513,16.357671,-0.14538800000000002,-0.19202,1.346578
706,296.51331400000004,35.523003,12.939651,0.36585,-0.34876,1.4463110000000001
708,310.91783,46.082246000000005,-21.789883,0.5557949999999999,-0.549813,0.897719
710,252.56732999999997,53.162431999999995,-52.429999,0.408209,-0.6890970000000001,0.8305790000000001
712,204.40985700000002,42.359045,-58.899825,0.089357,-0.501228,1.7834740000000002
714,216.49500299999997,34.607462,-55.176623,0.058838999999999995,-0.599741,1.9999689999999999
716,251.468681,64.332036,-60.547799,0.015991,-0.75758,1.9999689999999999
718,258.304723,66.346227,-48.401617,-0.09131,-0.932143,1.9999689999999999
720,277.164874,78.126192,-34.302281,0.096315,-0.958267,1.742947
722,250.370031,84.473945,-28.503853000000003,0.220951,-1.041886,1.590845
724,223.39208100000002,81.91043,-28.381781,0.276738,-1.311788,1.486717
726,178.957809,85.755703,-53.71175699999999,0.759411,-2.0000310000000003,1.348653
728,162.661173,151.735714,-97.718776,0.553109,-2.0000310000000003,-0.23193699999999998
730,30.762188000000002,45.838102,-51.392386,-0.08838,-2.0000310000000003,-1.3748989999999999
732,-101.808194,-129.64065,20.019837,-0.193851,-1.794339,-1.239399
734,-239.93286,-223.453117,48.645762,0.36633899999999997,-0.451057,1.543359
736,-107.606622,-76.295109,46.204318,-0.450813,0.96144,1.417258
738,-278.812848,-110.780499,53.894865,0.765515,-0.386358,-0.251713
740,-326.420996,-52.552071,47.42504,1.3200889999999998,-0.17554,1.9999689999999999
742,-109.010452,31.067369,-6.591897,-0.51368,-0.284184,1.835966
744,-122.804608,-73.670558,49.805446999999994,-0.537362,-0.6029140000000001,1.2931110000000001
746,-53.162431999999995,-15.320058,-7.873655,1.266621,-0.273075,1.6314950000000001
748,-55.237658999999994,-32.104982,9.033341,-0.262821,-0.028564999999999997,0.933242
750,-35.339895,-4.089418,-4.699779,0.036622,0.011353,1.1814149999999999
752,-13.305867000000001,-15.13695,-6.408789,0.21948600000000001,-0.020752,1.0827799999999999
754,-20.202945,-6.164645,1.037613,0.000122,-0.101076,1.089616
756,-22.644388,-2.990768,2.197299,0.056764,-0.035767,1.023087
758,-12.817578,-0.427253,2.380407,0.080201,-0.043702,1.01442
760,-10.681315,2.380407,2.319371,0.024537,-0.080812,1.080949
762,-14.282444,-3.784237,3.1128400000000003,0.014282,-0.067994,1.00209
764,-9.887846000000001,-7.141222,2.685588,0.032227,-0.066773,1.017838
766,-6.958114,-7.385367,2.197299,0.037964,-0.055299,1.017838
768,-6.71397,-6.71397,1.525902,0.041871,-0.067262,1.019791
770,-6.469825,-5.249104,1.159686,0.043458,-0.064088,1.012467
772,-5.737392,-3.540093,1.525902,0.030151999999999998,-0.061646000000000006,0.994766
774,-6.225681,-4.21149,1.342794,0.039918,-0.060548000000000005,1.0037989999999999
776,-7.263294,-4.272526,1.342794,0.027710000000000002,-0.05651900000000001,0.98146
778,-13.794156,-6.2867169999999994,1.342794,0.037354000000000005,-0.033692,0.9715719999999999
780,-20.141909,-7.568475,1.2207219999999999,0.039307,-0.06640700000000001,0.986099
782,-23.376822,-6.347753,1.40383,0.06274500000000001,-0.090089,1.033463
784,-20.141909,-2.929732,1.70901,0.08142200000000001,-0.11718900000000002,1.045548
786,-13.733120000000001,0.122072,2.380407,0.061769000000000004,-0.08996699999999999,1.012833
788,-14.221407999999998,0.427253,2.319371,0.048341,-0.080201,0.989883
790,-19.958801,-1.40383,1.647974,0.036622,-0.070069,0.961318
792,-29.419394,-3.051804,1.647974,0.026368,-0.08105599999999999,0.964614
794,-36.987869,-6.775005999999999,1.7700470000000001,0.044068,-0.072633,1.061784
796,-36.072328000000006,2.136263,3.784237,0.11133,-0.11071900000000001,1.014908
798,-41.321431,10.437171000000001,12.390326,0.064698,-0.166751,0.982925
800,-50.049592,13.122759,16.113526999999998,0.01355,-0.14331300000000002,1.001358
802,-48.767834,12.32929,10.498207,-0.001831,-0.13904,0.9745020000000001
804,-54.932479,10.803388,1.464866,-0.080446,-0.252811,1.062028
806,-43.21355,-0.48828900000000003,-15.320058,0.06274500000000001,-0.301274,1.031754
808,-22.949569,-1.09865,-11.413748,0.067018,-0.24475500000000003,1.0669110000000002
810,-39.856565,9.094377,-9.582666,0.01648,0.079713,0.891249
812,-110.536355,30.090790999999996,-20.263981,-0.033936,0.38196399999999997,0.793957
814,-160.402838,-21.118485999999997,-16.113526999999998,-0.114626,0.712535,1.165057
816,-588.815137,-35.584039000000004,32.288090000000004,-0.5257649999999999,0.33789600000000003,1.385153
818,-838.757916,-161.31838,77.759976,0.022216999999999997,-0.605966,1.0047760000000001
820,-1086.930648,-162.417029,224.49072999999999,-0.18945599999999999,-1.2291450000000002,1.9999689999999999
822,347.966735,-25.452049,-42.725260999999996,0.266239,1.198749,1.9999689999999999
824,97.291524,-13.061722999999999,-33.447776,-0.48755600000000004,0.8805069999999999,0.920058
826,126.649882,-8.850233,-16.052491,-0.41113900000000003,0.194827,0.22571100000000002
828,88.624399,-8.606088,-5.493248,-0.24365599999999998,0.255863,0.18298599999999998
830,125.42916000000001,-9.155413000000001,-5.188067,-0.11804400000000001,0.297978,0.719371
832,145.693141,-6.469825,-12.451362,-0.04004,0.322637,1.081193
834,206.05783200000002,12.512398,-24.780652,-0.087404,0.23071599999999998,1.296773
836,251.40764500000003,24.353399,-26.550697999999997,-0.16101300000000002,0.04358,1.298726
838,285.465782,37.354085999999995,-19.714656,-0.11816600000000001,-0.10278499999999999,1.218402
840,301.09102,34.119172999999996,-12.939651,0.060548000000000005,-0.23291399999999998,1.108293
842,301.76241699999997,35.828183,-26.855878999999998,0.216678,-0.384527,0.878553
844,258.915084,89.662013,-43.762875,0.224125,-0.523079,0.871107
846,217.959869,75.928893,-43.152514000000004,0.129274,-0.379889,1.687037
848,225.10109100000003,68.116274,-40.466926,0.130617,-0.415045,1.9999689999999999
850,262.760357,92.59174499999999,-37.90341,0.161868,-0.612314,1.9999689999999999
852,285.404746,72.266728,-23.132676999999997,0.182376,-0.8446170000000001,1.9999689999999999
854,329.228656,89.295796,-21.789883,0.372564,-0.9588770000000001,1.829252
856,278.995956,78.61448100000001,-19.34844,0.23743000000000003,-1.159197,1.918853
858,258.487831,68.543526,-24.597542999999998,0.091554,-1.782864,1.790677
860,181.521324,128.05371200000002,-46.814679,0.662119,-2.0000310000000003,1.294453
862,185.97695900000002,243.53398900000002,-67.994202,0.49573500000000004,-2.0000310000000003,-1.113054
864,-26.428626,-17.395285,15.442129999999999,0.167971,-1.999786,-1.305318
866,-155.58098700000002,-210.025177,31.494621000000002,0.766735,-1.4677959999999999,-0.883192
868,-170.04654,-178.83573700000002,15.503166,-0.36230999999999997,0.05835,1.9999689999999999
870,-145.571069,-81.483177,34.485389,-0.908217,0.22571100000000002,-0.082887
872,-387.151904,-122.255283,93.568322,0.512215,-0.37219800000000003,1.1186690000000001
874,-261.78378,-7.507439,37.476158,1.9999689999999999,-0.605722,1.9999689999999999
876,-168.093385,2.075227,0.122072,-0.98793,-0.5786220000000001,1.9999689999999999
878,25.024796,-79.40795,21.179522,0.367071,0.36023499999999997,1.369284
880,-64.393072,11.352712,12.878614,-0.246098,-0.030762,1.264424
882,-27.954528000000003,-51.148241,3.723201,0.319707,0.055542999999999995,1.174334
884,-53.284504000000005,-27.710384,0.427253,-0.136233,-0.136477,1.1535819999999999
886,-21.667811,-23.071641,-3.479057,0.156374,0.006226,1.066789
888,-9.765774,-9.82681,0.48828900000000003,0.14868399999999998,-0.041138,1.081926
890,-29.907683000000002,2.624552,3.90631,0.083864,-0.078248,1.100359
892,-13.550010999999998,11.657893,4.089418,0.06884900000000001,-0.062989,1.062516
894,-4.089418,12.573433999999999,3.784237,0.004639,-0.051148,1.019303
896,-7.812619000000001,7.9957270000000005,3.1128400000000003,0.006836,-0.036378,0.9790190000000001
898,-7.507439,5.3101400000000005,2.136263,0.010864,-0.060548000000000005,0.997574
900,-4.272526,4.638743,2.075227,0.015137000000000001,-0.055542999999999995,1.0000149999999999
902,-5.7984279999999995,2.380407,1.647974,0.019898,-0.050538,0.9907379999999999
904,-7.385367,4.333562000000001,-1.037613,0.15613,-0.262577,0.589242
906,-13.611048,1.586938,1.70901,0.019776,-0.055177,0.953506
908,-15.991454999999998,1.70901,2.014191,-0.003052,-0.0448,0.9817040000000001
910,-19.409476,-0.30518,2.197299,0.008911,-0.08581699999999999,1.012833
912,-16.418708,-1.09865,2.075227,0.004761,-0.099977,1.029557
914,-11.047532,-2.380407,1.2207219999999999,0.005737,-0.08984500000000001,1.010513
916,-13.488975,-5.371176,0.793469,0.021851,-0.061646000000000006,0.984878
918,-15.259022,-6.2867169999999994,0.0,0.027222000000000003,-0.08716,0.998184
920,-17.517357,-4.882887,0.732433,0.036255,-0.093141,1.028214
922,-16.052491,-2.4414439999999997,1.40383,0.019653999999999998,-0.11950899999999999,1.016373
924,-13.183795000000002,-4.150454,0.671397,-0.008667,-0.077394,0.9589989999999999
926,-23.376822,-10.193027,-1.7700470000000001,-0.0094,-0.06482,0.932876
928,-34.180209000000005,-14.221407999999998,-4.028382,0.033082,-0.095338,0.985611
930,-42.236973,-11.841001,-0.244144,0.004028,-0.164187,1.008438
932,-33.69192,-0.427253,6.591897,0.033569999999999996,-0.18396300000000002,1.065934
934,-29.17525,2.624552,8.850233,0.009155,-0.11511400000000001,1.017594
936,-39.612421000000005,2.014191,6.836042,0.00415,-0.10486,0.98146
938,-51.209277,2.136263,3.051804,-0.006226,-0.10901,1.001968
940,-64.759289,-0.6103609999999999,-9.399557000000001,-0.018433,-0.229252,1.0401770000000001
942,-26.733806,-4.8218510000000006,-13.061722999999999,0.031006,-0.28076599999999996,1.051408
944,-32.410163,0.366217,-7.568475,0.11840999999999999,-0.069337,0.991958
946,-97.291524,21.545739,-18.493935,0.107057,0.22900700000000002,0.8573129999999999
948,-155.947204,0.6103609999999999,-21.545739,-0.016358,0.38709099999999996,0.67396
950,-440.314336,-33.752956,-39.124132,0.052247,0.340093,1.6802009999999998
952,-742.4429690000001,-155.642023,12.085144999999999,-0.17383099999999999,-0.43042600000000003,1.070451
954,-808.5450519999999,-157.473106,71.839475,0.316289,-1.134539,1.185565
956,-300.236515,-150.576028,21.118485999999997,-0.041016000000000004,-1.249897,1.9999689999999999
958,216.55603900000003,-16.174563,-86.610208,0.11877599999999999,1.243549,1.9999689999999999
960,30.823224,-4.028382,-56.275273,-0.497932,0.23987199999999997,1.595605
962,240.78736600000002,37.964446,-35.645075,-0.5700770000000001,0.190433,0.11133
964,126.77195400000001,23.620966,16.84596,-0.448371,-0.061524,0.331304
966,183.718624,16.235599,31.921874,-0.139284,0.106447,0.674571
968,184.573129,20.935378,28.015564,0.080934,0.13684300000000002,1.1488209999999999
970,237.00312799999998,31.128404999999997,11.413748,0.142702,0.124636,1.16054
972,263.18761,40.588998,-1.09865,0.177859,-0.008911,1.175799
974,281.986725,45.044633000000005,-8.545052,0.240116,-0.162966,1.245747
976,290.89799300000004,48.767834,-27.344167,0.325444,-0.441169,1.4300760000000001
978,298.527504,49.195087,-41.504540000000006,0.261112,-0.585824,1.435935
980,286.930648,46.692607,-46.936751,0.12878599999999998,-0.7782100000000001,1.547875
982,278.812848,40.955215,-43.945983,-0.035401,-0.788098,1.549218
984,259.342336,55.603876,-38.086519,-0.047852,-0.692393,1.541894
986,232.60852999999997,73.365377,-30.151827,0.08423,-0.6202489999999999,1.8230259999999998
988,232.547494,75.31853199999999,-24.658579,0.25500900000000004,-0.6460060000000001,1.9999689999999999
990,246.585794,75.19646,-25.207904,0.236942,-0.751476,1.845853
992,230.472267,59.998474,-21.911955,0.14343499999999998,-0.875257,1.442405
994,187.869078,50.354772,-29.785611,0.333623,-1.2809030000000001,1.363424
996,136.04943899999998,92.77485300000001,-66.77348,0.6671239999999999,-2.0000310000000003,1.45449
998,130.189975,175.234607,-82.459754,0.156497,-2.0000310000000003,0.211063
1000,39.917601,53.833829,-6.530861,-0.266117,-2.0000310000000003,-1.527733
1002,-297.795071,-240.48218500000002,67.444877,1.3076370000000002,-1.573999,-0.585214
1004,-116.39581899999999,-138.429847,12.63447,-0.188479,1.114275,1.9999689999999999
1006,-249.088273,-102.601663,41.016251000000004,-0.605112,-0.011353,-0.099977
1008,-338.933394,-93.995575,77.271687,1.1245290000000001,-0.21826500000000001,1.9999689999999999
1010,-157.595178,2.746624,-1.586938,0.700572,-0.628183,1.9999689999999999
1012,-112.001221,-66.346227,37.537194,-1.17763,-0.39392699999999997,1.669093
1014,-16.784924,-33.447776,-7.873655,1.6604259999999997,-0.16125699999999998,1.615381
1016,-72.999161,-11.413748,10.620279,-0.40576799999999996,-0.056641,0.924208
1018,-20.630198,10.131991000000001,-4.882887,-0.089723,-0.072999,1.02211
1020,-20.263981,-4.150454,-1.953155,0.195804,-0.057252,1.116228
1022,-13.855192,3.356985,2.685588,0.059692999999999996,-0.06543099999999999,1.108293
1024,-5.249104,7.080186,2.990768,-0.020630000000000003,0.019043,0.95314
1026,-13.305867000000001,7.751583,3.051804,0.05005,-0.049194999999999996,1.06215
1028,-12.207218,13.366903,4.760815,-0.001099,-0.043213999999999995,0.996597
1030,-14.160372,10.559242999999999,5.249104,-0.021241,-0.031495,0.9754790000000001
1032,-13.733120000000001,6.2867169999999994,4.394598,-0.026123,-0.04065,1.0042879999999998
1034,-12.207218,2.2583349999999998,3.051804,-0.019776,-0.052613,0.9715719999999999
1036,-12.024109,-1.647974,1.464866,-0.121584,0.036011,1.252216
1038,-14.404517000000002,-3.234913,0.122072,-0.021606999999999998,-0.076783,0.949599
1040,-11.657893,-3.967346,0.854505,-0.027466,-0.038452999999999994,0.977798
1042,-15.442129999999999,-6.71397,1.037613,-0.014405000000000001,-0.075196,0.9986719999999999
1044,-13.427939000000002,-7.934691,-1.159686,-0.069093,-0.150393,0.9660790000000001
1046,-14.831769,-10.376135000000001,0.48828900000000003,0.001953,-0.070314,1.0359040000000002
1048,-11.535821,-8.728161,0.48828900000000003,-0.006226,-0.083131,1.015396
1050,-14.404517000000002,-5.493248,2.014191,-0.001221,-0.07483,0.984756
1052,-20.325017000000003,-5.7984279999999995,3.234913,0.012695999999999999,-0.099611,1.042741
1054,-14.0383,-3.1128400000000003,3.723201,0.019532,-0.10888800000000001,1.0283360000000001
1056,-11.718929,-2.075227,4.028382,0.006836,-0.10241900000000001,1.0247959999999998
1058,-11.352712,-0.976577,3.540093,0.036622,-0.08618300000000001,1.0008700000000001
1060,-14.648660999999999,0.671397,4.699779,0.019776,-0.08520599999999999,0.963882
1062,-25.085832,-0.366217,5.9205,-0.004517,-0.06713999999999999,0.945693
1064,-40.039673,-4.089418,5.432212,-0.044312,-0.09033300000000001,0.9793850000000001
1066,-42.786297,-3.6011290000000002,6.958114,0.0023190000000000003,-0.18188800000000002,0.987808
1068,-34.546426000000004,-1.525902,9.399557000000001,-0.0094,-0.169192,0.9903719999999999
1070,-32.654307,-1.09865,8.361944,0.00647,-0.126589,1.0247959999999998
1072,-33.69192,0.366217,2.4414439999999997,0.044312,-0.18701500000000001,0.8726940000000001
1074,-59.14396899999999,-4.028382,-5.371176,-0.04004,-0.166262,1.046159
1076,-49.683375,-1.7700470000000001,-12.512398,0.035157,-0.287358,1.0842450000000001
1078,-23.620966,4.089418,-7.080186,0.043702,-0.21130700000000002,0.875502
1080,-64.209964,-5.981537,-21.728847000000002,0.11108599999999999,0.092775,0.7951779999999999
1082,-138.673991,15.564201999999998,-26.67277,0.018799,0.209842,0.8289920000000001
1084,-281.31532799999997,-16.906996,-42.236973,0.126833,0.790295,0.991836
1086,-718.7609669999999,-2.197299,48.950942,-0.36853600000000003,0.098878,1.109636
1088,-802.6855879999999,-95.460441,62.073701,-0.349981,-0.68629,0.534188
1090,-764.049744,-150.39292,187.441825,-1.060441,-0.814221,1.9999689999999999
1092,131.898985,-130.495155,0.854505,0.440436,1.594018,1.9999689999999999
1094,-20.019837,-1.7700470000000001,-23.315785,-0.134035,0.6362399999999999,1.9999689999999999
1096,251.1635,45.471885,-51.575494,-0.359625,0.333867,0.415167
1098,141.908904,14.221407999999998,-6.408789,-0.323369,0.061524,-0.072633
1100,161.867704,-8.545052,7.385367,-0.169924,0.129397,0.44617399999999996
1102,160.646983,-23.315785,10.742351,-0.063722,0.242802,1.184955
1104,228.45807599999998,-10.620279,-1.70901,-0.032471,0.200931,1.245991
1106,260.013733,-3.479057,-9.338521,-0.062501,0.039063,1.0799729999999998
1108,284.79438500000003,3.6621650000000003,-14.526589000000001,-0.04773,-0.086549,1.059464
1110,296.269169,14.221407999999998,-18.493935,0.037598,-0.14685299999999998,1.263081
1112,310.12436099999996,21.484703,-34.607462,0.079347,-0.41614399999999996,1.171893
1114,290.65384900000004,79.957275,-43.884947,0.186893,-0.563607,0.468635
1116,221.07270899999997,40.527962,-57.25185,0.391608,-0.331426,1.3033649999999999
1118,205.508507,66.956588,-75.257496,0.141604,-0.342412,1.9999689999999999
1120,287.907225,77.69894000000001,-74.891279,-0.140017,-0.7469600000000001,1.9999689999999999
1122,310.49057799999997,59.998474,-54.261081999999995,-0.150637,-1.093767,1.9933169999999998
1124,276.371405,90.150301,-33.752956,0.038941,-1.080827,1.9999689999999999
1126,282.475013,88.685435,-33.508812,0.504768,-1.275166,1.9999689999999999
1128,243.106737,85.938811,-31.677729,0.41638800000000004,-1.810941,1.419577
1130,182.070649,56.153201,-16.540779999999998,0.58558,-2.0000310000000003,0.9149309999999999
1132,112.001221,86.671244,-46.692607,0.703868,-2.0000310000000003,-0.24170300000000003
1134,7.507439,34.851606,-24.841688,-0.008423,-2.0000310000000003,-0.921157
1136,-249.57656200000002,-220.767529,68.299382,0.568978,-0.636362,1.381735
1138,-68.665599,-41.565576,28.931106,-0.916518,1.3990690000000001,1.9999689999999999
1140,-276.12726000000004,-121.33974199999999,62.378882,0.059083000000000004,-0.255863,-0.597665
1142,-369.756619,-75.928893,90.02822900000001,1.585351,-0.207523,1.9999689999999999
1144,-95.887694,47.669184,-15.747310999999998,0.408209,-0.186526,1.6627450000000001
1146,-163.393606,-56.94667,45.838102,-1.13576,-0.870375,1.5914549999999998
1148,-21.850919,-41.870756,2.075227,1.4990459999999999,0.137942,1.702419
1150,-45.166705,-23.437858,11.841001,-0.539315,-0.026733999999999997,1.01442
1152,-28.259709,-12.390326,-3.845274,0.076783,0.015137000000000001,0.9945219999999999
1154,-23.743038000000002,-23.498894,-1.464866,0.203372,-0.068727,1.250996
1156,-16.723888,-3.418021,2.746624,-0.048707,-0.025147,1.029068
1158,-16.418708,3.295949,3.051804,0.040284,0.006958,0.9870760000000001
1160,-17.334249,5.3101400000000005,3.6011290000000002,0.069459,-0.042602999999999995,1.0778969999999999
1162,-12.512398,7.873655,4.699779,0.012818000000000001,-0.040527999999999995,1.0129549999999998
1164,-13.672084,5.981537,5.0049589999999995,-0.015503,-0.049561,1.014908
1166,-9.033341,4.943923000000001,4.760815,-0.008301000000000001,-0.052003,1.005142
1168,-6.347753,0.9155409999999999,3.784237,-0.025635,-0.031738999999999996,0.9828030000000001
1170,-5.493248,-5.127031,1.586938,-0.013916,-0.041749,0.9896389999999999
1172,-3.6621650000000003,-7.751583,0.549325,-0.003052,-0.06286699999999999,1.031754
1174,-0.732433,-5.371176,0.9155409999999999,0.017212,-0.04773,0.9154190000000001
1176,-2.685588,-4.455634,1.09865,-0.005982,-0.017212,0.961685
1178,-11.047532,-7.629511,1.586938,-0.0063479999999999995,-0.045288999999999996,1.006485
1180,-7.751583,-12.146181,0.976577,0.134401,-0.096803,0.794079
1182,-7.934691,-12.024109,-0.549325,0.03418,-0.065064,1.04445
1184,-5.0049589999999995,-9.216449,-0.6103609999999999,0.048829000000000004,-0.08069,1.022232
1186,-4.028382,-6.469825,0.244144,0.028199000000000002,-0.06384400000000001,1.007584
1188,-4.760815,-4.21149,0.854505,-0.021606999999999998,0.066163,1.253681
1190,-6.225681,-3.845274,1.8921189999999999,0.016724,-0.054810000000000005,0.910292
1192,-18.005646,-7.385367,2.50248,0.005249,-0.003418,0.916274
1194,-31.372549,-8.911269,2.563516,0.038209,-0.062013,0.9935450000000001
1196,-33.020523,-6.469825,3.90631,0.044556,-0.106325,1.0370030000000001
1198,-28.442816999999998,-4.5166699999999995,4.760815,0.035157,-0.060182000000000006,0.9602200000000001
1200,-34.851606,-2.136263,8.056764,0.089723,-0.053834,0.977554
1202,-53.345541000000004,0.793469,11.596857,0.08191,-0.084108,0.9950100000000001
1204,-55.115587,5.859464,11.047532,0.099855,-0.13122799999999998,1.1158620000000001
1206,-44.983596999999996,8.789197,9.704738,0.021241,-0.04419,0.9858549999999999
1208,-78.919661,9.887846000000001,7.141222,-0.050782,-0.086549,0.9705959999999999
1210,-82.825971,4.5166699999999995,-9.887846000000001,-0.008423,-0.332403,1.067399
1212,-49.317159000000004,-6.652933999999999,-15.869383,-0.103395,-0.007691,1.2047299999999999
1214,-97.230488,11.657893,-11.841001,0.006836,0.314336,0.802747
1216,-181.643397,0.061036,-6.775005999999999,-0.183841,0.348882,0.8800180000000001
1218,-540.352483,-15.930419,2.868696,0.122072,0.091188,1.1610280000000002
1220,-753.97879,-69.520104,40.588998,-0.17236600000000002,-0.417609,1.412131
1222,-989.272908,-104.188602,134.523537,-0.017823,-2.0000310000000003,1.9999689999999999
1224,203.311208,-48.096437,-11.169604,-0.41821899999999995,0.659068,1.9999689999999999
1226,120.24109299999999,3.418021,23.498894,-0.402106,1.013077,1.5284659999999999
1228,111.69604,-6.2867169999999994,35.523003,-0.137575,0.142702,0.40283800000000003
1230,94.30075500000001,-20.447089000000002,21.179522,0.061890999999999995,0.287968,0.22119499999999997
1232,123.048753,-11.841001,0.0,0.16614,0.32117199999999996,0.8402229999999999
1234,146.669718,-10.315099,-21.728847000000002,0.12414700000000001,0.369512,1.238178
1236,214.35873999999998,-0.48828900000000003,-38.086519,0.015747,0.258549,1.266133
1238,247.623407,16.540779999999998,-40.772107,-0.066285,0.056031,1.1856870000000002
1240,278.202487,26.916915000000003,-33.203632,-0.038819,-0.09362899999999999,1.227192
1242,304.509041,23.987182,-27.710384,0.12268299999999999,-0.173465,1.257954
1244,319.03562999999997,21.179522,-38.757915999999994,0.272465,-0.339971,0.8910049999999999
1246,273.868925,50.354772,-51.758602,0.252689,-0.5081859999999999,0.49573500000000004
1248,218.326085,52.857252,-50.598917,0.059571000000000006,-0.306035,1.5118639999999999
1250,217.53261600000002,61.707485,-38.941024,-0.024048,-0.329717,1.9999689999999999
1252,297.062638,79.10276999999999,-26.916915000000003,-0.070436,-0.6521100000000001,1.9999689999999999
1254,297.18471,51.819638,-2.319371,-0.012206999999999999,-0.795666,1.9999689999999999
1256,342.412451,62.439918000000006,-9.643702000000001,0.3075,-0.911391,1.879911
1258,294.560159,60.914015,-20.691233999999998,0.221073,-1.074846,1.959991
1260,267.3991,61.34126800000001,-23.437858,-0.046876,-1.5957270000000001,1.616724
1262,191.592279,98.146029,-29.968719,0.496468,-2.0000310000000003,1.2050969999999999
1264,135.866331,202.273594,-80.079347,0.714,-2.0000310000000003,-0.13684300000000002
1266,20.996414,77.515831,-44.739452,0.00647,-2.0000310000000003,-1.298726
1268,-107.66765900000001,-141.847868,28.381781,-0.160281,-1.3706260000000001,0.634653
1270,-103.212024,-155.825132,66.895552,-0.46912299999999996,1.2383,1.486961
1272,-150.94224499999999,-86.060884,87.342641,-1.083879,0.691295,0.559945
1274,-293.705653,-119.203479,115.419242,0.894911,-0.368902,0.46363000000000004
1276,-319.401846,-74.525063,84.107729,1.9999689999999999,-0.134035,1.9999689999999999
1278,-91.55413100000001,-4.272526,-23.559929999999998,0.643687,0.004883,1.865995
1280,-123.292897,12.939651,12.268253999999999,-1.586938,-0.307866,1.441306
1282,-86.366064,-102.84580799999999,40.10071,0.970474,0.191653,1.9999689999999999
1284,-22.705425,6.225681,2.50248,-0.339971,-0.051637,0.983658
1286,-60.608835,-60.547799,4.150454,0.5125810000000001,-0.059692999999999996,1.185443
1288,-56.214237,-12.451362,4.699779,-0.19104300000000002,-0.069215,1.1631040000000001
1290,-18.310826000000002,-16.968032,-1.281758,0.108644,0.028564999999999997,1.121843
1292,-13.122759,-7.751583,1.159686,0.101198,-0.054444000000000006,1.137469
1294,-14.343481,-1.40383,3.418021,0.08520599999999999,-0.041382,1.053727
1296,-8.239872,2.990768,2.868696,0.071412,-0.030518,1.01442
1298,-7.446403,3.173877,2.380407,0.047852,-0.018311,0.9950100000000001
1300,-8.361944,1.464866,2.136263,0.010864,-0.10888800000000001,0.9550930000000001
1302,-10.437171000000001,-1.09865,2.685588,0.052125,0.013184,1.050065
1304,-7.141222,-1.70901,2.563516,0.05139199999999999,0.022338999999999998,1.0520180000000001
1306,-2.563516,-0.732433,1.159686,0.030274000000000002,-0.024291999999999998,1.011002
1308,-7.141222,-3.234913,1.09865,0.017456,-0.017334,0.985611
1310,-11.291675999999999,-5.9205,0.976577,0.037842,-0.083253,0.96083
1312,-14.099336,-7.629511,0.854505,0.046632,-0.041993,0.988785
1314,-12.573433999999999,-7.873655,0.671397,0.029541,-0.042481,0.9681540000000001
1316,-19.836728,-9.582666,0.549325,0.065064,-0.07483,1.0199129999999998
1318,-15.686275,-7.751583,0.549325,0.07727200000000001,-0.072633,1.002701
1320,-16.479744,-6.591897,1.70901,0.067262,-0.077028,1.001236
1322,-22.888533,-5.188067,2.80766,0.07946900000000001,-0.079225,1.008438
1324,-23.193713,-4.394598,2.868696,0.076295,-0.053956,0.975967
1326,-34.912642,-4.272526,2.990768,0.08142200000000001,-0.06640700000000001,1.067521
1328,-32.715343,0.732433,1.8310830000000002,0.069215,-0.08996699999999999,1.0095370000000001
1330,-40.344854,0.9155409999999999,2.4414439999999997,0.062501,-0.135988,1.025528
1332,-38.818952,6.103609,7.507439,0.088258,-0.12060699999999999,1.04152
1334,-47.241932,9.887846000000001,10.193027,0.029053,-0.071046,0.980606
1336,-56.763560999999996,10.803388,5.554284,0.06958099999999999,-0.126711,0.9788969999999999
1338,-57.312886,13.916228,4.577707,0.031495,-0.144656,0.9984280000000001
1340,-56.397344999999994,13.550010999999998,-2.868696,-0.05835,-0.201785,1.0112459999999999
1342,-39.734493,1.159686,-24.170291,0.112795,-0.325322,1.16286
1344,-2.380407,6.225681,0.30518,0.125002,0.16321,0.929213
1346,-127.870604,41.931792,-5.065995,0.067384,0.182498,0.9069959999999999
1348,-181.094072,-13.488975,9.948882000000001,-0.148318,0.68043,0.88307
1350,-487.86144800000005,-36.133364,43.030442,-0.5988859999999999,0.387701,1.204242
1352,-801.647974,-212.466621,51.209277,-0.077394,0.030274000000000002,1.361349
1354,-1082.291905,-108.278019,173.586633,0.252445,-1.056901,1.9999689999999999
1356,357.305257,80.018311,-77.821012,-0.032715,0.818372,1.9999689999999999
1358,169.069963,-15.808347,-66.956588,-0.9131,0.659434,0.47815699999999994
1360,32.043946000000005,-24.536507,10.498207,-0.356329,-0.172244,0.064088
1362,117.31136000000001,20.325017000000003,8.850233,-0.037842,0.310674,0.12134
1364,70.679789,25.574120999999998,9.033341,0.06274500000000001,0.33655300000000005,0.8332649999999999
1366,142.946517,9.277485,-6.2867169999999994,0.158572,0.453132,1.2568549999999998
1368,192.690929,18.371862,-23.132676999999997,0.163699,0.298466,1.591821
1370,256.77882,39.612421000000005,-35.645075,0.083497,0.051759000000000006,1.266621
1372,281.071183,34.241245,-32.776379,0.050294,-0.21240599999999998,0.932143
1374,276.737621,27.649348,-27.161059,0.094118,-0.217166,0.9673
1376,270.634012,34.485389,-30.334936,0.223392,-0.285405,1.148211
1378,254.70359399999998,52.67414399999999,-39.00206,0.307622,-0.401373,1.254902
1380,247.074083,55.725947999999995,-52.613108,0.316777,-0.35730500000000004,1.470359
1382,223.27000800000002,67.933165,-56.885633999999996,0.23425700000000002,-0.401862,1.9920959999999999
1384,240.421149,58.655680000000004,-50.476844,0.113283,-0.529305,1.9999689999999999
1386,286.442359,48.096437,-43.030442,0.123537,-0.657115,1.9999689999999999
1388,296.818494,59.266041,-40.344854,0.13196,-0.8294799999999999,1.8890669999999998
1390,268.253605,61.951629000000004,-30.334936,0.016114,-1.097795,1.716579
1392,234.927901,71.473259,-23.132676999999997,0.092775,-1.460472,1.40444
1394,161.257343,106.935225,-37.354085999999995,0.6716409999999999,-2.0000310000000003,1.315328
1396,123.170825,196.353094,-74.280919,0.56788,-2.0000310000000003,0.5511560000000001
1398,71.839475,115.60235,-39.429313,0.051881,-2.0000310000000003,-1.3551229999999999
1400,-132.570382,-138.979171,25.146867999999998,-0.08215499999999999,-2.0000310000000003,-2.0000310000000003
1402,-214.9691,-222.659648,57.679103000000005,0.21936399999999998,-0.003296,1.7945830000000003
1404,-173.76974099999998,-91.004807,67.139696,-0.7364609999999999,0.411017,1.093156
1406,-317.265583,-119.63073200000001,88.746471,1.073136,-0.309087,0.840101
1408,-274.72343,-43.396658,33.142596000000005,1.9999689999999999,-0.254765,1.9999689999999999
1410,-114.13748400000001,7.507439,0.549325,-1.775784,-0.220829,1.9999689999999999
1412,-25.024796,-108.76630800000001,18.066682,1.354391,0.12195,1.9999689999999999
1414,-49.378195,17.517357,3.540093,-0.665049,-0.05835,0.91725
1416,-20.691233999999998,-33.997101,-2.4414439999999997,0.588266,0.039550999999999996,1.399191
1418,-39.856565,-14.160372,0.244144,-0.061769000000000004,-0.11035299999999999,1.132464
1420,-5.188067,-9.887846000000001,-4.150454,0.125124,0.022338999999999998,1.01088
1422,1.40383,-0.976577,-0.244144,0.078859,-0.022216999999999997,1.046281
1424,-18.432898,6.103609,4.699779,0.010376,-0.05285700000000001,1.0112459999999999
1426,-10.742351,5.859464,5.493248,0.021606999999999998,-0.026733999999999997,0.9901270000000001
1428,-8.300908,3.356985,3.540093,0.033204000000000004,-0.030762,1.002579
1430,-13.733120000000001,0.427253,3.418021,-0.050904000000000005,-0.027955,1.04152
1432,-10.925460000000001,-3.540093,3.1128400000000003,-0.016236,0.0031739999999999997,0.944594
1434,-9.765774,-7.6905470000000005,1.586938,0.020386,-0.053712,1.03859
1436,-8.178836,-6.836042,1.342794,0.03418,-0.028564999999999997,1.057023
1438,-5.554284,-5.61532,1.342794,0.036011,-0.029786,1.0127110000000001
1440,-6.103609,-4.882887,1.159686,0.012206999999999999,-0.029541,0.980728
1442,-12.63447,-6.225681,1.40383,0.030883999999999998,-0.056886,0.9716950000000001
1444,-14.892805,-7.751583,1.2207219999999999,0.035157,-0.051514,0.984146
1446,-16.357671,-8.361944,1.342794,0.021973,-0.048219,0.985611
1448,-19.409476,-9.582666,0.366217,0.046021,-0.053956,0.9863430000000001
1450,-19.958801,-8.42298,0.0,0.059449,-0.07470800000000001,1.022721
1452,-20.019837,-5.61532,0.976577,0.074586,-0.07910299999999999,1.023331
1454,-19.958801,-1.7700470000000001,2.136263,0.059449,-0.080812,1.0323639999999998
1456,-22.339208,0.48828900000000003,3.356985,0.035157,-0.086793,0.988663
1458,-23.682002,-0.427253,2.50248,0.033448,-0.070802,1.033219
1460,-24.719615,2.380407,1.586938,0.0365,-0.12573399999999998,0.981216
1462,-24.414435,2.4414439999999997,2.014191,0.013672,-0.095216,1.010025
1464,-30.823224,3.173877,4.089418,0.0813,-0.058227999999999995,0.976089
1466,-46.753643,7.507439,10.254063,0.056031,-0.183841,1.0251620000000001
1468,-38.208591,11.23064,13.000687,0.041138,-0.117067,0.996719
1470,-42.786297,12.817578,11.535821,-0.004273,-0.135134,0.997574
1472,-42.359045,12.939651,7.141222,-0.068971,-0.13843,1.088518
1474,-55.420768,5.737392,-7.141222,-0.018555000000000002,-0.231327,1.049699
1476,-30.212863,-0.48828900000000003,-8.484016,0.065064,-0.22571100000000002,0.957412
1478,-17.029068,-1.09865,-12.573433999999999,0.10547000000000001,-0.032715,1.000992
1480,-108.278019,22.522316,-15.625238000000001,0.12146199999999999,0.11389300000000001,0.95436
1482,-156.55756499999998,11.352712,-37.354085999999995,-0.066896,0.21521300000000002,0.50721
1484,-359.197375,-33.38674,-40.588998,-0.087282,0.36878,1.5205309999999999
1486,-763.50042,-156.252384,39.795528999999995,-0.115969,-0.163943,1.023941
1488,-938.124666,-221.43892599999998,61.402304,1.20058,-2.0000310000000003,1.9999689999999999
1490,190.554665,-30.334936,-68.787671,0.08630499999999999,0.281621,1.9999689999999999
1492,188.479438,4.882887,-73.426413,-0.9154190000000001,1.5056379999999998,1.330953
1494,-48.706798,-30.823224,-1.647974,-0.34473200000000004,-0.217166,0.269291
1496,100.70954499999999,-11.718929,5.371176,-0.163943,0.435187,0.562631
1498,66.590372,1.525902,10.070953999999999,-0.119753,0.34729499999999996,1.144671
1500,151.491569,13.855192,-1.2207219999999999,-0.011353,0.46741400000000005,1.022843
1502,185.85488700000002,26.733806,-10.009917999999999,0.016236,0.268803,1.151263
1504,223.697261,40.588998,-14.831769,-0.004639,0.150027,1.098039
1506,258.97612000000004,44.190127000000004,-13.733120000000001,0.038209,0.026246,1.150652
1508,279.972534,44.434272,-14.404517000000002,0.125612,-0.075563,1.127581
1510,276.61554900000004,55.970092,-26.062409,0.292729,-0.407721,0.5659270000000001
1512,226.321813,70.618753,-33.264668,0.312139,-0.357916,0.869642
1514,213.443198,68.909743,-47.73022,0.29456,-0.20618000000000003,1.8260779999999999
1516,209.10963600000002,75.562676,-44.983596999999996,0.05651900000000001,-0.460334,1.9999689999999999
1518,269.901579,89.478904,-46.692607,0.032227,-0.674693,1.8753950000000001
1520,233.340963,77.821012,-25.024796,-0.10425,-0.813489,1.9999689999999999
1522,319.890135,70.37460899999999,-12.756542,-0.065553,-0.9279930000000001,1.9999689999999999
1524,287.418936,79.22484200000001,-4.5166699999999995,0.198734,-0.968276,1.596948
1526,265.201801,84.901198,-9.704738,0.218875,-1.009903,1.71548
1528,242.00808700000002,78.00412,-7.873655,0.045167,-1.467918,1.138079
1530,155.39787900000002,77.08857900000001,-7.873655,0.332769,-2.0000310000000003,0.703624
1532,86.488136,127.62645900000001,-28.381781,0.52784,-2.0000310000000003,-0.120729
1534,-8.1178,12.024109,9.033341,-0.022583000000000002,-2.0000310000000003,-1.818509
1536,-306.40116,-247.257191,64.332036,1.279194,-1.320333,0.8252079999999999
1538,-86.73228,-95.155261,25.452049,-0.465949,1.1071950000000002,1.9999689999999999
1540,-208.255131,-101.86923,48.584726,-0.180789,-0.028931000000000002,-0.547005
1542,-384.039063,-78.61448100000001,78.431373,1.282002,-0.142214,1.9999689999999999
1544,-75.562676,24.96376,-11.413748,0.73756,-0.06579700000000001,1.416892
1546,-214.602884,33.875029,33.447776,-1.5960940000000001,0.046143,1.9999689999999999
1548,-47.791257,-102.96788000000001,33.081559000000006,1.028092,0.09289700000000001,1.9999689999999999
1550,-34.912642,11.657893,6.958114,-0.455451,0.081666,0.830945
1552,-61.097124,-49.378195,5.7984279999999995,0.5831390000000001,-0.013184,1.492699
1554,-41.504540000000006,-12.390326,1.342794,-0.29370599999999997,-0.116701,1.136858
1556,-16.296635000000002,-10.986496,-1.464866,0.053467999999999995,-0.022583000000000002,1.030777
1558,-9.460594,-9.216449,1.7700470000000001,0.096071,-0.023681999999999998,1.052506
1560,-14.465553,-5.065995,4.21149,0.011719,-0.019043,1.026505
1562,-12.878614,-6.2867169999999994,2.685588,-0.016236,0.006226,1.082414
1564,-14.099336,-4.8218510000000006,3.234913,-0.000244,-0.026001,1.020157
1566,-13.244831,-5.493248,2.4414439999999997,0.025635,-0.052613,1.0359040000000002
1568,-8.606088,-4.028382,2.380407,0.007201999999999999,-0.043702,1.006973
1570,-10.070953999999999,-4.21149,2.563516,0.011597,-0.035889,1.010636
1572,-9.338521,-4.8218510000000006,1.586938,-0.009155,-0.018799,1.049088
1574,-12.817578,-3.479057,2.136263,0.0043950000000000005,-0.042115,0.9870760000000001
1576,-13.183795000000002,-3.051804,2.136263,0.022338999999999998,-0.051148,0.9991610000000001
1578,-14.404517000000002,-3.479057,2.197299,0.012573,-0.016358,1.032853
1580,-12.390326,-3.479057,1.8310830000000002,0.016602000000000002,-0.068238,1.0037989999999999
1582,-12.878614,-5.859464,0.793469,0.020142,-0.065919,0.989151
1584,-11.535821,-7.2022580000000005,-0.122072,0.023316,-0.093874,0.9748680000000001
1586,-17.090104999999998,-7.873655,-0.30518,0.025879000000000003,-0.082399,0.9786530000000001
1588,-17.029068,-6.775005999999999,-0.366217,0.043702,-0.088258,1.026505
1590,-13.366903,-3.540093,0.793469,0.0542,-0.103029,1.041642
1592,-11.474784,-0.671397,2.197299,0.045655,-0.084352,0.989883
1594,-20.386053,-1.281758,2.197299,0.038087,-0.086427,0.972671
1596,-22.766461,-1.8310830000000002,2.014191,0.031861,-0.102052,0.9945219999999999
1598,-27.588312,-0.061036,1.8921189999999999,0.047242,-0.11218399999999999,1.023331
1600,-23.743038000000002,2.014191,2.075227,0.030151999999999998,-0.133303,1.045914
1602,-20.691233999999998,4.638743,5.9205,0.044923000000000005,-0.088258,1.026627
1604,-33.203632,5.3101400000000005,8.056764,0.042481,-0.115969,1.005142
1606,-41.016251000000004,5.065995,7.568475,0.027222000000000003,-0.13586600000000001,0.9876860000000001
1608,-44.739452,6.530861,6.897078,0.039429,-0.08691499999999999,0.9557030000000001
1610,-53.833829,8.1178,0.732433,-0.016358,-0.171023,1.023941
1612,-46.997787,2.868696,-7.934691,0.046754000000000004,-0.292363,1.029801
1614,-27.161059,3.295949,-18.188754,0.16907,-0.202762,1.07277
1616,-56.824597999999995,18.493935,-13.061722999999999,0.053346000000000005,0.12024100000000001,0.8601209999999999
1618,-125.85641299999999,26.67277,-20.508125,-0.087648,0.152346,0.6989850000000001
1620,-269.840543,-32.837415,-43.701839,-0.450568,0.313359,1.43032
1622,-627.45098,-98.45120899999999,94.361791,-0.547127,0.080568,1.455344
1624,-684.702831,-229.190509,76.050965,0.277592,-0.6911729999999999,0.8589
1626,-572.030213,-138.551919,149.477379,-0.30188400000000004,-0.288457,1.9999689999999999
1628,227.847715,46.753643,-63.294422999999995,-0.002564,1.175189,1.9999689999999999
1630,17.700464999999998,21.240558,-26.794842,-0.417975,0.468025,0.719249
1632,104.67689,12.268253999999999,-3.356985,-0.253788,0.21875300000000003,0.325689
1634,69.947356,11.841001,-1.342794,-0.06286699999999999,0.296757,0.5514
1636,116.273747,14.892805,-7.9957270000000005,-0.056275,0.30640100000000003,1.019547
1638,156.92378100000002,5.9205,-12.207218,-0.014649,0.291508,1.1905700000000001
1640,208.133059,17.700464999999998,-19.775692000000003,-0.011840999999999999,0.15674100000000002,1.107561
1642,231.570916,35.523003,-21.606775,-0.020630000000000003,-0.021241,0.960098
1644,242.43534,43.091478,-21.179522,0.190433,-0.07128999999999999,1.111345
1646,252.323186,50.293735999999996,-38.147555,0.48926499999999995,-0.23291399999999998,1.449729
1648,274.845502,55.237658999999994,-62.867169999999994,0.386481,-0.507698,1.4420389999999998
1650,271.793698,51.33135,-69.764248,0.25500900000000004,-0.70399,1.4416719999999998
1652,268.192569,50.2327,-63.53856700000001,0.10241900000000001,-0.778576,1.4179899999999999
1654,253.177691,49.988556,-46.387427,-0.058473000000000004,-0.725109,1.339132
1656,226.99321,54.627297999999996,-26.123445,-0.035523,-0.5669029999999999,1.399435
1658,208.926528,59.266041,-12.63447,0.092653,-0.494881,1.696437
1660,210.51346600000002,57.49599499999999,-7.629511,0.222171,-0.48096400000000006,1.843046
1662,214.35873999999998,54.077974,-7.385367,0.23755199999999999,-0.549203,1.7813990000000002
1664,210.14725,46.143282,-5.371176,0.127443,-0.708385,1.632837
1666,189.76119599999998,44.739452,-1.342794,0.045777,-1.078264,1.339864
1668,134.584573,67.994202,-3.967346,0.336431,-1.865873,1.326314
1670,113.03883400000001,135.866331,-25.757229000000002,0.5250319999999999,-2.0000310000000003,0.707774
1672,71.717403,72.14465600000001,0.244144,0.497688,-2.0000310000000003,-1.5998780000000001
1674,-211.978332,-192.141604,-5.249104,1.6400400000000002,-1.822293,-0.887465
1676,-116.21271100000001,-84.107729,-35.034714,-0.599863,0.8718389999999999,1.9999689999999999
1678,-191.409171,-63.599603,0.9155409999999999,-1.6209959999999999,-0.171389,-0.38233
1680,-371.831846,-107.728695,85.450523,0.388067,-0.555673,1.503929
1682,-237.979706,-5.065995,31.494621000000002,1.7638209999999999,-0.190066,1.9999689999999999
1684,-175.47875200000001,8.300908,5.7984279999999995,-1.064347,-0.43091499999999994,1.9999689999999999
1686,39.978637,-74.708171,17.334249,0.515755,0.38477100000000003,1.824857
1688,-31.616692999999998,16.479744,7.568475,-0.24585300000000002,-0.096071,1.275776
1690,-29.297321999999998,-41.321431,7.507439,0.282109,0.117922,1.1346610000000001
1692,-32.898451,-16.662851999999997,0.0,-0.184451,-0.029053,1.003555
1694,-27.283131,-15.503166,0.122072,0.13586600000000001,-0.067994,1.1631040000000001
1696,-11.535821,-4.394598,1.342794,0.000244,0.021729,0.9863430000000001
1698,-18.554971,-2.075227,2.868696,0.01294,-0.04004,1.033219
1700,-16.84596,-2.929732,3.356985,0.032958999999999995,-0.0023190000000000003,0.977432
1702,-19.958801,-6.347753,3.1128400000000003,-0.014893,0.002564,0.954849
1704,-26.306554,-12.024109,2.685588,0.012451,-0.022216999999999997,1.040665
1706,-18.371862,-12.939651,0.976577,0.0037840000000000005,-0.04712,1.010147
1708,-19.104295,-13.061722999999999,-0.122072,0.032227,-0.088258,1.078508
1710,-13.122759,-6.775005999999999,-2.014191,0.206668,-0.20947600000000002,0.5793550000000001
1712,-13.244831,-5.859464,0.976577,0.056764,-0.07849199999999999,0.979141
1714,-12.024109,-2.50248,2.136263,0.033448,-0.055665,1.011002
1716,-14.587625,-2.319371,2.2583349999999998,0.013184,-0.060182000000000006,0.9922030000000001
1718,-13.183795000000002,-3.173877,1.525902,0.03772,-0.087282,1.026993
1720,-9.460594,-2.563516,1.09865,0.027955,-0.061769000000000004,0.980117
1722,-19.409476,-2.685588,1.037613,0.02002,-0.046143,0.9670559999999999
1724,-21.850919,-1.464866,1.342794,0.053834,-0.10363900000000001,1.017716
1726,-17.578393,-0.061036,1.647974,0.039673,-0.104372,1.03859
1728,-11.291675999999999,1.037613,1.647974,0.034913,-0.10888800000000001,1.0323639999999998
1730,-9.643702000000001,-0.671397,1.09865,0.028687,-0.088502,0.9826809999999999
1732,-10.925460000000001,-1.7700470000000001,0.9155409999999999,0.033082,-0.093874,0.985245
1734,-18.432898,-1.159686,1.037613,0.011597,-0.099123,1.001358
1736,-15.991454999999998,-2.990768,0.183108,0.018067,-0.125856,1.015152
1738,-13.122759,-2.50248,0.48828900000000003,0.048585,-0.13464600000000002,1.038468
1740,-14.099336,0.244144,2.380407,0.042969,-0.133303,1.0150299999999999
1742,-9.033341,1.647974,3.90631,0.039307,-0.09777999999999999,0.994766
1744,-14.343481,-0.183108,2.197299,0.023804,-0.11511400000000001,0.985977
1746,-17.761501000000003,-2.2583349999999998,0.671397,0.039185000000000005,-0.108766,0.985733
1748,-19.470512,-0.061036,0.0,0.041138,-0.11425999999999999,0.9862209999999999
1750,-25.940337,0.30518,1.525902,0.080079,-0.114504,1.029801
1752,-32.043946000000005,3.967346,4.394598,0.056886,-0.150637,0.967666
1754,-35.156786,8.789197,6.591897,0.024659,-0.151369,1.009659
1756,-37.109941,11.108568,6.469825,0.031495,-0.129152,0.9973299999999999
1758,-46.631571,14.0383,6.71397,-0.05359,-0.164797,1.063859
1760,-53.528649,6.775005999999999,-15.442129999999999,-0.023804,-0.245243,1.0390780000000002
1762,-46.631571,-4.21149,-19.897765,-0.021606999999999998,0.00293,0.9243309999999999
1764,-107.48455,7.873655,-17.273213000000002,0.156497,0.047852,0.968276
1766,-106.32486499999999,7.080186,-9.887846000000001,-0.016236,0.092409,1.215961
1768,-260.37995,-5.493248,-3.479057,0.032349,0.266117,1.166888
1770,-364.019226,-43.274586,6.591897,-0.450324,-0.295659,1.3351030000000002
1772,-439.215686,-133.85214,20.630198,-0.034668,-0.290654,0.97145
1774,-413.153277,-86.4271,103.150988,-0.9591209999999999,0.656382,1.9999689999999999
1776,218.509194,5.676356,-9.704738,-0.423346,0.68043,1.9999689999999999
1778,80.384527,21.240558,29.236286,-0.498054,0.292241,0.145022
1780,109.498741,26.001373,46.570535,-0.176394,-0.045167,0.278447
1782,76.722362,21.911955,37.59823,0.349248,0.17773699999999998,0.7204699999999999
1784,144.411383,35.034714,-5.981537,0.415778,0.15295599999999998,0.8115359999999999
1786,151.674678,27.588312,-36.011292,0.361822,0.09668099999999999,0.910292
1788,185.97695900000002,28.625925,-61.829556999999994,0.337407,-0.077516,1.21059
1790,216.617075,39.795528999999995,-69.153887,-0.037232,-0.494881,1.044083
1792,216.311894,42.603189,-39.185168,-0.252567,-0.753918,0.99379
1794,215.274281,34.485389,7.263294,-0.341436,-0.8870979999999999,1.018082
1796,202.090486,34.424353,45.105669,-0.148074,-0.8729379999999999,0.969986
1798,177.920195,44.92256,65.003433,0.071168,-0.8896620000000001,1.151751
1800,168.886854,36.1944,73.30434100000001,0.279911,-0.8414440000000001,1.344381
1802,169.130999,22.644388,65.003433,0.425666,-0.797375,1.329976
1804,157.473106,10.376135000000001,49.988556,0.371344,-0.8883190000000001,0.9080950000000001
1806,107.972839,-18.677042999999998,36.316472,0.133913,-1.0095370000000001,0.750988
1808,73.243305,-25.391012,19.836728,-0.102174,-0.9984280000000001,0.8260620000000001
1810,34.485389,0.671397,9.155413000000001,-0.296025,-1.093523,0.25195700000000004
1812,-53.223468000000004,19.470512,19.531548,-0.306279,-1.0677649999999999,-0.202518
1814,-225.58937999999998,-206.363012,81.055924,0.224491,1.9953919999999998,1.9999689999999999
1816,197.573816,37.90341,5.493248,-0.091188,-0.494514,0.771374
1818,5.3101400000000005,-0.549325,4.699779,-0.44275600000000004,0.732677,-0.7951779999999999
1820,-102.479591,-18.738079,-1.159686,0.03772,-0.064454,1.294575
1822,-16.418708,-4.699779,-2.929732,0.06274500000000001,-0.105592,1.1335620000000002
1824,-13.427939000000002,6.2867169999999994,2.319371,0.0636,0.029419,0.9698629999999999
1826,-12.32929,-0.427253,-0.366217,-0.070924,0.038941,0.9354389999999999
1828,-18.677042999999998,-5.554284,-1.70901,0.054444000000000006,-0.048096,1.083024
1830,-1.2207219999999999,0.793469,-0.671397,0.019043,-0.004639,1.0042879999999998
1832,-9.460594,1.037613,-0.48828900000000003,0.0021969999999999997,0.023681999999999998,0.946426
1834,-14.404517000000002,-0.427253,0.427253,0.018189,-0.00647,0.9976959999999999
1836,-13.916228,-1.037613,0.9155409999999999,-0.003906,-0.038087,1.031266
1838,-4.699779,-2.624552,-0.366217,-0.001953,-0.021241,1.006973
1840,-4.150454,-4.333562000000001,-0.9155409999999999,0.012206999999999999,-0.015259,0.9817040000000001
1842,-6.958114,-4.333562000000001,-0.48828900000000003,0.02417,-0.004273,0.9868309999999999
1844,-9.277485,-2.624552,0.0,0.029053,-0.028687,1.0112459999999999
1846,-5.737392,-0.671397,0.183108,0.029053,-0.036378,1.022843
1848,-3.295949,-0.30518,-0.244144,0.017945,-0.022461000000000002,0.995743
1850,-1.647974,-0.48828900000000003,-0.427253,0.030151999999999998,-0.035644999999999996,1.0310219999999999
1852,0.549325,0.48828900000000003,-0.30518,0.021485,-0.035767,1.008194
1854,0.976577,0.30518,0.0,0.012695999999999999,-0.018921,0.984268
1856,-1.464866,-0.48828900000000003,0.0,0.0177,-0.026978,0.997452
1858,-0.793469,-0.549325,0.0,0.020752,-0.023926,0.9945219999999999
1860,-0.244144,-0.6103609999999999,-0.30518,0.018921,-0.029907999999999997,1.00734
1862,1.525902,0.48828900000000003,-0.244144,0.024903,-0.034302,1.013077
1864,2.868696,1.647974,0.122072,0.017578,-0.030639999999999997,1.0160069999999999
1866,3.1128400000000003,1.159686,0.0,0.015503,-0.02356,0.993423
1868,1.586938,0.0,-0.122072,0.018067,-0.009766,0.9799950000000001
1870,0.366217,-0.244144,-0.244144,0.028931000000000002,-0.034302,1.017716
1872,0.48828900000000003,0.30518,-0.122072,0.015015,-0.024537,1.0048979999999998
1874,1.7700470000000001,0.976577,-0.183108,0.018555000000000002,-0.029786,1.006851
1876,2.80766,1.037613,-0.122072,0.013672,-0.022583000000000002,0.999527
1878,2.50248,0.366217,-0.122072,0.014159999999999999,-0.011597,0.995499
1880,2.685588,0.366217,0.0,0.018067,-0.025879000000000003,1.012345
1882,3.356985,0.30518,0.0,0.013428,-0.015625,0.991714
1884,3.295949,-0.427253,-0.244144,0.015381,-0.020263999999999997,1.002213
1886,3.6621650000000003,0.122072,-0.30518,0.014038,-0.016724,1.000626
1888,3.6621650000000003,0.9155409999999999,-0.366217,0.028808999999999998,-0.020142,1.005509
1890,6.103609,2.50248,0.122072,0.0094,-0.014282,0.989029
1892,2.197299,1.342794,0.366217,0.014527000000000002,0.003052,0.967666
1894,0.671397,-0.48828900000000003,0.0,0.011840999999999999,-0.01001,0.9873200000000001
1896,0.854505,-2.2583349999999998,-0.48828900000000003,0.012818000000000001,-0.011109,1.003922
1898,1.342794,-2.197299,-1.037613,0.017334,-0.008057,1.0008700000000001
1900,0.9155409999999999,-0.6103609999999999,-0.427253,0.025513,-0.011963,0.997452
1902,0.9155409999999999,0.793469,0.30518,0.014159999999999999,-0.016724,1.0053860000000001
1904,2.868696,1.342794,0.671397,0.008057,-0.006104,0.9922030000000001
1906,1.7700470000000001,-0.48828900000000003,0.244144,0.012085,-0.00061,0.995499
1908,0.366217,-1.953155,-0.30518,-0.000732,-0.009276999999999999,0.992813
1910,1.70901,-2.197299,-0.793469,0.031617,-0.010620000000000001,1.0046540000000002
1912,3.90631,0.48828900000000003,-0.122072,0.03003,-0.015137000000000001,1.028092
1914,3.6621650000000003,1.2207219999999999,0.0,0.002441,0.012573,0.953017
1916,-4.150454,-2.014191,-0.671397,0.003418,0.010498,0.968643
1918,-1.2207219999999999,-2.868696,-0.976577,0.041138,-0.024413999999999998,1.02797
1920,6.897078,2.075227,0.183108,0.023194,0.001343,0.981582
1922,-7.9957270000000005,0.366217,0.9155409999999999,0.0271,-0.032471,1.047135
1924,6.042573,2.746624,0.122072,-0.0021969999999999997,0.034791,0.945693
1926,-2.136263,-0.549325,0.0,-0.004883,-0.000488,0.973892
1928,-7.629511,-3.234913,-0.549325,0.015869,-0.000977,0.999771
1930,0.793469,-1.525902,-0.732433,0.061036,-0.025025,1.047623
1932,-0.732433,0.6103609999999999,0.0,0.029053,-0.008545,1.0199129999999998
1934,6.103609,4.028382,0.427253,0.019898,-0.012329000000000001,1.017716
1936,2.50248,0.244144,-0.183108,-0.015137000000000001,0.035644999999999996,0.9083389999999999
1938,-5.371176,-2.929732,-1.037613,0.025513,0.015747,0.9483790000000001
1940,-7.9957270000000005,-1.2207219999999999,-0.48828900000000003,0.014649,-0.029053,1.059831
1942,-6.897078,-1.70901,-0.732433,0.02417,-0.018433,1.026139
1944,5.9205,2.868696,-0.671397,0.046998000000000005,-0.008301000000000001,1.019791
1946,-4.577707,0.061036,0.30518,-0.007324,-0.002686,0.980606
1948,1.7700470000000001,-0.793469,-0.854505,0.017578,-0.000488,0.9939120000000001
1950,0.30518,0.122072,-0.183108,0.001343,-0.021118,1.017838
1952,0.732433,-0.183108,-0.183108,0.031861,-0.024413999999999998,1.034928
1954,7.629511,2.990768,-0.122072,0.023926,0.0070799999999999995,0.9823149999999999
1956,3.1128400000000003,2.746624,0.30518,0.014771000000000001,-0.004639,0.9976959999999999
1958,3.356985,0.549325,-0.183108,0.001099,0.017945,0.964736
1960,-0.183108,-0.183108,-0.122072,0.011475,0.001831,1.003433
1962,0.427253,1.40383,0.122072,0.011109,-0.008179,1.008804
1964,2.319371,3.234913,0.366217,0.025513,-0.011475,1.018448
1966,2.563516,3.356985,0.427253,0.01001,0.0037840000000000005,0.99855
1968,0.671397,0.793469,0.122072,-0.012085,0.0031739999999999997,0.9666899999999999
1970,-0.427253,-2.746624,0.0,0.000366,0.001343,0.995132
1972,2.624552,-1.8310830000000002,0.0,0.017334,0.004273,0.9869540000000001
1974,0.30518,-2.197299,0.427253,0.013672,-0.012085,1.021988
1976,3.295949,-1.953155,0.30518,0.009888,0.005371,0.996719
1978,1.8310830000000002,-3.173877,-0.122072,0.009644,0.008179,0.9863430000000001
1980,-0.793469,-5.676356,-0.671397,0.008301000000000001,0.005737,0.98793
1982,2.2583349999999998,-4.882887,-0.976577,0.021241,0.004639,0.995865
1984,1.586938,-3.967346,-0.793469,0.030518,0.008545,0.986099
1986,-2.197299,-3.723201,-0.732433,0.020752,-0.0028079999999999997,1.010391
1988,1.037613,-2.2583349999999998,-1.342794,0.033569999999999996,0.008545,0.9901270000000001
1990,0.061036,-0.793469,-0.854505,0.021485,0.005249,1.002457
1992,0.854505,0.061036,-0.244144,0.031617,0.012451,1.000992
1994,-1.647974,0.732433,0.061036,0.027466,0.002075,1.001602
1996,-1.464866,1.159686,0.0,0.022216999999999997,0.008301000000000001,1.005631
1998,1.647974,2.014191,-0.244144,0.021851,-0.002564,1.01796
2000,1.2207219999999999,1.464866,-0.244144,0.011231,0.013306,0.992325
2002,1.8310830000000002,1.342794,-0.30518,0.012329000000000001,0.010254000000000001,0.9875639999999999
2004,1.8921189999999999,0.976577,-0.122072,0.020263999999999997,0.01001,0.981949
2006,-1.586938,-0.427253,-0.122072,0.015137000000000001,0.0058590000000000005,0.996353
2008,0.427253,0.183108,-0.427253,0.021241,0.011597,1.000137
2010,1.159686,0.549325,-0.671397,0.015259,0.008301000000000001,0.989395
2012,0.0,0.0,-0.30518,0.020752,0.002686,0.9976959999999999
2014,-0.976577,-0.061036,0.061036,0.035767,-0.0070799999999999995,0.993423
2016,-3.1128400000000003,-0.183108,0.30518,0.017334,0.018555000000000002,0.976944
2018,5.065995,0.427253,-0.183108,0.014405000000000001,0.012451,0.999527
2020,-1.40383,-0.366217,0.061036,0.007324,-0.002075,1.006485
2022,-2.136263,0.671397,-0.30518,-0.006714,0.012206999999999999,1.033219
2024,0.9155409999999999,1.342794,-0.6103609999999999,0.026489999999999996,-0.000366,0.9969629999999999
2026,3.234913,0.976577,0.0,0.011231,0.006714,0.9909819999999999
2028,2.2583349999999998,-0.122072,-0.122072,0.014527000000000002,0.010864,0.977554
2030,0.48828900000000003,-1.09865,-0.244144,0.027832,0.010986,0.996109
2032,-2.2583349999999998,-0.976577,-0.30518,0.015869,0.008057,0.997086
2034,0.976577,-0.732433,-0.366217,0.011109,0.009033,0.993301
2036,-0.793469,-1.281758,-0.427253,0.018677000000000003,0.019653999999999998,0.9831690000000001
2038,-1.647974,-0.854505,-0.366217,0.024413999999999998,0.021973,0.978042
2040,-2.990768,-0.48828900000000003,-0.549325,0.015503,-0.009522,1.031144
2042,0.48828900000000003,0.061036,-1.159686,0.02356,0.008179,1.0085600000000001
2044,4.272526,0.183108,-1.464866,0.012451,0.010620000000000001,0.9896389999999999
2046,-0.366217,-0.671397,-1.159686,0.017334,0.0021969999999999997,0.993179
2048,-2.014191,-1.159686,-0.976577,0.015747,0.009888,0.994034
