Packet number,Gyroscope X (deg/s),Gyroscope Y (deg/s),Gyroscope Z (deg/s),Accelerometer X (g),Accelerometer Y (g),Accelerometer Z (g)
0,-0.30518,-0.48828900000000003,0.0,-0.005493,0.008057,0.996109
2,-0.061036,-0.48828900000000003,-0.183108,-0.004273,0.0063479999999999995,0.992081
4,0.061036,-0.549325,0.0,-0.001221,0.007935,0.9911040000000001
6,-1.09865,-0.549325,-0.122072,0.0008550000000000001,0.0058590000000000005,0.993668
8,-1.342794,-0.48828900000000003,0.0,-0.003662,0.007568000000000001,0.9984280000000001
10,-0.976577,-0.366217,0.0,-0.0008550000000000001,0.005249,0.9950100000000001
12,-0.366217,-0.366217,0.0,-0.002564,0.00415,0.994034
14,-0.30518,-0.48828900000000003,0.0,-0.0015869999999999999,0.008911,0.9990389999999999
16,-0.30518,-0.366217,-0.122072,-0.000122,0.009888,1.003555
18,-0.30518,-0.549325,0.0,-0.0023190000000000003,0.008667,0.9941559999999999
20,-0.30518,-0.48828900000000003,-0.183108,-0.003906,0.011231,0.992691
22,-0.427253,-0.30518,-0.122072,-0.000732,0.003418,1.002213
24,-0.48828900000000003,-0.244144,0.0,0.000366,0.004639,1.00734
26,-0.183108,-0.061036,0.0,-0.003662,0.00647,0.9941559999999999
28,-0.366217,-0.366217,0.0,-0.0058590000000000005,0.0063479999999999995,0.9945219999999999
30,-0.6103609999999999,-0.6103609999999999,0.0,-0.01001,0.013184,0.9990389999999999
32,-0.427253,-0.671397,-0.122072,-0.0051270000000000005,0.008545,0.995865
34,-1.09865,-0.793469,-0.183108,0.001953,0.0070799999999999995,0.995132
36,-0.976577,-0.549325,0.0,-0.000732,0.009766,1.0047760000000001
38,-0.6103609999999999,-0.427253,0.0,-0.0023190000000000003,0.005005,1.000748
40,-0.48828900000000003,-0.6103609999999999,0.0,0.002075,0.005493,1.000626
42,-0.48828900000000003,-0.732433,-0.122072,-0.004883,0.009155,1.003433
44,-0.30518,-0.854505,-0.244144,-0.004273,0.0035399999999999997,1.001968
46,-0.48828900000000003,-0.976577,-0.122072,-0.0028079999999999997,0.010742,1.004166
48,-0.427253,-0.9155409999999999,0.0,-0.0035399999999999997,0.011719,0.9979399999999999
50,-0.6103609999999999,-1.159686,-0.244144,-0.000244,0.0051270000000000005,0.9987950000000001
52,-0.244144,-0.9155409999999999,-0.122072,0.0015869999999999999,0.002686,1.018692
54,1.953155,-0.30518,0.122072,0.013306,-0.008179,1.016373
56,5.188067,-0.122072,0.244144,0.0,-0.011231,1.032609
58,9.704738,0.061036,0.122072,0.02295,0.008179,1.053849
60,7.9957270000000005,-1.586938,-0.244144,-0.004761,0.024413999999999998,0.9747459999999999
62,7.080186,-2.563516,-0.671397,0.004517,0.024048,0.9834129999999999
64,6.652933999999999,-2.380407,-0.427253,0.001343,0.021485,0.994034
66,5.859464,-1.7700470000000001,-0.48828900000000003,0.00293,0.026733999999999997,1.003922
68,5.981537,-2.075227,-0.549325,-0.00061,0.031373000000000005,0.993057
70,4.638743,-2.380407,-0.732433,0.010742,0.025513,1.000626
72,4.699779,-1.342794,-1.2207219999999999,0.007812999999999999,0.033082,1.001968
74,4.882887,-1.586938,-0.976577,0.003662,0.029786,0.985489
76,3.6621650000000003,-0.6103609999999999,-0.9155409999999999,-0.004273,0.027832,0.992081
78,3.356985,-0.854505,-0.30518,0.0,0.035889,0.9914700000000001
80,2.50248,-0.549325,-0.122072,-0.006104,0.042602999999999995,0.992447
82,1.464866,-1.342794,0.244144,0.003418,0.036988,0.996841
84,1.7700470000000001,-1.647974,0.244144,0.009888,0.037354000000000005,0.996841
86,3.051804,-0.793469,0.671397,-0.006714,0.029786,1.006119
88,3.479057,-1.281758,0.732433,0.003418,0.047363999999999996,0.973281
90,-1.8310830000000002,-1.464866,0.366217,0.004761,0.058595,0.984756
92,-0.671397,-0.061036,0.671397,0.019043,-0.0043950000000000005,1.018082
94,5.676356,2.685588,1.464866,-0.012206999999999999,0.024413999999999998,1.01857
96,8.911269,2.197299,1.40383,0.005982,0.05127,0.992813
98,8.850233,1.464866,0.854505,0.002441,0.083864,0.938491
100,2.197299,0.854505,0.30518,0.008179,0.047974,1.004532
102,0.366217,1.525902,0.366217,-0.022461000000000002,0.044556,0.992447
104,0.793469,-0.244144,0.061036,-0.009888,0.050904000000000005,0.9907379999999999
106,-0.244144,-1.647974,-0.366217,-0.00061,0.058838999999999995,0.976089
108,-3.173877,-2.014191,-0.732433,0.0074459999999999995,0.05712999999999999,0.980117
110,-3.6621650000000003,-1.464866,-0.6103609999999999,0.021363,0.039550999999999996,1.01857
112,-0.671397,1.40383,-0.549325,0.01648,0.041627,1.014054
114,0.671397,3.234913,-0.183108,-0.000244,0.043458,1.013931
116,1.342794,3.479057,0.0,-0.025025,0.064698,0.976455
118,-0.122072,1.70901,0.0,-0.013184,0.049073,0.968643
120,-1.647974,-0.244144,0.0,-0.004028,0.036378,1.0089270000000001
122,-1.037613,-0.793469,-0.183108,-0.01001,0.061036,0.9869540000000001
124,-1.953155,-1.342794,-0.30518,-0.008301000000000001,0.061890999999999995,0.968887
126,-5.371176,-2.624552,-0.244144,-0.010254000000000001,0.059815,0.963516
128,-9.338521,-4.455634,-0.366217,-0.009155,0.050294,0.9823149999999999
130,-8.972305,-5.371176,-0.48828900000000003,-0.002075,0.048219,0.976211
132,-9.948882000000001,-7.263294,-0.549325,0.018555000000000002,0.05127,0.973281
134,-12.695506,-8.1178,-0.793469,0.011475,0.040894,0.968032
136,-13.977264000000002,-7.080186,-0.122072,0.024903,0.031617,0.9904940000000001
138,-17.212177,-6.2867169999999994,0.48828900000000003,0.006836,0.043702,0.9555809999999999
140,-22.522316,-8.056764,1.2207219999999999,0.010376,0.023072,0.9741360000000001
142,-25.818265,-7.934691,2.014191,0.0094,0.035523,0.977554
144,-33.508812,-8.911269,2.563516,-0.00293,0.015747,0.949233
146,-38.513771000000006,-8.972305,3.6011290000000002,0.029541,-0.072877,1.006485
148,-29.358358000000003,-7.934691,5.249104,0.004273,-0.033692,0.9908600000000001
150,-31.799802000000003,-6.408789,4.699779,0.128664,0.11413699999999999,0.968765
152,-54.993515,-2.80766,2.868696,0.058717,-0.071412,1.007218
154,-46.814679,-1.2207219999999999,-2.929732,0.015381,-0.047242,1.032486
156,-48.096437,-3.967346,-9.155413000000001,-0.031495,-0.053956,0.995743
158,-62.073701,3.540093,-32.593271,0.099855,-0.056275,0.81593
160,-56.519417000000004,9.765774,-8.1178,0.06994700000000001,-0.172732,1.077409
162,-55.298694999999995,3.295949,-3.540093,0.083986,-0.066163,1.026505
164,-99.610895,11.474784,-8.300908,0.077028,0.01648,0.9583889999999999
166,-110.71946299999999,6.530861,16.418708,-0.037842,0.354376,0.765026
168,-229.49568900000003,-25.513085,3.723201,0.23498899999999998,0.713268,0.6186619999999999
170,-511.05516100000006,-49.92752,30.518044,-0.198734,0.22803099999999998,1.73196
172,-638.498512,-89.051652,9.82681,-0.142092,-0.095216,1.199115
174,-756.969558,-26.306554,193.423362,-1.545312,0.037476,1.9999689999999999
176,317.143511,10.193027,-1.70901,-0.6850689999999999,0.7182729999999999,1.9999689999999999
178,-10.681315,-23.620966,62.806134,-0.286381,0.7226670000000001,0.384527
180,47.791257,-2.197299,18.066682,0.15979200000000002,0.47730200000000006,0.788708
182,10.498207,34.79057,-12.817578,0.135622,0.507698,0.93019
184,77.02754300000001,24.292363,-27.038987,-0.089113,0.525887,1.019547
186,116.700999,-6.103609,-20.325017000000003,-0.13196,0.482429,1.317891
188,165.651942,5.9205,-18.982223,-0.126833,0.393072,1.306905
190,206.179904,24.780652,-16.052491,-0.14721900000000002,0.24353400000000003,1.112444
192,228.09185899999997,19.958801,-6.591897,-0.091066,0.14331300000000002,1.051774
194,244.81574700000002,2.197299,-2.50248,0.052125,0.17236600000000002,1.287495
196,268.009461,9.277485,-16.235599,0.14990499999999998,0.100832,1.462669
198,265.079728,40.527962,-37.537194,0.11914200000000001,-0.254887,0.921401
200,225.528344,57.06874200000001,-40.344854,-0.09289700000000001,-0.28186500000000003,1.298726
202,221.560998,55.725947999999995,-37.659265999999995,0.020996,-0.262211,1.8611119999999999
204,223.453117,68.84870699999999,-38.391698999999996,0.048585,-0.46814700000000004,1.801541
206,200.076295,84.779126,-37.232013,0.003906,-0.7269399999999999,1.652613
208,186.648356,72.327764,-25.818265,-0.09057799999999999,-0.88661,1.8106970000000002
210,202.700847,44.129090999999995,-4.272526,-0.118898,-0.895033,1.9999689999999999
212,239.017319,65.003433,7.385367,0.267948,-0.8319219999999999,1.903227
214,240.66529300000002,63.599603,9.033341,0.394903,-0.920058,1.28603
216,214.785992,40.344854,14.343481,0.197879,-1.157,0.996475
218,171.511406,24.902724,23.86511,-0.03125,-1.5753409999999999,0.635142
220,96.375982,46.814679,26.67277,0.170413,-2.0000310000000003,-0.006226
222,6.347753,65.980011,18.127717999999998,0.030762,-2.0000310000000003,0.254643
224,-58.838788,10.681315,48.218509000000005,-0.163821,-2.0000310000000003,-2.0000310000000003
226,-272.770275,-124.20843799999999,79.285878,0.5676359999999999,-0.970352,0.685435
228,-154.116121,-83.61944,40.71107,0.195926,1.1103690000000002,1.9999689999999999
230,-249.027237,-78.370336,43.152514000000004,0.59559,-0.36694899999999997,0.5692229999999999
232,-226.62699300000003,-18.371862,26.977951,0.835706,-0.019287000000000002,1.9999689999999999
234,-118.471046,46.753643,-5.0049589999999995,-0.624521,-0.06958099999999999,1.219501
236,-87.403677,-103.944457,48.82887,-0.318486,-0.168704,1.924468
238,-50.110628000000005,-25.024796,3.356985,0.7150989999999999,0.030151999999999998,1.2684520000000001
240,-59.327077,-52.857252,10.070953999999999,0.031983,-0.029907999999999997,1.267231
242,-30.823224,-14.465553,2.014191,-0.142947,-0.047974,1.115984
244,-3.90631,-21.789883,-2.136263,0.113771,0.133913,0.9461809999999999
246,-11.413748,-16.235599,-1.09865,0.11194000000000001,-0.107424,0.8757459999999999
248,-17.273213000000002,-5.737392,3.6621650000000003,0.021485,0.038209,0.9869540000000001
250,-17.517357,-3.6011290000000002,4.028382,0.015137000000000001,0.034424,1.028458
252,-10.070953999999999,-3.6011290000000002,1.159686,-0.02002,0.075441,1.029068
254,-16.601816,-5.065995,1.464866,-0.035279000000000005,0.029297000000000004,0.968887
256,-13.488975,-6.836042,1.70901,0.016968,0.072267,1.014542
258,-10.193027,-7.01915,1.342794,0.018433,0.022338999999999998,1.032242
260,-7.9957270000000005,-5.3101400000000005,0.671397,0.017334,0.071656,1.0601969999999998
262,-7.507439,-4.394598,0.0,0.012818000000000001,0.072633,1.02211
264,-8.056764,-5.249104,0.183108,0.010986,0.030883999999999998,0.9867090000000001
266,-11.596857,-6.897078,0.122072,0.007691,0.029541,0.969986
268,-12.878614,-7.629511,-0.366217,0.028443,0.023926,1.005264
270,-13.488975,-8.1178,-1.525902,0.018311,0.024537,0.969619
272,-16.540779999999998,-7.507439,-1.40383,0.051148,0.002686,0.988663
274,-18.982223,-5.859464,0.793469,0.036255,0.014159999999999999,0.9781639999999999
276,-22.766461,-5.676356,2.2583349999999998,0.037110000000000004,0.005371,0.9903719999999999
278,-27.038987,-6.103609,2.868696,0.012818000000000001,0.014038,0.969986
280,-28.931106,-9.277485,3.051804,0.05774,0.050172,1.036149
282,-35.706111,-1.342794,1.159686,0.022338999999999998,-0.038087,1.003311
284,-36.438544,-0.9155409999999999,3.234913,0.035401,-0.035401,0.9863430000000001
286,-53.71175699999999,5.371176,8.850233,0.025757,-0.018433,1.019425
288,-45.654994,3.967346,6.347753,-0.020263999999999997,-0.004639,0.984512
290,-52.67414399999999,-2.746624,-5.127031,-0.040894,-0.07128999999999999,1.070451
292,-60.975052000000005,2.075227,-52.67414399999999,0.019043,-0.003052,0.96144
294,-16.84596,-11.169604,-23.682002,0.21301599999999998,-0.291752,1.00148
296,-28.503853000000003,1.70901,2.746624,0.087892,0.11389300000000001,1.121721
298,-113.46608700000002,34.668498,-9.765774,0.07531900000000001,0.36817,0.866957
300,-231.26573599999998,3.479057,-20.508125,-0.323735,0.385992,0.027222000000000003
302,-530.2204929999999,-61.097124,-17.334249,0.123537,0.321294,1.146624
304,-860.4867630000001,-168.64271000000002,77.515831,0.095583,0.089601,1.307149
306,-1216.632334,-180.483711,190.24948500000002,-0.229252,-0.909438,1.9999689999999999
308,358.34287,53.955901000000004,-119.447623,-0.06067,1.184344,1.9999689999999999
310,99.305715,6.897078,-97.840848,-0.862806,0.659556,1.063859
312,10.803388,-81.23903299999999,8.178836,-0.46045600000000003,0.167483,0.394293
314,109.803922,-29.968719,-6.591897,-0.422858,0.472297,0.693126
316,124.391547,11.841001,6.225681,-0.525521,0.294194,1.2137639999999998
318,175.967041,11.596857,25.940337,-0.501961,0.264897,1.180072
320,228.82429199999999,20.752270000000003,38.086519,-0.325322,0.168215,1.121111
322,251.95697,39.30724,43.274586,-0.13086099999999998,0.010864,1.081071
324,273.44167200000004,41.565576,37.109941,0.196414,0.0177,1.084855
326,286.442359,47.669184,9.82681,0.484871,0.067018,1.4802469999999999
328,308.964675,60.547799,-27.588312,0.5459069999999999,-0.204105,1.274556
330,292.607004,67.383841,-58.899825,0.601205,-0.364385,0.721691
332,237.00312799999998,56.214237,-84.534981,0.563851,-0.21899699999999997,1.254658
334,216.372931,59.449149,-102.479591,0.260502,-0.289189,1.9999689999999999
336,259.769589,82.642863,-102.113375,-0.07190099999999999,-0.7166859999999999,1.9999689999999999
338,264.286259,78.553445,-73.670558,-0.146975,-0.8392459999999999,1.9999689999999999
340,304.87525800000003,80.872816,-52.979324,0.212772,-0.9152969999999999,1.99942
342,270.38986800000004,74.09781,-35.584039000000004,0.30164,-1.0392,1.592187
344,240.726329,43.701839,-19.897765,0.130251,-1.279072,1.525902
346,198.733501,49.988556,-7.324331,0.353643,-2.0000310000000003,0.9952540000000001
348,109.864958,78.553445,-35.645075,1.045914,-2.0000310000000003,0.208499
350,40.650034000000005,65.613794,-39.30724,0.49524700000000005,-2.0000310000000003,-0.781018
352,-62.012665000000005,-88.50232700000001,39.795528999999995,0.031738999999999996,-1.530175,0.976944
354,-167.11680800000002,-130.43411899999998,24.658579,1.1745780000000001,-1.74905,-0.619028
356,-118.28793799999998,-66.956588,-0.48828900000000003,0.393317,0.396368,1.293477
358,-294.926375,-44.068055,8.056764,-0.361334,0.288457,0.30933099999999997
360,-333.56221899999997,-50.2327,34.241245,0.346563,-0.571054,1.9999689999999999
362,-131.96002099999998,-40.527962,20.386053,-0.446784,-0.09765800000000001,1.9999689999999999
364,-30.273899,-62.378882,16.296635000000002,0.837659,0.46973400000000004,1.90457
366,-51.392386,32.776379,6.225681,-0.39758899999999997,-0.04773,1.4009
368,-39.978637,-5.432212,11.596857,0.38172,0.23291399999999998,1.204852
370,-47.364004,7.9957270000000005,9.82681,-0.257694,-0.12732100000000002,1.1338059999999999
372,-29.053178000000003,11.23064,7.263294,-0.020996,-0.00415,1.1030440000000001
374,-17.151141,5.188067,8.056764,-0.07910299999999999,0.080812,0.942153
376,-18.066682,0.366217,6.347753,-0.018677000000000003,0.054322,1.043107
378,-21.118485999999997,-0.549325,6.591897,-0.06958099999999999,0.031983,0.976089
380,-18.188754,-2.563516,7.141222,-0.09131,0.051514,0.9547260000000001
382,-17.090104999999998,-2.4414439999999997,5.7984279999999995,-0.014649,0.002075,1.07277
384,-12.390326,3.967346,4.577707,-0.041871,0.022338999999999998,1.05275
386,-12.695506,7.2022580000000005,4.8218510000000006,-0.049073,0.022827,0.9751129999999999
388,-14.831769,6.836042,5.61532,-0.073976,0.021241,0.9953770000000001
390,-16.906996,4.150454,6.958114,-0.11133,0.020263999999999997,0.964736
392,-19.043259,-0.48828900000000003,6.2867169999999994,-0.11096400000000001,0.015503,0.9579
394,-15.747310999999998,-4.760815,4.882887,-0.092287,-0.004517,0.980117
396,-12.451362,-8.239872,3.6011290000000002,-0.101686,-0.012206999999999999,0.995743
398,-10.620279,-13.061722999999999,2.136263,-0.135378,0.010131999999999999,1.2679639999999999
400,-8.239872,-15.869383,0.976577,-0.032958999999999995,-0.009276999999999999,0.9192030000000001
402,-11.718929,-20.447089000000002,-1.09865,-0.052735000000000004,-0.015015,1.010513
404,-12.695506,-18.554971,-2.868696,-0.030151999999999998,-0.007812999999999999,1.129412
406,-9.399557000000001,-13.794156,-1.525902,-0.025269,-0.048951,1.007462
408,-8.1178,-8.300908,0.549325,-0.048341,-0.009766,0.997818
410,-13.550010999999998,-7.568475,0.9155409999999999,-0.023926,0.061890999999999995,1.046769
412,-23.498894,-11.963073,1.8310830000000002,-0.039550999999999996,-0.001099,0.910536
414,-34.973678,-16.479744,0.0,-0.094972,0.018799,0.944594
416,-48.889905999999996,-16.723888,-1.8310830000000002,-0.041627,-0.051514,0.995132
418,-49.866484,-16.84596,-0.549325,-0.025391,-0.134768,0.979141
420,-36.987869,-11.352712,4.089418,-0.020630000000000003,-0.122927,1.021012
422,-42.236973,-9.216449,-7.446403,-0.10888800000000001,-0.015747,0.991836
424,-72.449836,-5.371176,-33.203632,0.064454,-0.27368600000000004,1.064714
426,-8.606088,-4.333562000000001,-24.841688,0.044923000000000005,-0.136599,1.025528
428,-38.635843,-6.652933999999999,-4.394598,-0.039918,-0.048341,1.061051
430,-58.899825,-14.282444,-23.682002,-0.010376,0.13073900000000002,0.8763559999999999
432,-110.414282,-23.804074,-19.836728,0.04004,0.371832,0.8242309999999999
434,-305.668727,-10.681315,-81.300069,0.209842,1.1665219999999998,1.830961
436,-821.667811,-0.061036,33.325703999999995,-0.498543,0.32398000000000005,1.246967
438,-976.76051,-59.937438,94.42282800000001,0.614633,-1.209735,1.153338
440,-195.193408,-138.979171,-86.488136,-0.32202600000000003,-2.0000310000000003,1.9999689999999999
442,161.92874,-72.877089,-90.821698,-0.23022800000000002,1.222309,1.8741740000000002
444,-86.488136,-80.689708,26.001373,-0.43018199999999995,0.500618,1.234272
446,132.021057,-17.822538,-3.051804,-0.45593999999999996,0.51368,0.723644
448,101.56405,-33.752956,22.705425,-0.45972399999999997,0.245365,0.9901270000000001
450,163.210498,-43.701839,33.203632,-0.30493600000000004,0.37219800000000003,1.0509190000000002
452,215.70153399999998,-28.0766,26.428626,-0.148318,0.298344,1.196918
454,248.72205699999998,0.793469,15.014878,-0.13073900000000002,0.15845,1.213886
456,285.404746,9.52163,9.399557000000001,-0.117556,-0.023681999999999998,1.14345
458,308.964675,2.380407,7.812619000000001,-0.041138,-0.096193,1.1305100000000001
460,326.909285,-0.549325,-1.281758,0.082399,-0.125978,1.346578
462,320.988785,37.964446,-27.527276,0.204715,-0.463508,0.819959
464,267.21599100000003,69.398032,-38.757915999999994,0.11609100000000001,-0.400519,1.1036549999999998
466,253.055619,36.011292,-51.697565999999995,0.105959,-0.322515,1.9999689999999999
468,264.89662000000004,66.04104699999999,-63.477531000000006,0.036866,-0.616953,1.9999689999999999
470,258.426795,73.426413,-61.036088,-0.213504,-0.7089949999999999,1.9999689999999999
472,293.400473,67.261769,-47.913329,-0.17908,-0.898451,1.9999689999999999
474,290.775921,82.825971,-39.063096,-0.115969,-0.961318,1.9999689999999999
476,275.394827,90.516518,-36.49958,0.246342,-0.938125,1.794461
478,250.919356,91.432059,-41.931792,0.45948,-1.309224,1.630762
480,196.16998600000002,84.901198,-32.898451,0.46619399999999994,-2.0000310000000003,0.885267
482,100.282292,64.69825300000001,-23.682002,0.934218,-2.0000310000000003,0.25451999999999997
484,65.003433,32.471199,-36.987869,0.707897,-2.0000310000000003,-0.9986719999999999
486,-107.057298,-99.36675100000001,21.118485999999997,0.11767799999999999,-1.7960479999999999,0.883192
488,-134.340429,-82.337682,-2.929732,0.13135,0.145022,1.353414
490,-111.207752,-32.898451,27.832456,-0.43897200000000003,1.183124,0.26160100000000003
492,-363.59197400000005,-105.409323,70.740826,0.27722600000000003,-0.150515,0.346929
494,-260.86823799999996,-11.902037,39.185168,1.607324,-0.364263,1.9999689999999999
496,-171.26726200000002,35.034714,-20.447089000000002,-0.5451739999999999,-0.345098,1.9999689999999999
498,-88.868544,-83.25322299999999,55.054551000000004,-1.0778969999999999,-0.531624,0.80885
500,-72.449836,-83.49736800000001,22.46128,1.570581,0.122805,1.9999689999999999
502,-40.588998,-57.373922,17.517357,-0.45459700000000003,0.038941,0.905531
504,-40.344854,-26.245518,0.30518,0.194217,-0.005982,1.201068
506,-25.696193,-26.184482,-0.122072,0.172854,0.135622,1.1589530000000001
508,-11.474784,-1.7700470000000001,1.586938,0.008667,0.051514,1.0706950000000002
510,-18.371862,5.554284,3.90631,0.0448,0.07128999999999999,1.012222
512,-19.531548,5.981537,4.455634,0.017334,0.050172,1.0150299999999999
514,-21.240558,4.5166699999999995,5.065995,-0.033692,0.067384,0.978775
516,-20.996414,-0.48828900000000003,3.6011290000000002,-0.039185000000000005,0.045777,0.9362940000000001
518,-23.437858,-4.028382,2.929732,-0.016236,0.022583000000000002,1.055436
520,-19.34844,-3.418021,2.685588,-0.025147,0.0365,1.02211
522,-15.259022,-4.272526,1.037613,-0.013793999999999999,0.042847,1.016251
524,-15.014878,-5.61532,0.793469,-0.011475,0.014159999999999999,0.9941559999999999
526,-13.977264000000002,-5.737392,0.854505,-0.014405000000000001,0.02295,0.999893
528,-13.366903,-7.080186,0.793469,0.012085,0.002075,0.998917
530,-10.070953999999999,-6.71397,-0.366217,-0.0058590000000000005,0.027344,1.0717940000000001
532,-10.864424,-7.934691,0.183108,0.000977,0.007935,0.9782860000000001
534,-12.390326,-8.361944,-0.48828900000000003,-0.007568000000000001,0.044312,1.049699
536,-11.047532,-7.263294,-0.183108,0.029786,-0.011719,0.9837799999999999
538,-14.770732999999998,-4.455634,0.061036,0.035279000000000005,0.007568000000000001,0.952773
540,-26.67277,-4.882887,0.793469,-0.006958,0.019532,0.9720610000000001
542,-32.654307,-6.347753,0.061036,0.009522,0.018555000000000002,0.971817
544,-39.368276,-6.652933999999999,-1.40383,-0.048463,-0.000122,1.024918
546,-57.129778,-6.347753,7.263294,0.000732,-0.050172,0.9864649999999999
548,-48.035401,-0.183108,8.361944,0.054444000000000006,-0.055421000000000005,1.0285799999999998
550,-44.92256,-1.2207219999999999,2.563516,-0.058473000000000004,-0.08984500000000001,0.885023
552,-56.641489,-7.324331,-17.456321,-0.106325,0.006836,1.009659
554,-91.920348,7.9957270000000005,-35.706111,0.108766,-0.33814,1.119158
556,-9.887846000000001,-5.0049589999999995,-2.197299,0.02356,-0.12732100000000002,1.006119
558,-65.36965,1.7700470000000001,-20.508125,0.021118,0.271489,0.898695
560,-157.106889,8.42298,-13.244831,0.024048,0.544198,0.439094
562,-288.944839,-12.878614,-23.376822,0.222171,1.13283,1.71548
564,-910.5363550000001,-26.916915000000003,-16.052491,-0.917983,-0.394903,1.774197
566,-1119.829099,-76.90547,107.057298,1.116716,-2.0000310000000003,1.9999689999999999
568,207.766842,-55.664912,-61.585412,-0.912734,-0.41809700000000005,1.9999689999999999
570,217.044327,-52.796216,-26.977951,-0.5358970000000001,1.9393610000000001,0.651011
572,-50.293735999999996,-128.480964,115.053025,0.099245,0.8402229999999999,-0.195071
574,104.493782,-34.302281,9.033341,0.06274500000000001,0.741344,0.607309
576,64.02685600000001,13.672084,-6.775005999999999,-0.183474,0.480232,0.88661
578,131.105516,-8.545052,-9.52163,-0.237308,0.519295,0.8842909999999999
580,184.267948,-22.095064,-11.902037,-0.125612,0.42066099999999995,1.265644
582,230.16708599999998,-9.338521,-22.522316,-0.046021,0.26392,1.220844
584,266.422522,-7.6905470000000005,-35.88922,-0.026489999999999996,0.14538800000000002,1.042252
586,287.84618900000004,1.40383,-50.171664,0.022216999999999997,0.079591,1.305928
588,305.05836600000004,23.926146,-66.590372,0.042237000000000004,-0.192752,1.0327309999999998
590,279.728389,54.566262,-75.684749,-0.001099,-0.39014299999999996,0.870619
592,242.67948399999997,67.139696,-78.431373,0.048341,-0.27563899999999997,1.472923
594,229.373617,94.42282800000001,-73.18226899999999,-0.11840999999999999,-0.40381500000000004,1.9999689999999999
596,258.67093900000003,112.48950900000001,-49.378195,-0.23889499999999997,-0.71107,1.9999689999999999
598,260.074769,93.324178,-16.479744,-0.09838999999999999,-0.7843140000000001,1.9999689999999999
600,308.720531,74.402991,0.183108,0.04065,-0.906264,1.9999689999999999
602,296.69642200000004,81.23903299999999,0.30518,0.507454,-0.8563360000000001,1.6778819999999999
604,262.577249,65.003433,-7.385367,0.329839,-1.1230639999999998,1.9764709999999999
606,243.289845,41.687647999999996,3.479057,0.093263,-1.897002,1.443992
608,163.271534,52.857252,0.854505,0.7878539999999999,-2.0000310000000003,0.6952010000000001
610,96.131838,126.222629,-62.134737,0.887709,-2.0000310000000003,-0.307134
612,-28.625925,10.803388,-3.418021,-0.223392,-2.0000310000000003,-1.012345
614,-306.523232,-272.770275,63.904784,1.3593959999999998,-1.628809,0.769543
616,-111.879149,-40.650034000000005,15.625238000000001,-0.31043000000000004,1.303487,1.9999689999999999
618,-322.453651,-68.116274,43.335622,0.063722,-0.159182,0.45618400000000003
620,-296.14709700000003,-23.987182,42.847333,1.1853209999999998,-0.253788,1.9999689999999999
622,-181.826505,-18.24979,20.080873,-1.3502399999999999,-0.433845,1.9999689999999999
624,-61.219196,-116.456855,30.457008000000002,1.540429,0.207889,1.9999689999999999
626,-61.890593,6.652933999999999,12.085144999999999,-0.8851450000000001,-0.072755,0.921767
628,-36.865797,-33.936065,-0.48828900000000003,0.654673,0.166995,1.472313
630,-31.860838,-18.24979,4.699779,-0.129397,-0.038575,1.127214
632,-21.789883,-7.934691,3.356985,-0.063966,-0.013672,1.057023
634,-9.765774,-7.507439,1.8921189999999999,0.054322,0.062989,1.010269
636,-10.559242999999999,-5.065995,3.356985,0.015015,0.048219,1.009293
638,-15.564201999999998,-3.356985,3.1128400000000003,-0.025635,0.00647,0.9560690000000001
640,-19.226368,-9.277485,4.943923000000001,-0.062135,0.024291999999999998,0.9084610000000001
642,-17.883574,-15.13695,1.464866,-0.06640700000000001,-0.0021969999999999997,1.015274
644,-21.728847000000002,-19.470512,0.9155409999999999,-0.028564999999999997,0.013672,1.0483559999999998
646,-14.465553,-17.639429,-2.929732,-0.039673,0.008545,1.103899
648,-11.902037,-12.878614,-0.976577,0.032349,0.011719,0.981582
650,-12.817578,-9.643702000000001,-0.30518,0.022583000000000002,-0.02417,0.9788969999999999
652,-12.024109,-7.629511,-0.976577,-0.033326,-0.046265,1.0213780000000001
654,-12.63447,-7.141222,1.09865,0.023072,0.058106,1.0365149999999999
656,-11.352712,-7.446403,0.549325,0.036378,-0.028199000000000002,0.9344629999999999
658,-12.756542,-6.591897,1.586938,0.024537,0.009155,0.9820709999999999
660,-15.747310999999998,-7.873655,1.525902,0.0043950000000000005,0.021851,0.984024
662,-18.799115,-7.446403,1.09865,0.019653999999999998,-0.026733999999999997,0.95668
664,-22.400244,-6.958114,2.014191,0.012695999999999999,0.015503,1.007462
666,-27.710384,-6.103609,2.685588,0.041627,0.028199000000000002,1.001236
668,-33.142596000000005,-4.5166699999999995,3.356985,0.033936,-0.030151999999999998,1.005875
670,-33.264668,-5.371176,3.479057,0.022583000000000002,-0.023194,1.0393219999999999
672,-35.767146999999994,-4.8218510000000006,2.4414439999999997,0.099855,-0.008789,0.9875639999999999
674,-48.767834,-0.061036,6.836042,0.047608,-0.084108,0.979751
676,-57.434957999999995,3.051804,9.52163,0.026246,-0.060792,1.0164950000000001
678,-54.993515,2.746624,1.7700470000000001,-0.04065,-0.08276499999999999,0.934951
680,-54.627297999999996,-2.624552,-11.596857,-0.063111,-0.065919,1.048478
682,-51.148241,5.859464,-47.913329,0.126101,-0.282841,0.9521629999999999
684,-12.207218,-8.728161,-3.90631,0.108278,-0.255375,1.065812
686,-42.1149,4.394598,-12.878614,0.055665,0.179812,0.9817040000000001
688,-119.325551,23.926146,-16.906996,-0.042847,0.42945,0.8610969999999999
690,-199.77111499999998,-35.828183,-12.451362,-0.314092,0.850843,1.594507
692,-684.8249030000001,-50.965133,-16.906996,-0.5824060000000001,0.6007170000000001,1.903471
694,-943.0075529999999,-161.379416,84.16876500000001,0.057252,0.196048,0.858167
696,-708.995193,-104.615854,180.727855,-1.1545590000000001,-1.373556,1.9999689999999999
698,443.06095999999997,15.197985999999998,-69.947356,-0.559457,1.300557,1.9999689999999999
700,35.584039000000004,-46.509499,18.554971,-0.863294,0.541512,0.035523
702,30.273899,-56.397344999999994,30.029754999999998,-0.411749,0.239628,0.461189
704,75.31853199999999,-24.597542999999998,24.841688,-0.34473200000000004,0.548226,0.9083389999999999
706,141.054398,-22.217136,24.475471,-0.237675,0.516732,1.388449
708,192.75196499999998,-9.277485,13.977264000000002,-0.05774,0.441779,1.340963
710,243.106737,29.236286,-4.882887,-0.006958,0.23975,1.125628
712,272.22095099999996,36.560615999999996,-13.244831,0.059327,0.059937,1.1057299999999999
714,300.053407,31.128404999999997,-21.179522,0.168704,-0.010254000000000001,1.081193
716,309.575036,31.006332,-36.316472,0.290532,-0.036866,1.2057069999999999
718,299.748226,61.585412,-58.289464,0.336309,-0.38403899999999996,0.8809950000000001
720,261.356527,76.90547,-71.16807800000001,0.373175,-0.388312,0.84535
722,212.77180099999998,85.999847,-80.018311,0.235233,-0.230961,1.863188
724,239.32249900000002,77.45479499999999,-76.356146,0.09704700000000001,-0.495979,1.9999689999999999
726,271.000229,96.375982,-65.308614,-0.012695999999999999,-0.800549,1.9999689999999999
728,278.995956,79.65209399999999,-39.917601,-0.020630000000000003,-1.021622,1.9999689999999999
730,275.88311600000003,89.417868,-27.588312,0.286625,-0.8966200000000001,1.9999689999999999
732,277.836271,78.370336,-24.353399,0.319585,-0.928847,1.732448
734,250.55313999999998,54.261081999999995,-18.616007,0.17847000000000002,-1.18703,1.700343
736,218.509194,48.340581,-17.456321,0.23987199999999997,-1.8429240000000002,1.0121
738,123.35393300000001,85.08430600000001,-32.288090000000004,0.719249,-2.0000310000000003,0.251591
740,45.899138,100.343328,-30.701152,0.383307,-2.0000310000000003,-0.258549
742,-39.612421000000005,-40.527962,40.344854,0.073487,-1.7628439999999999,0.349004
744,-140.87129,-131.04448,39.124132,0.207156,-1.605249,-0.14257999999999998
746,-153.017472,-82.581827,54.871443000000006,-0.070802,0.130251,1.252338
748,-277.22591,-86.549172,67.07866,0.386847,0.726696,0.071778
750,-294.621195,-50.415808,48.584726,1.294087,-0.30688899999999997,1.9999689999999999
752,-191.836423,23.010604999999998,-1.525902,-0.21826500000000001,-0.35278899999999996,1.9999689999999999
754,-126.52781,-91.55413100000001,63.111315000000005,-0.730114,-0.42761899999999997,1.712551
756,-57.129778,-38.879988,1.586938,1.226093,0.141238,1.848783
758,-56.214237,-46.814679,14.648660999999999,-0.24072600000000002,0.073732,1.300801
760,-48.279545,-10.315099,-0.427253,-0.049805,0.034546,1.294697
762,-20.630198,-16.174563,-4.5166699999999995,0.166384,0.08069,1.10341
764,-17.456321,-3.723201,0.854505,0.021118,0.032349,1.071183
766,-13.611048,6.530861,3.90631,0.008911,0.032715,1.034806
768,-14.709697,10.131991000000001,5.493248,0.018189,0.049928,0.996353
770,-17.578393,9.52163,3.6621650000000003,0.098146,0.035401,0.862074
772,-20.508125,5.188067,4.760815,-0.028321,0.020508000000000002,0.9666899999999999
774,-16.968032,3.6011290000000002,3.784237,-0.016724,0.032349,0.9979399999999999
776,-17.517357,2.990768,2.990768,-0.025391,0.030396,1.003922
778,-17.395285,3.967346,2.685588,-0.019043,0.020142,1.0078280000000002
780,-12.695506,5.188067,1.159686,-0.014771000000000001,-0.008057,1.080705
782,-14.099336,3.295949,1.8921189999999999,-0.023804,0.009766,0.989883
784,-13.061722999999999,2.197299,2.075227,-0.040894,0.005493,1.0037989999999999
786,-11.718929,-0.183108,1.342794,-0.024781,-0.006958,1.019059
788,-8.239872,-1.7700470000000001,0.183108,-0.029419,0.011231,0.9793850000000001
790,-10.070953999999999,-1.70901,-1.953155,0.041871,-0.141482,0.6789649999999999
792,-19.531548,-8.667124000000001,0.671397,-0.047608,0.032715,0.968399
794,-19.287404000000002,-11.841001,-0.122072,-0.020752,-0.003906,1.010147
796,-21.850919,-13.061722999999999,-1.281758,-0.011353,0.0021969999999999997,0.985
798,-25.696193,-11.963073,-2.4414439999999997,0.0021969999999999997,0.005005,0.9823149999999999
800,-36.072328000000006,-10.681315,-3.1128400000000003,-0.034302,0.036011,0.9632719999999999
802,-49.92752,-12.146181,0.549325,0.018799,-0.014893,0.8889299999999999
804,-58.228428,-13.855192,7.263294,0.008667,-0.136599,1.206683
806,-45.227740999999995,-2.380407,4.8218510000000006,-0.065675,-0.030762,1.060075
808,-46.936751,-8.911269,-2.563516,-0.044677999999999995,-0.034668,0.981949
810,-63.782712,-4.943923000000001,-28.870069,-0.033204000000000004,0.16846,0.9585110000000001
812,-48.584726,-6.469825,-30.701152,0.16589600000000002,-0.395392,1.117327
814,-33.813992999999996,-7.751583,-11.047532,0.021851,0.003662,1.037613
816,-97.65774,-0.976577,-19.043259,0.031738999999999996,0.284062,1.016617
818,-162.966354,-2.868696,-29.846646999999997,0.017823,0.305669,0.665415
820,-541.084916,1.09865,-11.779964999999999,0.507454,1.747829,1.600732
822,-887.647822,-76.90547,60.66987099999999,-0.037476,0.010376,1.349874
824,-1187.945373,-165.651942,130.67826399999998,0.180911,-2.0000310000000003,1.9999689999999999
826,282.65812200000005,-60.364691,-78.736553,-0.29138600000000003,1.017594,1.9999689999999999
828,164.187076,-0.671397,-96.864271,-0.516365,0.593271,1.374411
830,-14.282444,-38.879988,21.911955,-0.374151,0.29736799999999997,0.120974
832,98.329137,-8.545052,11.413748,-0.406134,0.38941,0.311894
834,77.271687,-26.123445,35.339895,-0.39710100000000004,0.285893,0.949233
836,139.101244,-37.842374,43.030442,-0.23071599999999998,0.431281,1.244404
838,197.756924,-21.789883,32.104982,-0.045167,0.40174,1.499168
840,246.46372200000002,14.770732999999998,12.878614,-0.05651900000000001,0.21216100000000002,1.574609
842,304.44800499999997,24.780652,5.554284,-0.10888800000000001,-0.07531900000000001,1.315328
844,326.848249,9.155413000000001,6.469825,0.037964,-0.130617,1.050431
846,330.20523399999996,-8.300908,-10.315099,0.348394,-0.13257,1.338399
848,316.16693399999997,32.104982,-56.092164000000004,0.5553060000000001,-0.510628,0.834119
850,259.159228,54.13901,-89.723049,0.374151,-0.317144,0.977066
852,221.43892599999998,43.823910999999995,-108.5832,0.154421,-0.296635,1.9999689999999999
854,239.566644,82.398718,-109.254597,-0.21118499999999998,-0.7371939999999999,1.9999689999999999
856,291.935607,86.976425,-81.11695999999999,-0.340093,-0.922499,1.9999689999999999
858,336.675059,85.877775,-53.833829,-0.129519,-1.180194,1.9615779999999998
860,272.281987,124.75776299999998,-40.222782,0.511604,-0.933852,1.8600139999999998
862,273.07545600000003,98.75639,-37.232013,0.568246,-1.1179370000000002,1.8509799999999998
864,234.13443199999998,68.604562,-17.761501000000003,0.406622,-2.0000310000000003,1.2398870000000002
866,122.98771599999999,91.493095,-23.804074,1.077531,-2.0000310000000003,0.21240599999999998
868,92.59174499999999,126.466773,-47.364004,0.404913,-2.0000310000000003,-1.367575
870,-113.34401499999998,-88.746471,55.90905600000001,-0.015869,-2.0000310000000003,-2.0000310000000003
872,-273.01442000000003,-172.61005600000001,41.80972,0.842176,-1.368795,1.42385
874,-117.00618,-91.248951,10.070953999999999,-0.27478400000000003,0.948501,1.736965
876,-301.701381,-75.684749,43.640803000000005,-0.123171,-0.468391,0.149172
878,-289.005875,-49.561303,56.824597999999995,1.054826,-0.273198,1.9999689999999999
880,-130.128939,-8.606088,16.357671,-0.606699,0.295903,1.9999689999999999
882,-64.332036,-90.882734,23.559929999999998,0.8291139999999999,0.043336,1.9999689999999999
884,-46.753643,19.836728,6.71397,-0.266361,0.07470800000000001,1.0053860000000001
886,-35.217822999999996,-20.691233999999998,6.469825,0.473396,0.130495,1.341695
888,-39.551384999999996,1.525902,6.103609,-0.273442,-0.10009900000000001,1.067887
890,-22.705425,6.164645,3.418021,-0.033082,0.035279000000000005,1.029679
892,-11.902037,9.094377,4.394598,0.041627,0.050416,1.064225
894,-10.864424,12.451362,6.103609,-0.001831,0.050294,1.032853
896,-10.864424,15.564201999999998,5.9205,-0.049683,0.045655,1.008194
898,-7.873655,13.366903,5.0049589999999995,-0.09094400000000001,0.047608,0.977066
900,-8.911269,6.2867169999999994,4.21149,-0.072511,0.023316,1.009049
902,-4.943923000000001,2.319371,2.563516,-0.097169,0.033448,0.967666
904,-6.958114,-5.127031,1.09865,-0.091554,0.055665,0.95668
906,-9.094377,-8.484016,0.244144,-0.074098,0.034302,0.983902
908,-11.169604,-8.789197,0.244144,-0.056641,0.040772,0.969986
910,-18.127717999999998,-9.82681,1.342794,-0.09192,0.103273,1.194965
912,-22.034028,-13.427939000000002,1.525902,-0.040527999999999995,0.015259,0.9557030000000001
914,-20.752270000000003,-13.122759,0.732433,-0.050538,0.030639999999999997,1.050065
916,-19.531548,-12.63447,0.244144,-0.03418,0.016236,1.018692
918,-13.733120000000001,-8.300908,1.342794,-0.032715,-0.011597,0.999893
920,-15.991454999999998,-6.530861,2.136263,-0.053101,0.029541,0.957778
922,-26.306554,-10.742351,2.197299,-0.038087,0.0031739999999999997,0.9747459999999999
924,-27.344167,-11.657893,2.380407,-0.018433,0.017945,0.996109
926,-32.532235,-10.864424,3.356985,-0.009888,-0.006836,0.9956209999999999
928,-39.673457,-11.718929,1.342794,-0.059327,0.001831,0.9820709999999999
930,-45.593957,-14.221407999999998,-0.976577,-0.06713999999999999,0.016114,0.930312
932,-62.439918000000006,-14.709697,2.929732,-0.029175,-0.082277,0.968643
934,-53.650721,-11.474784,7.568475,0.034791,-0.05651900000000001,1.046525
936,-46.448463000000004,-8.300908,0.9155409999999999,-0.029907999999999997,-0.150515,0.999527
938,-35.217822999999996,-10.559242999999999,-9.033341,-0.06384400000000001,-0.157839,0.888808
940,-56.824597999999995,2.624552,-61.219196,0.06286699999999999,-0.275395,1.051164
942,-22.46128,-5.127031,-4.272526,-0.043336,-0.086549,1.057877
944,-53.284504000000005,-13.305867000000001,-18.066682,0.046632,0.145022,0.961929
946,-114.808881,-12.817578,-17.883574,0.138796,0.329473,0.797864
948,-216.617075,-31.006332,-70.801862,-0.140139,0.674083,1.845121
950,-755.38262,10.131991000000001,-13.488975,-0.398688,0.580453,1.3194780000000002
952,-952.162966,-67.505913,66.83451600000001,0.248295,-0.158816,0.78468
954,-443.91546500000004,-65.980011,-17.94461,-1.21059,-2.0000310000000003,1.9999689999999999
956,248.41687599999997,-20.202945,-50.904097,-1.080339,1.167742,1.9999689999999999
958,-47.547112,-48.401617,61.646448,-0.580819,0.19104300000000002,0.506844
960,96.070802,-21.484703,59.693293999999995,-0.39966399999999996,0.451545,0.270512
962,56.336309,-48.767834,81.422141,-0.161135,0.37818,0.8941790000000001
964,125.73433999999999,-62.623026,64.759289,0.241825,0.648203,1.142962
966,173.89181399999998,-38.147555,18.799115,0.412238,0.6303810000000001,1.464866
968,235.96551499999998,-20.569162,-27.588312,0.261234,0.376837,1.317769
970,278.263523,-27.771420000000003,-52.491035,0.0636,0.11816600000000001,1.044694
972,296.025025,-33.875029,-61.524376000000004,-0.052125,-0.0015869999999999999,0.970352
974,302.861067,-23.437858,-68.36041800000001,-0.04712,0.018799,1.501366
976,328.740368,10.193027,-78.3093,-0.12182799999999999,-0.233402,1.514916
978,314.396887,54.383154000000005,-79.10276999999999,-0.265629,-0.533944,0.9278709999999999
980,253.54390800000002,70.618753,-66.22415500000001,-0.268803,-0.46363000000000004,1.3832
982,236.33173100000002,81.849393,-43.274586,-0.541878,-0.6128020000000001,1.9999689999999999
984,240.36011299999998,76.661326,-4.028382,-0.50013,-0.745251,1.9999689999999999
986,305.30251,83.131151,15.625238000000001,-0.185061,-0.890394,1.9999689999999999
988,317.082475,93.690394,12.268253999999999,0.28455,-0.931167,1.900664
990,281.62050800000003,113.71023100000001,-27.832456,1.1574879999999999,-0.8326540000000001,1.817655
992,266.117342,78.248264,-72.938125,1.028458,-1.281514,1.531395
994,210.14725,46.204318,-91.73724,0.542611,-2.0000310000000003,0.906264
996,107.911803,78.736553,-118.776226,0.586435,-2.0000310000000003,0.347906
998,39.917601,113.09987,-104.188602,-0.329473,-2.0000310000000003,-0.258305
1000,-130.55619099999998,-107.972839,33.997101,-1.256001,-2.0000310000000003,-1.798489
1002,-185.122454,-203.311208,130.43411899999998,0.883192,-0.35938000000000003,1.9999689999999999
1004,-241.580835,-118.471046,122.194247,1.168353,0.9790190000000001,0.822034
1006,-308.842603,-36.743725,55.237658999999994,1.84622,-0.177371,1.7756619999999999
1008,-206.668193,31.189441,-10.803388,0.109865,-0.616831,1.9999689999999999
1010,-165.10261699999998,-71.839475,48.52369,-1.8443880000000001,-0.791272,1.55874
1012,-72.083619,-109.19356100000002,19.65362,1.9999689999999999,0.337163,1.9999689999999999
1014,-57.801175,-38.147555,5.676356,-0.929458,-0.06884900000000001,1.10988
1016,-35.156786,-35.584039000000004,-2.197299,0.500008,0.06286699999999999,1.578759
1018,-5.9205,-29.053178000000003,0.48828900000000003,0.053834,0.06958099999999999,1.109148
1020,-14.343481,-20.080873,1.464866,0.074464,-0.029175,1.1491870000000002
1022,-2.075227,-7.934691,4.028382,0.099123,0.088746,0.961685
1024,-14.953841,-0.244144,6.836042,0.057617999999999996,0.072755,0.978042
1026,-19.775692000000003,-2.136263,5.61532,0.038819,0.059083000000000004,0.965591
1028,-18.738079,-3.784237,1.8921189999999999,-0.138552,0.140505,0.989395
1030,-9.338521,-6.164645,0.671397,0.076905,-0.037110000000000004,1.017472
1032,-9.887846000000001,-7.324331,0.671397,0.051881,0.041505,1.0078280000000002
1034,-7.446403,-3.723201,0.976577,0.075074,0.043824,1.002335
1036,-12.451362,-1.281758,0.671397,0.049805,0.048219,0.980484
1038,-16.968032,1.40383,0.48828900000000003,0.032227,0.011231,0.9869540000000001
1040,-19.287404000000002,-1.647974,0.366217,0.033326,0.023194,0.952407
1042,-21.972992,-2.990768,0.061036,0.038941,0.014038,1.008194
1044,-19.592584,-2.136263,0.061036,0.022827,0.012451,0.96791
1046,-24.414435,-4.699779,-0.244144,0.033082,-0.002564,0.949844
1048,-28.381781,-6.71397,0.976577,0.032593000000000004,-0.0177,0.969986
1050,-26.428626,-5.065995,2.319371,0.101198,-0.011475,1.094377
1052,-25.329976000000002,0.366217,3.723201,0.048219,-0.032349,0.9553370000000001
1054,-32.532235,2.746624,4.089418,0.064454,0.045411,1.162005
1056,-42.298009,1.586938,0.427253,0.022583000000000002,-0.054444000000000006,0.9935450000000001
1058,-48.889905999999996,-0.366217,-3.1128400000000003,0.081544,0.042237000000000004,0.939467
1060,-73.365377,4.5166699999999995,-0.122072,0.135744,-0.16833800000000002,1.0633709999999998
1062,-33.264668,6.042573,4.577707,0.02356,-0.063722,0.9159079999999999
1064,-51.63653,3.845274,-19.531548,-0.10693499999999999,-0.140749,1.0432290000000002
1066,-45.654994,3.295949,-36.987869,0.11303900000000001,-0.304204,0.9779200000000001
1068,-3.234913,-3.845274,-0.427253,0.192996,-0.088136,1.1109790000000002
1070,-70.435645,24.231327,-8.850233,0.09131,0.134401,0.9437399999999999
1072,-180.117494,22.827497,-17.761501000000003,-0.226444,0.570565,0.750378
1074,-233.27992700000001,-83.680476,28.442816999999998,-0.336675,0.575448,1.299947
1076,-722.056916,-315.495537,75.074388,-0.502205,0.425299,1.987701
1078,-983.2913710000001,-266.605631,151.00328100000002,1.6950939999999999,-1.828641,1.9999689999999999
1080,-111.024643,67.811093,-48.82887,0.22998400000000002,-1.519799,1.9999689999999999
1082,175.234607,101.441978,-136.842908,-0.338018,0.900649,1.490745
1084,-120.79041699999999,-62.317845,30.701152,-0.621103,0.505257,1.2529489999999999
1086,123.65911299999999,-5.981537,25.085832,-0.38513800000000004,0.375494,0.9873200000000001
1088,83.98565699999999,4.577707,40.955215,-0.223392,0.376715,0.894911
1090,164.675364,11.169604,36.49958,-0.03772,0.397955,0.8559700000000001
1092,169.253071,19.226368,28.564889,0.094606,0.317754,1.078386
1094,216.06775,38.879988,8.911269,0.170779,0.304082,1.295674
1096,255.436027,45.532921,-7.263294,0.156252,0.058227999999999995,1.2871290000000002
1098,280.03357,44.373236,-14.0383,0.16211199999999998,-0.091798,1.115251
1100,285.404746,40.650034000000005,-22.583351999999998,0.269902,-0.145876,1.3038530000000002
1102,297.795071,47.913329,-38.147555,0.260502,-0.258305,1.6463869999999998
1104,305.180438,67.017624,-49.622339000000004,0.23633200000000001,-0.46753599999999995,1.3393760000000001
1106,276.249332,82.459754,-60.730906999999995,0.398566,-0.526131,1.1648129999999999
1108,231.143664,77.393759,-77.45479499999999,0.515755,-0.428717,1.4681620000000002
1110,217.959869,50.354772,-96.742199,0.44947,-0.409918,1.9999689999999999
1112,264.71351200000004,65.918975,-112.428473,0.171023,-0.647105,1.9999689999999999
1114,296.20813300000003,79.59105799999999,-104.005493,0.093874,-0.8327760000000001,1.921172
1116,267.826352,85.877775,-80.262455,0.12549000000000002,-0.979751,1.655299
1118,243.472953,68.299382,-54.016938,0.044433999999999994,-1.283467,1.500999
1120,203.250172,75.684749,-28.931106,0.137087,-1.9691459999999998,1.11989
1122,121.278706,114.442664,-28.564889,0.757336,-2.0000310000000003,0.598642
1124,71.229114,143.61791399999998,-17.94461,0.310307,-2.0000310000000003,-0.42249200000000003
1126,-36.804761,-28.137635999999997,59.327077,0.137087,-1.584009,-0.054077999999999994
1128,-265.934234,-230.228122,86.976425,1.293965,-1.325338,-0.08423
1130,-120.48523700000001,-106.446937,23.254749,0.377325,0.78883,1.9999689999999999
1132,-229.80087000000003,-84.412909,28.320745000000002,0.098756,0.10144199999999999,-0.396368
1134,-339.848936,-88.685435,51.087205,0.351812,-0.46375200000000005,1.9999689999999999
1136,-135.07286200000001,-28.442816999999998,27.283131,0.100221,-0.100465,1.8628209999999998
1138,-135.805295,-67.322805,39.612421000000005,0.216678,-0.10998699999999999,1.9706110000000001
1140,-71.778439,-32.837415,3.540093,0.437263,-0.08996699999999999,1.750271
1142,-69.214923,-31.738766,7.934691,0.258793,0.053346000000000005,1.259663
1144,-59.75433,0.244144,2.990768,-0.10376099999999999,-0.096437,1.310689
1146,-30.151827,1.586938,0.854505,0.044068,0.034913,1.090471
1148,-20.325017000000003,3.173877,1.586938,-0.013428,0.030274000000000002,0.9500879999999999
1150,-20.325017000000003,5.065995,3.540093,-0.015259,-0.053834,1.0321200000000001
1152,-17.700464999999998,6.164645,4.028382,-0.015137000000000001,0.0008550000000000001,1.050675
1154,-14.892805,7.2022580000000005,3.356985,-0.009522,0.025269,1.005264
1156,-14.953841,8.300908,3.6011290000000002,0.001831,0.007568000000000001,1.028824
1158,-11.169604,10.559242999999999,4.455634,-0.022338999999999998,-0.021118,1.0309
1160,-7.873655,10.864424,4.8218510000000006,-0.043213999999999995,0.018311,0.988663
1162,-11.596857,7.629511,3.723201,-0.044068,0.014893,0.9820709999999999
1164,-11.963073,4.5166699999999995,2.075227,-0.042725,0.005249,0.9710840000000001
1166,-12.32929,1.7700470000000001,1.525902,-0.050172,-0.028564999999999997,1.010025
1168,-10.009917999999999,-0.183108,1.037613,-0.052979,0.001953,0.9976959999999999
1170,-7.080186,-0.061036,-0.976577,-0.031127999999999996,-0.16968,0.896742
1172,-4.394598,-0.9155409999999999,1.09865,-0.04004,0.000977,1.006851
1174,-6.836042,0.183108,1.586938,-0.023316,-0.041505,0.969741
1176,-7.446403,2.746624,3.234913,-0.021118,-0.019532,0.9909819999999999
1178,-14.099336,1.953155,5.676356,-0.045899,0.009276999999999999,0.970474
1180,-20.325017000000003,-2.136263,5.0049589999999995,-0.041505,0.04004,0.964492
1182,-25.207904,-5.127031,2.868696,-0.045777,-0.001709,0.9583889999999999
1184,-38.879988,-8.178836,3.234913,-0.069825,0.003906,0.9666899999999999
1186,-42.969406,-8.789197,0.48828900000000003,-0.030151999999999998,0.0,0.950332
1188,-49.500267,-8.056764,2.50248,-0.022827,-0.036011,1.002701
1190,-54.566262,-7.01915,3.356985,-0.049928,-0.103273,1.020157
1192,-33.020523,-3.051804,5.61532,-0.06274500000000001,-0.060792,1.051774
1194,-61.158159999999995,-11.291675999999999,-19.226368,-0.13073900000000002,-0.0043950000000000005,0.984268
1196,-59.815366000000004,2.2583349999999998,-37.415122,0.076173,-0.328374,1.068498
1198,-35.584039000000004,-11.474784,-11.291675999999999,-0.086549,0.015869,1.035172
1200,-61.829556999999994,-16.723888,-22.46128,-0.006592,0.004273,0.914687
1202,-115.23613300000001,-27.344167,-26.67277,-0.038819,0.435187,1.068254
1204,-395.880064,26.489662,-83.802548,0.517708,1.501244,1.521752
1206,-870.679789,45.044633000000005,13.061722999999999,0.029664,0.326421,1.738796
1208,-1075.883116,35.767146999999994,106.630045,-0.79237,-2.0000310000000003,1.9999689999999999
1210,218.08194100000003,-81.849393,-82.03250200000001,-0.95375,0.822156,1.9999689999999999
1212,99.183642,-92.408637,-54.627297999999996,-0.717418,1.015763,1.766873
1214,-49.92752,-114.076448,43.51873,-0.266484,0.492317,0.653574
1216,93.812467,-41.992828,3.90631,-0.376715,0.6772560000000001,0.7424430000000001
1218,89.112688,-31.799802000000003,16.235599,-0.491463,0.488533,1.151263
1220,155.21477099999998,-41.016251000000004,28.381781,-0.380133,0.510872,1.0663
1222,202.761883,-41.565576,31.616692999999998,-0.268803,0.381842,1.249287
1224,247.98962400000002,-20.874342000000002,24.414435,-0.22741999999999998,0.210208,1.319112
1226,289.188983,3.356985,18.066682,-0.214725,-0.012451,1.073014
1228,304.386969,0.549325,17.761501000000003,-0.12780999999999998,-0.108766,0.98854
1230,308.964675,-1.7700470000000001,5.127031,0.059204999999999994,-0.21899699999999997,0.984024
1232,278.44663199999997,32.593271,-19.34844,0.151614,-0.424201,0.762829
1234,240.97047400000002,26.611734000000002,-37.964446,0.21033000000000002,-0.172976,1.581811
1236,243.53398900000002,39.734493,-56.336309,0.049805,-0.34912600000000005,1.9999689999999999
1238,279.789426,73.18226899999999,-55.420768,-0.167727,-0.5240560000000001,1.9999689999999999
1240,294.560159,45.227740999999995,-30.029754999999998,-0.206546,-0.7262069999999999,1.9999689999999999
1242,325.56649100000004,55.84802,-24.841688,-0.043458,-0.836683,1.9999689999999999
1244,289.921416,83.49736800000001,-31.006332,0.208011,-0.9243309999999999,1.871244
1246,265.568017,93.14107,-38.818952,0.300908,-1.229023,1.955352
1248,230.899519,92.469673,-34.119172999999996,0.40576799999999996,-1.913359,1.121477
1250,130.128939,86.30502800000001,-34.119172999999996,0.9143209999999999,-2.0000310000000003,0.683238
1252,78.98069699999999,99.122606,-58.960861,0.81886,-2.0000310000000003,-0.277104
1254,-64.51514499999999,-53.162431999999995,-16.601816,-0.145266,-2.0000310000000003,-2.0000310000000003
1256,-271.976806,-173.525597,52.796216,0.41455699999999995,-0.8299690000000001,1.9999689999999999
1258,-125.795377,-55.970092,30.151827,-0.363043,0.9969629999999999,0.9632719999999999
1260,-309.330892,-73.731594,59.14396899999999,0.539193,-0.442512,0.655406
1262,-240.421149,-10.193027,29.297321999999998,0.997208,-0.32959499999999997,1.9999689999999999
1264,-192.141604,-8.178836,25.329976000000002,-1.36025,0.039063,1.9999689999999999
1266,-86.366064,-130.55619099999998,36.560615999999996,1.154803,0.10656900000000001,1.9999689999999999
1268,-61.768521,10.803388,7.812619000000001,-0.5257649999999999,0.147097,1.076066
1270,-60.486763,-38.941024,-2.929732,0.7207140000000001,0.13489,1.9175099999999998
1272,-39.368276,-11.474784,0.183108,-0.155032,-0.035157,1.1928889999999999
1274,-23.86511,-0.976577,1.8921189999999999,-0.086427,0.01355,1.073136
1276,-16.479744,2.990768,0.48828900000000003,0.035157,0.014771000000000001,0.9508200000000001
1278,-20.752270000000003,4.150454,4.760815,0.014771000000000001,0.026246,1.053483
1280,-19.470512,6.103609,5.065995,-0.009033,0.0008550000000000001,1.023941
1282,-16.723888,5.432212,5.371176,-0.039550999999999996,-0.006104,1.0208899999999999
1284,-10.376135000000001,2.380407,4.455634,-0.046143,-0.031495,0.988296
1286,-12.573433999999999,-4.577707,2.746624,-0.050172,0.036622,0.9514309999999999
1288,-18.982223,-8.484016,1.464866,-0.027587999999999998,0.007324,0.991348
1290,-16.418708,-8.667124000000001,0.30518,-0.029175,0.009276999999999999,0.9908600000000001
1292,-19.104295,-8.178836,0.671397,-0.004883,-0.0070799999999999995,1.023819
1294,-16.723888,-5.9205,1.525902,-0.008911,-0.037354000000000005,0.984634
1296,-15.686275,-5.065995,1.8921189999999999,-0.018311,-0.027955,0.9944
1298,-14.343481,-5.127031,1.342794,-0.02295,-0.007324,0.997574
1300,-16.052491,-4.5166699999999995,2.014191,-0.003662,-0.038209,1.009293
1302,-16.296635000000002,-4.21149,1.586938,-0.005615,-0.021851,0.98854
1304,-16.418708,-3.6621650000000003,1.464866,-0.009888,-0.035279000000000005,0.997574
1306,-18.432898,-4.455634,1.342794,-0.023438,-0.029053,0.9716950000000001
1308,-21.484703,-5.737392,-1.2207219999999999,-0.003662,-0.041382,1.0306549999999999
1310,-20.141909,-3.356985,-1.647974,0.015137000000000001,-0.031127999999999996,0.977554
1312,-27.710384,-3.845274,1.037613,-0.001831,-0.036255,0.969253
1314,-34.180209000000005,-6.042573,3.356985,-0.018677000000000003,-0.059692999999999996,0.976577
1316,-37.90341,0.183108,4.577707,-0.0051270000000000005,-0.108766,1.030777
1318,-33.264668,1.70901,5.7984279999999995,-0.0021969999999999997,-0.076417,0.989273
1320,-38.208591,-1.40383,-2.136263,-0.065675,-0.07361000000000001,0.965103
1322,-43.335622,-5.432212,-14.343481,-0.070924,0.020263999999999997,1.09279
1324,-58.899825,3.723201,-32.776379,0.061769000000000004,-0.336187,1.01735
1326,-27.649348,-5.493248,-9.460594,-0.006836,-0.096925,0.989517
1328,-73.548486,-3.6011290000000002,-20.569162,-0.002686,0.22119499999999997,0.948501
1330,-106.263828,-8.178836,-14.404517000000002,0.032105,0.33984899999999996,0.968032
1332,-279.056992,-27.161059,-47.791257,-0.190799,0.926284,1.505882
1334,-682.017243,-71.29015,18.554971,-0.6145109999999999,0.021606999999999998,1.2238959999999999
1336,-891.798276,-223.94140499999997,84.046693,0.180179,-0.7835810000000001,1.539452
1338,-324.040589,-138.06363000000002,62.378882,-0.5949800000000001,-1.089616,1.9999689999999999
1340,307.74395400000003,29.236286,-59.75433,0.122927,1.580224,1.381735
1342,-18.432898,2.929732,22.705425,-0.349493,0.29431599999999997,-0.099611
1344,70.923934,9.52163,15.625238000000001,-0.202152,0.145266,0.289555
1346,54.077974,-11.779964999999999,19.34844,0.05139199999999999,0.487678,0.65272
1348,120.729381,-4.272526,-4.943923000000001,0.151369,0.581308,1.07216
1350,154.970626,8.606088,-26.001373,0.074952,0.478645,1.414328
1352,227.42046200000001,15.014878,-37.29305,-0.03125,0.293095,1.480858
1354,276.859693,19.226368,-34.668498,-0.12878599999999998,0.032837,1.465476
1356,317.143511,25.085832,-29.358358000000003,-0.07324299999999999,-0.138308,1.007462
1358,308.781567,31.616692999999998,-29.907683000000002,0.025635,-0.320195,0.5675140000000001
1360,247.37926299999998,76.295109,-37.232013,0.19128699999999998,-0.44947,0.5988859999999999
1362,212.100404,48.950942,-43.091478,0.19861099999999998,-0.207156,1.87332
1364,249.57656200000002,65.247578,-51.63653,0.19555999999999998,-0.39026500000000003,1.9999689999999999
1366,273.136492,93.934539,-54.383154000000005,0.120119,-0.683604,1.671168
1368,233.03578199999998,75.074388,-41.382467,0.084596,-0.82826,1.9999689999999999
1370,252.323186,73.79263,-38.941024,0.199222,-0.8764780000000001,1.9999689999999999
1372,264.835584,83.131151,-41.870756,0.29370599999999997,-0.924941,1.9509580000000002
1374,262.211032,63.782712,-38.818952,0.26038,-1.104387,1.782864
1376,245.36507200000003,54.505226,-34.180209000000005,0.26160100000000003,-1.398825,1.285908
1378,197.695888,56.580453000000006,-29.968719,0.163699,-1.855619,0.909316
1380,126.222629,79.530022,-27.954528000000003,0.29736799999999997,-2.0000310000000003,0.606332
1382,67.261769,120.057984,-24.597542999999998,0.056397,-2.0000310000000003,-0.152224
1384,-30.579079999999998,35.09575,40.039673,-0.796033,-2.0000310000000003,-0.585214
1386,-214.66392000000002,-203.677424,100.404364,0.734997,-0.37903400000000004,1.340963
1388,-129.94583,-78.370336,64.820325,-0.233158,1.286885,0.9402
1390,-326.482033,-112.001221,96.803235,1.12697,-0.440803,0.891249
1392,-236.758984,-42.298009,35.767146999999994,1.735988,0.096559,1.9999689999999999
1394,-164.980545,49.92752,-14.099336,-0.477546,-0.06958099999999999,1.415549
1396,-137.94155800000001,-84.657053,62.073701,-1.070207,-0.728283,1.43508
1398,-68.116274,-64.576181,17.883574,1.5393299999999999,0.183841,1.693874
1400,-99.977111,-54.322118,18.24979,-0.523201,-0.079591,1.1888610000000002
1402,-40.71107,-24.902724,-1.7700470000000001,0.083742,-0.005615,1.064225
1404,-9.094377,-27.466239,-3.723201,0.075441,0.08191,1.04445
1406,-35.767146999999994,-19.226368,-1.525902,-0.062135,-0.072755,1.119646
1408,-25.024796,-7.446403,1.09865,0.062623,0.071656,1.050309
1410,-14.160372,-2.014191,2.4414439999999997,0.066896,0.004273,0.960342
1412,-13.427939000000002,-1.586938,2.746624,0.028564999999999997,0.009766,1.003311
1414,-21.240558,-1.70901,0.9155409999999999,-0.030762,-0.008057,1.0000149999999999
1416,-19.714656,-2.990768,-0.122072,0.030518,-0.017212,1.015885
1418,-12.817578,-1.40383,0.793469,0.011109,-0.020263999999999997,1.029435
1420,-9.82681,-1.037613,0.854505,0.015259,-0.037354000000000005,1.013809
1422,-8.972305,-1.2207219999999999,0.0,0.019409,-0.02002,1.001968
1424,-9.765774,-0.976577,-0.549325,0.021241,-0.021241,0.9944
1426,-11.779964999999999,-0.30518,-0.122072,0.014038,-0.026978,0.987808
1428,-11.291675999999999,-0.30518,0.122072,0.021973,-0.038209,1.01857
1430,-6.71397,0.122072,0.793469,0.019287000000000002,-0.072145,1.028458
1432,-1.8310830000000002,0.122072,0.366217,0.019898,-0.036866,0.985489
1434,-3.90631,-0.732433,0.366217,0.015381,-0.012085,0.973404
1436,-6.775005999999999,-0.732433,0.793469,0.014771000000000001,-0.038697,0.992447
1438,-8.056764,-1.09865,0.671397,0.015869,-0.04773,1.013077
1440,-5.0049589999999995,-0.732433,0.671397,0.027466,-0.05285700000000001,1.018082
1442,-2.2583349999999998,-0.061036,0.30518,0.019653999999999998,-0.047852,1.018082
1444,-1.8310830000000002,-0.732433,0.0,0.0043950000000000005,-0.03125,0.9952540000000001
1446,-6.347753,-2.136263,-0.30518,0.015625,-0.015259,0.952407
1448,-11.169604,-1.525902,0.0,0.014159999999999999,-0.04419,0.995499
1450,-10.620279,-0.732433,-0.183108,0.009644,-0.032349,0.997574
1452,-13.611048,-0.732433,-1.953155,0.022216999999999997,-0.047242,1.021988
1454,-13.000687,0.427253,-2.563516,0.012695999999999999,-0.05651900000000001,1.02211
1456,-10.193027,1.70901,-1.7700470000000001,0.029664,-0.100832,1.0567790000000001
1458,-2.929732,1.586938,0.854505,0.018799,0.067384,0.8879530000000001
1460,-24.597542999999998,3.723201,2.014191,0.015259,-0.04419,0.984512
1462,-38.69688,6.530861,3.051804,0.0031739999999999997,-0.001221,0.9946440000000001
1464,-39.429313,8.1178,-5.554284,-0.025635,0.043458,0.956558
1466,-52.796216,0.0,-28.320745000000002,-0.156252,-0.018921,0.9579
1468,-99.794003,-2.319371,-50.720989,0.23291399999999998,-0.12268299999999999,1.0036770000000002
1470,-109.92599399999999,4.760815,-24.597542999999998,0.005493,-0.003418,0.949722
1472,-164.980545,-11.596857,6.042573,-0.14941600000000002,-0.073121,1.238544
1474,-237.85763300000002,-31.067369,11.169604,-0.05712999999999999,-0.06286699999999999,1.130388
1476,-304.325933,-120.24109299999999,14.526589000000001,-0.132082,-0.40003099999999997,0.9080950000000001
1478,-326.298924,-157.65621399999998,36.682689,0.16211199999999998,0.000488,1.292988
1480,-286.015106,-96.742199,36.255435999999996,0.162234,0.10925499999999999,1.9999689999999999
1482,84.412909,35.828183,-40.039673,-0.037110000000000004,0.342779,1.9999689999999999
1484,129.091325,50.171664,-33.447776,-0.316411,0.30396,0.360479
1486,133.485924,50.904097,-14.709697,-0.224125,0.031617,0.210941
1488,113.954376,41.565576,-1.953155,-0.043213999999999995,0.12695499999999998,0.9433739999999999
1490,167.84924099999998,51.33135,-10.437171000000001,0.107424,0.173709,1.0047760000000001
1492,192.20264,55.725947999999995,-20.386053,0.188479,0.001221,0.88307
1494,203.616388,45.349813,-29.053178000000003,0.209842,-0.103273,0.85536
1496,212.34454900000003,42.969406,-33.325703999999995,0.029664,-0.24072600000000002,0.9354389999999999
1498,211.734188,34.79057,-18.310826000000002,-0.308354,-0.32605500000000004,1.151629
1500,223.27000800000002,35.950256,9.52163,-0.324712,-0.425788,1.183001
1502,206.424048,72.571908,29.48043,-0.066041,-0.542367,1.089494
1504,185.305562,82.093538,47.852292999999996,0.071778,-0.794324,1.100847
1506,149.965667,78.919661,62.684062,0.266606,-0.940688,0.96083
1508,113.46608700000002,51.087205,64.02685600000001,0.33789600000000003,-0.9984280000000001,0.44593
1510,-41.748684000000004,-50.904097,44.495308,-0.144656,-2.0000310000000003,-2.0000310000000003
1512,-533.028153,-253.42183599999998,98.63431800000001,-1.84622,0.302373,1.9999689999999999
1514,663.523308,62.134737,-19.714656,-0.45801499999999995,0.41272600000000004,1.5667959999999999
1516,-24.841688,33.936065,-64.02685600000001,-1.019547,0.732189,-0.490486
1518,-383.611811,-84.901198,162.60013700000002,0.410529,-0.291508,1.9999689999999999
1520,179.140917,11.963073,-34.607462,0.151125,0.125246,0.031373000000000005
1522,-97.77981199999999,-10.376135000000001,14.526589000000001,-0.084718,-0.171389,1.1068280000000001
1524,-10.864424,-6.836042,-0.30518,0.04358,0.134279,0.932631
1526,-1.09865,-6.164645,-2.563516,0.038697,0.025879000000000003,1.0793620000000002
1528,1.40383,2.746624,-0.122072,-0.0058590000000000005,0.018799,1.000626
1530,-7.263294,2.014191,1.037613,-0.032471,0.041138,0.93727
1532,-13.611048,-0.183108,1.464866,0.007691,-0.006714,1.0442049999999998
1534,-2.685588,0.48828900000000003,0.732433,-0.015747,0.030396,0.964126
1536,-7.873655,-4.333562000000001,-0.30518,-0.034546,0.032715,0.968399
1538,-8.300908,-6.71397,-1.159686,0.003296,-0.004883,1.024186
1540,-2.2583349999999998,-3.845274,-2.197299,-0.001465,-0.084596,0.909071
1542,-4.028382,-3.784237,-0.427253,0.004883,-0.009766,1.0365149999999999
1544,-1.647974,-1.464866,-0.549325,0.00647,0.010131999999999999,1.009781
1546,-0.122072,0.366217,-0.183108,0.0074459999999999995,0.008545,1.008682
1548,-0.427253,1.09865,0.183108,-0.009888,0.009522,0.9939120000000001
1550,-0.732433,0.427253,-0.244144,-0.005493,0.0070799999999999995,1.003433
1552,0.671397,0.671397,0.061036,-0.001221,0.0177,0.9979399999999999
1554,1.342794,0.854505,0.061036,0.008545,0.01294,1.005875
1556,2.746624,1.8921189999999999,0.061036,0.009522,0.004517,1.014786
1558,4.699779,3.234913,0.183108,0.008423,0.01294,1.005142
1560,6.71397,4.150454,0.366217,-0.00647,0.020752,0.995499
1562,5.371176,2.929732,0.427253,-0.017456,0.03772,0.957534
1564,0.793469,0.244144,0.122072,-0.018677000000000003,0.027955,0.9823149999999999
1566,-1.525902,-1.7700470000000001,-0.6103609999999999,0.00061,0.023316,0.9946440000000001
1568,-0.30518,-1.464866,-0.48828900000000003,-0.003906,0.025635,1.013199
1570,-0.244144,-1.647974,-0.732433,-0.011109,0.021241,0.991836
1572,0.6103609999999999,-2.868696,-0.244144,-0.020752,0.016358,0.953994
1574,-3.6621650000000003,-5.7984279999999995,0.0,-0.018799,0.041016000000000004,0.9677879999999999
1576,-6.103609,-4.699779,-0.427253,0.003052,0.030274000000000002,1.0040440000000002
1578,-7.263294,-4.150454,-0.671397,0.024903,-0.014527000000000002,1.0558020000000001
1580,1.70901,0.9155409999999999,-0.122072,0.033448,-0.004639,1.0483559999999998
1582,7.141222,2.80766,1.2207219999999999,-0.0177,0.016724,0.989517
1584,-2.2583349999999998,-4.21149,0.671397,-0.005615,0.045288999999999996,0.955825
1586,-2.929732,-2.868696,-0.122072,0.031983,0.01709,1.006363
1588,11.291675999999999,3.540093,0.427253,0.03418,0.014282,1.00795
1590,-5.859464,1.281758,0.671397,-0.025391,0.050294,0.948867
1592,-7.141222,-5.737392,-2.197299,-0.0028079999999999997,0.0271,0.961685
1594,-7.080186,-5.432212,-1.647974,0.013184,0.024659,0.957778
1596,-6.408789,-3.295949,-0.366217,0.017578,-0.015625,1.0432290000000002
1598,-14.709697,-2.685588,-0.793469,0.036988,-0.019043,1.054459
1600,-12.146181,1.281758,0.244144,-0.000732,0.026246,0.9896389999999999
1602,-8.728161,-2.624552,-0.854505,-0.025025,0.015259,0.9758450000000001
1604,-4.882887,-5.9205,-1.8921189999999999,0.029786,-0.0636,1.1416190000000002
1606,8.606088,0.854505,-0.549325,0.023072,-0.00415,0.988174
1608,-1.037613,2.624552,0.732433,-0.008789,0.042847,0.969986
1610,0.793469,2.075227,0.0,-0.001343,0.011597,0.98793
1612,-4.638743,-2.746624,-0.9155409999999999,-0.041382,0.008301000000000001,0.9873200000000001
1614,3.6621650000000003,-2.624552,-1.40383,0.011109,0.000244,1.0095370000000001
1616,4.882887,-2.80766,-1.2207219999999999,0.003662,-0.001099,1.0048979999999998
1618,4.5166699999999995,-1.953155,-0.793469,0.005737,0.006958,0.996231
1620,-0.793469,-0.732433,-0.183108,-0.013062,0.020263999999999997,0.9782860000000001
1622,2.50248,-0.732433,-0.9155409999999999,0.019043,-0.001953,1.0207680000000001
1624,4.943923000000001,1.8310830000000002,-0.244144,0.013428,0.001221,1.019059
1626,6.71397,2.4414439999999997,0.48828900000000003,-0.019043,0.029175,0.9306780000000001
1628,-5.0049589999999995,-1.8310830000000002,0.30518,-0.023194,0.04358,0.956924
1630,-6.103609,-2.563516,0.366217,0.01001,0.005249,1.0047760000000001
1632,-3.418021,-1.7700470000000001,0.671397,0.003418,0.017334,1.00502
1634,-6.71397,-3.1128400000000003,-1.159686,-0.000732,-0.000732,1.0208899999999999
1636,6.836042,-1.342794,-7.324331,-0.01648,0.022095,0.958145
1638,8.972305,-1.7700470000000001,-0.6103609999999999,0.002075,0.006592,0.981582
1640,6.2867169999999994,-1.586938,-0.30518,-0.019043,0.018799,1.002335
1642,1.281758,-4.394598,-0.366217,0.008057,0.014649,0.991958
1644,-0.244144,-4.028382,-0.183108,0.017578,0.01648,0.9976959999999999
1646,-1.8921189999999999,-2.380407,0.48828900000000003,0.016358,0.0037840000000000005,1.009903
1648,-4.028382,-1.586938,0.732433,0.020630000000000003,-0.005982,1.024918
1650,-0.549325,-0.976577,0.183108,-0.000732,0.010254000000000001,1.002457
1652,1.586938,-0.549325,0.30518,0.014893,0.017823,0.982559
1654,0.30518,0.061036,0.793469,0.018067,0.007691,1.006485
1656,-2.2583349999999998,0.0,1.342794,0.02002,0.018555000000000002,0.985
1658,-4.8218510000000006,0.244144,0.0,0.018921,0.0035399999999999997,1.0401770000000001
1660,-5.981537,0.061036,0.671397,0.018189,-0.0008550000000000001,1.022477
1662,-2.80766,2.50248,-0.9155409999999999,0.089601,0.059083000000000004,0.9790190000000001
1664,-6.408789,-1.8921189999999999,-0.122072,0.021363,-0.040284,1.00502
1666,-0.427253,-0.061036,-0.122072,0.000244,0.025513,0.972183
1668,-0.854505,-0.671397,0.0,0.001831,-0.005737,0.999771
1670,2.50248,-1.159686,0.0,0.00647,-0.003418,1.0031889999999999
1672,0.0,-0.854505,0.0,0.012573,0.001465,1.008316
1674,-2.563516,-1.342794,-0.6103609999999999,0.008301000000000001,0.0043950000000000005,1.008316
