Packet number,Gyroscope X (deg/s),Gyroscope Y (deg/s),Gyroscope Z (deg/s),Accelerometer X (g),Accelerometer Y (g),Accelerometer Z (g)
0,0.671397,0.549325,0.061036,0.000732,0.008667,1.002090
1,0.366217,0.244144,0.122072,-0.008545,0.007446,0.995254
2,0.793469,-0.122072,0.000000,0.000855,0.010376,1.003067
3,0.244144,-0.183108,-0.122072,-0.003662,0.003662,0.993790
4,0.366217,-0.305180,0.000000,-0.003540,0.009766,0.992691
5,0.671397,-0.305180,0.000000,-0.003784,0.013306,0.991226
6,-0.122072,-0.488289,-0.122072,-0.001099,0.011109,1.002457
7,-0.061036,-0.427253,0.000000,0.000244,0.001465,1.002579
8,0.305180,-0.305180,0.000000,-0.002686,0.013062,0.993912
9,-0.671397,-0.427253,0.061036,0.002686,0.003174,1.005142
10,-0.122072,-0.244144,0.000000,-0.001221,0.011231,0.998550
11,-0.610361,-0.488289,0.000000,0.001587,0.007935,0.996475
12,0.122072,-0.305180,0.000000,0.000122,0.005859,0.998428
13,-0.305180,-0.427253,0.000000,-0.005615,0.004639,1.008804
14,0.427253,-0.305180,0.000000,0.004761,0.005127,1.000748
15,0.610361,-0.244144,-0.122072,-0.003784,0.007324,1.000137
16,0.915541,-0.183108,-0.122072,0.000244,0.005493,1.002579
17,1.525902,-0.122072,-0.183108,-0.003906,0.008545,0.993668
18,0.061036,-0.305180,-0.122072,-0.000122,0.006470,0.985367
19,0.854505,-0.183108,-0.122072,-0.000610,0.009155,0.994278
20,0.244144,-0.183108,0.000000,0.002197,0.005249,0.995743
21,0.244144,-0.122072,0.000000,0.002075,0.008179,0.990494
22,-0.305180,-0.183108,0.000000,0.005615,0.004639,1.000870
23,0.244144,0.061036,0.061036,0.003296,0.005493,1.004166
24,0.061036,0.000000,0.000000,-0.003418,0.007080,0.997818
25,0.000000,0.061036,0.000000,0.000977,0.004639,0.994644
26,0.427253,0.000000,0.061036,-0.002564,0.003784,1.004532
27,0.549325,0.183108,0.061036,0.005127,0.009155,0.998062
28,0.671397,0.122072,0.000000,-0.003784,0.006348,0.999771
29,0.549325,0.122072,0.000000,-0.000244,0.002197,1.004288
30,0.793469,0.122072,-0.183108,0.002930,-0.000488,0.991348
31,1.403830,0.000000,-0.122072,0.004517,0.015991,0.997574
32,-0.122072,-0.305180,-0.122072,-0.005737,0.007324,1.001236
33,0.915541,-0.305180,-0.183108,0.005615,0.015015,0.989151
34,-1.159686,-0.488289,-0.183108,-0.001587,0.005615,0.993790
35,-0.610361,-0.366217,-0.122072,0.005371,0.000855,1.005631
36,-0.488289,0.122072,-0.122072,0.003174,0.006958,1.001114
37,-0.732433,0.244144,0.000000,0.001099,0.007813,1.005264
38,-0.793469,0.366217,0.000000,0.001099,0.000610,1.002945
39,0.244144,0.732433,0.000000,0.001465,0.004150,0.992935
40,0.305180,0.671397,0.061036,0.004028,0.007813,1.001968
41,0.000000,0.244144,0.000000,-0.001587,-0.000488,1.007950
42,1.098650,0.183108,0.000000,0.001343,0.001831,1.002090
43,1.098650,0.061036,-0.183108,-0.000610,0.007935,0.993790
44,0.671397,0.000000,-0.122072,0.003296,0.004761,1.008560
45,1.586938,0.183108,-0.244144,-0.001099,0.009277,0.988663
46,0.366217,-0.122072,0.000000,-0.000122,0.002808,0.987808
47,0.915541,0.061036,-0.183108,-0.004273,0.010376,0.993423
48,0.244144,0.000000,0.000000,0.004273,0.007324,0.997330
49,0.305180,0.000000,0.000000,0.000244,0.009155,1.000504
50,0.244144,0.000000,0.000000,0.002930,0.002808,1.005509
51,0.305180,0.061036,-0.122072,0.002930,0.007935,0.997940
52,0.183108,0.000000,0.000000,0.002319,0.001343,1.007706
53,0.671397,0.122072,0.000000,0.000244,0.003784,1.000381
54,0.671397,0.000000,0.000000,0.002319,0.008423,1.003677
55,1.037613,0.122072,0.000000,0.001709,0.012940,0.990616
56,-0.122072,-0.061036,-0.122072,0.000122,0.003174,1.003922
57,1.342794,0.061036,-0.183108,0.005371,0.004639,1.000137
58,0.732433,0.000000,-0.244144,-0.003784,0.009644,0.989151
59,0.183108,0.000000,-0.122072,0.002808,0.006714,0.985122
60,-0.244144,-0.183108,-0.122072,0.001343,0.003662,0.999771
61,-0.305180,0.061036,-0.122072,0.005615,0.001831,1.007095
62,0.061036,0.183108,0.061036,0.006226,0.005859,1.003311
63,-0.061036,0.488289,0.061036,0.001709,0.002319,1.012833
64,0.366217,0.915541,0.122072,0.006348,0.002686,1.004776
65,0.366217,0.793469,0.122072,0.002564,0.004150,1.004776
66,0.427253,0.793469,0.061036,0.001953,0.004028,0.999771
67,0.732433,0.793469,0.122072,0.000610,0.004517,0.997818
68,0.549325,0.671397,0.000000,-0.003296,0.004761,0.999771
69,0.732433,0.427253,0.000000,0.001953,-0.000977,1.001236
70,1.037613,0.488289,0.000000,-0.005615,0.002686,1.001236
71,0.671397,0.183108,-0.122072,-0.004150,0.006470,1.001114
72,0.976577,0.183108,0.000000,-0.002686,0.003662,0.996719
73,0.671397,0.000000,-0.122072,-0.003296,0.008789,0.996475
74,0.488289,0.000000,-0.122072,0.000732,0.005859,0.992203
75,0.000000,-0.305180,0.000000,0.004395,0.007691,0.999771
76,-0.183108,-0.061036,0.061036,0.001709,0.006348,1.002335
77,0.000000,0.061036,0.000000,-0.000366,0.002319,1.005997
78,0.000000,0.000000,0.000000,0.001221,0.002930,1.002701
79,0.366217,0.000000,0.061036,0.001953,0.002564,1.000381
80,0.183108,0.122072,0.000000,-0.001099,-0.001099,1.000626
81,0.122072,-0.183108,0.000000,0.004639,0.000855,1.002823
82,0.915541,0.061036,0.000000,0.001221,0.002197,0.989151
83,0.732433,0.183108,-0.183108,0.000366,-0.001221,1.000137
84,1.159686,0.061036,-0.183108,0.007568,0.006104,1.005509
85,0.976577,0.183108,-0.122072,-0.000366,0.001465,0.992813
86,1.220722,0.122072,0.000000,-0.001099,0.009522,0.995743
87,0.244144,0.061036,0.000000,-0.001953,0.002319,0.997818
88,1.037613,0.122072,0.000000,0.002930,0.013306,1.003189
89,0.000000,0.122072,0.000000,-0.004395,0.002930,1.003555
90,0.671397,0.366217,-0.122072,0.004150,0.004150,1.003922
91,0.000000,0.183108,0.000000,-0.002930,0.006226,1.006607
92,0.366217,0.305180,0.000000,-0.001221,-0.000244,1.007706
93,0.488289,0.183108,0.000000,0.000244,0.004273,1.004776
94,0.732433,0.244144,0.061036,0.000488,0.002075,1.008438
95,0.366217,0.122072,0.000000,0.001831,0.001587,0.998306
96,0.915541,0.000000,0.000000,-0.000732,0.005127,1.002945
97,1.159686,0.122072,-0.122072,0.000855,0.011353,0.990127
98,0.488289,-0.183108,-0.122072,0.002197,0.007324,1.003922
99,0.793469,0.000000,-0.122072,0.001221,0.003418,1.002335
100,0.793469,0.122072,-0.122072,0.001221,0.005493,0.994888
101,0.427253,0.000000,-0.183108,0.002075,0.004761,0.990127
102,0.366217,0.061036,0.000000,-0.001099,0.001953,1.001114
103,0.244144,0.122072,0.000000,0.003174,-0.000855,1.001968
104,0.732433,0.244144,0.000000,0.004150,0.006348,0.998062
105,0.000000,0.122072,0.061036,0.002564,-0.000366,1.002457
106,0.976577,0.488289,-0.122072,-0.005737,0.002564,0.992813
107,-0.366217,-0.183108,0.000000,0.002930,-0.002075,1.005875
108,1.220722,0.305180,0.000000,0.001709,0.006836,0.990494
109,0.305180,0.244144,0.000000,-0.014038,0.006592,0.993423
110,0.244144,-0.183108,-0.122072,0.000977,-0.003540,1.009537
111,1.159686,0.122072,0.000000,-0.006836,0.004028,0.994522
112,0.671397,0.061036,0.000000,0.002319,0.001709,0.999527
113,1.037613,0.122072,0.061036,-0.007691,0.003540,0.998306
114,0.671397,0.000000,0.183108,-0.006592,0.000488,0.997330
115,0.732433,0.061036,0.122072,0.007080,0.000366,1.006485
116,1.159686,0.244144,0.244144,0.006348,0.009644,1.004044
117,0.671397,0.427253,0.244144,0.011353,0.004395,1.003189
118,0.976577,0.671397,0.183108,0.015137,0.006592,0.996475
119,0.366217,1.159686,0.183108,-0.002686,-0.001343,1.007462
120,1.342794,0.793469,0.244144,0.001831,0.004150,0.998428
121,0.976577,0.915541,0.183108,0.003784,-0.000732,1.011856
122,2.136263,1.037613,0.305180,0.000977,-0.007568,1.019913
123,3.723201,1.342794,0.244144,-0.001221,0.004883,1.006607
124,3.234913,1.159686,0.427253,0.001221,-0.003174,1.023697
125,5.432212,1.342794,0.366217,0.001953,0.004028,1.034073
126,6.103609,1.342794,0.183108,-0.007202,0.014038,0.982315
127,4.150454,0.854505,0.000000,-0.001831,-0.023560,0.941909
128,6.042573,0.366217,0.000000,-0.007935,0.022095,1.000504
129,3.723201,0.000000,0.183108,0.005127,0.004273,1.001968
130,5.493248,0.061036,-0.122072,-0.009033,0.016602,0.989517
131,3.845274,-0.366217,0.061036,0.000488,0.007935,1.004776
132,4.638743,-0.122072,-0.183108,-0.002930,0.017212,1.000015
133,4.516670,-0.122072,-0.122072,-0.001587,0.016480,0.987930
134,3.540093,0.000000,-0.183108,-0.004883,0.013306,0.995254
135,4.516670,-0.427253,-0.366217,0.018677,0.012696,1.003189
136,4.089418,0.305180,-0.366217,-0.028321,0.017456,0.984268
137,3.601129,-0.610361,0.061036,0.009155,0.016968,1.005020
138,3.906310,0.061036,-0.244144,0.003540,0.014893,0.990249
139,3.784237,0.061036,-0.305180,-0.012085,0.019898,0.987930
140,3.051804,-0.366217,-0.122072,-0.002564,0.020508,0.997940
141,2.807660,-0.549325,-0.305180,0.005005,0.015503,0.992203
142,2.990768,-0.183108,-0.427253,-0.010376,0.019287,0.994888
143,3.051804,-0.793469,0.061036,0.000732,0.018921,0.994278
144,2.014191,-0.671397,-0.122072,-0.003662,0.015747,1.001724
145,3.295949,-0.610361,-0.183108,0.003906,0.021973,0.996353
146,1.831083,-0.427253,-0.244144,-0.001587,0.019409,0.986954
147,2.197299,-0.488289,-0.183108,0.006226,0.021485,0.997086
148,1.647974,-0.488289,0.000000,-0.003174,0.019043,0.996719
149,2.502480,-0.244144,0.000000,0.008789,0.021363,0.990249
150,1.586938,-0.122072,0.061036,-0.011109,0.024781,0.984756
151,1.342794,-0.183108,0.061036,-0.002441,0.019287,0.994888
152,1.281758,-0.427253,0.122072,0.003418,0.018433,1.000870
153,1.342794,-0.610361,0.122072,0.001343,0.018555,0.988052
154,1.647974,-0.610361,0.000000,-0.000366,0.020630,0.992691
155,0.854505,-0.915541,0.122072,-0.003906,0.016480,0.994644
156,1.770047,-0.976577,0.000000,0.019287,0.019776,1.001602
157,0.976577,-1.037613,0.183108,0.003052,0.019165,1.002090
158,2.197299,-0.549325,0.061036,0.003784,0.011963,0.995743
159,1.831083,-0.610361,0.366217,-0.005249,0.016846,0.997330
160,2.624552,-1.220722,0.671397,-0.005982,0.016480,0.987198
161,2.319371,-1.953155,0.732433,0.001221,0.018311,0.999039
162,2.380407,-2.258335,0.671397,0.005737,0.038087,0.985000
163,2.014191,-3.295949,0.854505,-0.019043,0.031983,1.022354
164,2.746624,-3.418021,0.366217,0.002564,0.021241,0.990127
165,2.624552,-3.662165,0.732433,0.002564,0.015137,0.989639
166,2.746624,-3.418021,0.671397,0.019532,0.029175,0.990738
167,2.075227,-2.746624,0.976577,0.023194,0.032593,0.981827
168,-0.122072,-1.647974,1.098650,0.012940,0.017456,1.009415
169,1.098650,-0.610361,1.342794,0.025269,0.016480,1.031022
170,2.075227,0.671397,1.342794,0.015747,0.016236,1.050187
171,4.089418,1.342794,1.647974,0.009522,0.020142,1.001724
172,5.371176,1.220722,1.098650,-0.018677,0.046876,0.946059
173,1.464866,-0.610361,0.671397,-0.009766,0.059083,0.926528
174,-3.784237,-2.380407,0.183108,0.004883,0.053712,0.945815
175,-7.324331,-2.990768,0.000000,0.014038,0.039918,0.983902
176,-8.789197,-2.258335,0.061036,0.039185,0.013428,1.036515
177,-6.530861,-0.366217,0.305180,0.025513,-0.017456,1.041764
178,-1.647974,1.342794,0.305180,0.013794,0.000000,1.040055
179,-0.305180,2.014191,0.793469,0.007446,0.012329,1.012345
180,0.671397,1.892119,0.671397,-0.005737,0.022950,0.984756
181,-0.976577,0.671397,0.488289,-0.004883,0.023926,0.995743
182,-0.610361,-0.061036,0.183108,0.000610,0.017823,0.996963
183,-0.610361,-0.549325,-0.244144,0.003052,0.024781,0.984512
184,-1.770047,-1.281758,-0.305180,-0.006714,0.015259,0.988785
185,-0.427253,-1.709010,-0.366217,0.001343,0.019043,0.993301
186,-1.525902,-2.258335,-0.488289,-0.002075,0.022705,0.994400
187,-1.892119,-2.502480,-0.732433,0.015625,0.003418,1.010147
188,-0.305180,-1.037613,-0.488289,0.037720,0.009644,1.025528
189,0.427253,0.427253,-0.305180,0.021485,0.019532,1.006363
190,-0.244144,1.281758,-0.183108,0.029419,0.012818,1.014298
191,1.098650,2.441444,0.000000,0.017334,0.013794,1.016007
192,1.464866,3.112840,0.061036,0.010010,0.015991,0.997452
193,1.464866,2.868696,0.000000,-0.003174,0.017212,0.993057
194,0.976577,2.075227,0.000000,0.002319,0.018311,0.986221
195,0.793469,1.159686,-0.244144,-0.002808,0.014282,0.993301
196,1.525902,0.427253,-0.366217,-0.008179,0.018677,0.979995
197,0.732433,-0.488289,-0.427253,-0.000488,0.010742,0.992813
198,1.770047,-0.488289,-0.427253,0.011475,0.003052,1.011368
199,3.356985,0.061036,-0.244144,0.011719,0.015381,1.007095
200,3.356985,0.732433,-0.122072,0.006714,0.018311,0.989761
201,2.258335,0.854505,0.000000,0.009400,0.021973,0.995254
202,2.563516,1.342794,0.000000,0.006836,0.026734,0.981338
203,0.732433,1.342794,0.122072,0.001465,0.035645,0.963760
204,-0.671397,1.098650,0.000000,-0.005371,0.045533,0.944106
205,-5.798428,-0.427253,0.061036,0.001465,0.030518,0.963882
206,-7.019150,-0.915541,0.000000,-0.007324,0.017945,0.973770
207,-7.385367,-1.403830,-0.244144,-0.008301,0.034302,0.954238
208,-11.718929,-2.502480,0.061036,0.010376,0.010498,0.994766
209,-10.376135,-2.136263,-0.183108,0.013062,0.005982,1.007828
210,-9.826810,-1.892119,0.122072,0.010742,-0.005737,1.013077
211,-7.751583,-1.342794,0.488289,0.029664,-0.009888,1.031388
212,-5.676356,0.244144,0.732433,0.014771,-0.003906,1.006485
213,-5.371176,0.610361,1.098650,0.006226,0.009888,0.987564
214,-6.591897,0.488289,1.464866,0.010010,0.011475,0.972061
215,-8.789197,0.183108,1.342794,-0.008423,0.018799,0.957412
216,-12.268254,-1.159686,1.525902,-0.001465,0.014160,0.968765
217,-13.977264,-1.770047,1.525902,0.007935,0.002808,0.987686
218,-14.831769,-1.159686,1.892119,0.025757,-0.005127,1.012711
219,-14.709697,-0.061036,2.136263,0.014771,-0.021363,1.018692
220,-12.146181,0.061036,2.380407,0.011353,-0.013672,1.019059
221,-11.718929,0.244144,2.258335,0.006226,-0.019409,1.017594
222,-10.376135,0.061036,2.319371,-0.000977,-0.016724,1.004898
223,-8.911269,-0.427253,1.892119,-0.002441,-0.006348,0.985977
224,-10.498207,-1.647974,1.647974,0.000977,-0.001343,0.988907
225,-12.695506,-3.112840,1.770047,-0.001587,-0.005127,0.957290
226,-14.953841,-5.065995,2.258335,0.008057,-0.004395,0.938125
227,-18.249790,-6.347753,2.685588,-0.015381,0.008667,0.928969
228,-25.085832,-8.484016,2.868696,-0.003052,0.002319,0.937392
229,-29.358358,-9.216449,2.807660,0.019165,-0.023804,0.999283
230,-30.029755,-8.728161,2.807660,0.025879,-0.043580,1.022477
231,-27.954528,-7.324331,2.685588,0.020386,-0.051148,1.048234
232,-23.559930,-7.263294,2.746624,0.009766,-0.056153,1.016739
233,-21.118486,-6.408789,2.685588,0.021851,-0.061524,0.974990
234,-22.034028,-7.324331,2.502480,0.026246,-0.057374,1.001968
235,-20.569162,-7.263294,2.441444,0.014038,-0.049561,0.985245
236,-25.513085,-8.422980,2.990768,0.020996,-0.064576,1.000504
237,-22.522316,-7.995727,3.479057,0.051392,-0.062989,1.038712
238,-18.982223,-5.554284,2.990768,0.042603,-0.043091,1.022354
239,-22.827497,-5.004959,3.723201,0.041993,-0.049439,1.013077
240,-20.386053,-4.028382,3.540093,0.030762,-0.008545,1.045914
241,-23.804074,-2.014191,2.563516,0.046387,-0.046998,1.038102
242,-29.175250,0.183108,2.014191,0.029664,-0.061646,0.964981
243,-26.733806,0.244144,0.183108,0.028809,-0.052491,1.001236
244,-30.518044,0.793469,-1.770047,0.010986,-0.043824,0.999405
245,-34.790570,0.610361,-2.807660,0.016480,-0.054200,0.992325
246,-32.959487,1.037613,-3.723201,0.006592,-0.068849,0.987686
247,-34.180209,0.305180,-6.469825,-0.020996,-0.103517,0.992447
248,-34.180209,0.671397,-9.033341,-0.018677,-0.046998,1.035660
249,-43.945983,-1.403830,-22.034028,-0.108400,0.039307,1.084001
250,-66.285191,5.859464,-39.734493,0.057618,-0.035157,0.893080
251,-67.689021,8.239872,-35.950256,0.114992,-0.313603,1.043595
252,-47.669184,2.868696,-11.108568,0.076417,-0.202029,1.057389
253,-44.312200,1.770047,-11.047532,0.043091,-0.123415,1.067155
254,-51.880674,5.859464,-7.995727,0.077760,-0.139162,1.006485
255,-68.055238,10.559243,1.159686,0.096315,-0.086427,0.998795
256,-68.726635,13.244831,8.056764,0.039429,-0.067018,0.919081
257,-73.182269,13.550011,9.826810,0.094240,0.230594,0.783581
258,-105.653468,10.131991,12.268254,0.020264,-0.067262,0.917250
259,-112.916762,12.207218,10.620279,0.099123,0.243412,1.024674
260,-138.673991,13.916228,-20.325017,-0.029053,0.449470,1.125261
261,-276.188296,24.048219,-8.178836,0.140993,0.189700,1.135027
262,-385.992218,40.466926,16.357671,0.109865,0.026368,1.463401
263,-413.885710,64.087892,-4.394598,0.168215,0.073976,1.556542
264,-437.689784,92.225528,-19.287404,0.340093,0.083864,1.407980
265,-495.368887,111.451896,-1.403830,0.202396,-0.073487,1.142596
266,-537.483787,143.862058,39.307240,-0.008301,-1.046159,1.802396
267,-539.864195,136.537728,89.845121,-1.816922,0.326421,1.999969
268,-160.158694,57.190814,-37.903410,-0.591806,-0.900404,1.999969
269,131.960021,70.130465,-28.381781,-0.800427,0.519051,1.883940
270,-5.798428,50.537881,-10.254063,-0.382940,0.352422,1.383566
271,-132.387274,11.108568,59.266041,-0.200565,0.363287,1.135882
272,-43.152514,13.672084,56.275273,0.155642,0.341924,1.136248
273,29.114214,8.300908,27.283131,0.236576,0.505989,0.767224
274,-17.090105,-10.193027,26.428626,0.418341,0.525154,0.957778
275,-2.258335,-14.465553,11.841001,0.418708,0.399542,1.220722
276,48.157473,-17.456321,-7.629511,0.392828,0.490120,1.214130
277,57.618067,-31.555657,-18.738079,0.313359,0.474495,1.136126
278,78.370336,-45.593957,-28.503853,0.230106,0.384405,1.117815
279,104.737926,-55.420768,-37.476158,0.177493,0.392828,1.017350
280,114.869917,-61.036088,-43.945983,0.088014,0.347051,0.985611
281,126.527810,-59.205005,-49.256123,-0.004517,0.278813,1.065690
282,140.932326,-51.880674,-52.063783,-0.126101,0.223026,1.120012
283,153.810941,-43.823911,-50.659953,-0.240726,0.158083,1.180682
284,168.703746,-37.293050,-45.410849,-0.328008,0.106203,1.220722
285,184.328985,-33.020523,-37.476158,-0.376349,0.046754,1.214252
286,197.146563,-29.053178,-27.649348,-0.390509,0.001587,1.201923
287,207.644770,-25.146868,-17.822538,-0.357305,-0.027100,1.208270
288,216.495003,-19.409476,-9.826810,-0.307378,-0.037720,1.319356
289,225.833524,-11.474784,-4.577707,-0.253666,-0.048585,1.426413
290,236.697948,-3.540093,-1.709010,-0.181155,-0.102541,1.491356
291,248.905165,1.831083,-1.525902,-0.105715,-0.172732,1.313985
292,250.980392,3.662165,-5.065995,0.017334,-0.271977,1.024186
293,238.773175,10.376135,-13.550011,0.125734,-0.377203,0.728405
294,216.250858,16.906996,-23.804074,0.161257,-0.375860,0.797986
295,186.648356,21.240558,-34.546426,0.111086,-0.320439,1.230365
296,177.431907,25.818265,-42.908370,0.042237,-0.269413,1.732692
297,184.145876,28.809033,-48.340581,-0.014527,-0.253666,1.999969
298,202.639811,30.640116,-50.598917,-0.052247,-0.335454,1.999969
299,229.007401,30.518044,-52.307927,-0.059327,-0.453254,1.898711
300,235.599298,32.532235,-53.833829,-0.068360,-0.501839,1.635889
301,223.025864,33.508812,-51.331350,-0.158083,-0.535897,1.793729
302,224.734875,30.029755,-46.692607,-0.193118,-0.561898,1.999969
303,243.045701,26.550698,-42.481117,-0.169680,-0.565927,1.999969
304,255.497063,27.405203,-39.795529,-0.078370,-0.581064,1.811063
305,253.604944,30.762188,-39.795529,-0.004883,-0.600473,1.636011
306,247.989624,35.156786,-42.236973,0.034668,-0.615854,1.541161
307,239.444572,40.405890,-45.105669,0.033936,-0.644419,1.491356
308,230.289158,45.410849,-46.204318,0.018555,-0.682506,1.446311
309,221.560998,49.195087,-45.593957,0.040406,-0.727550,1.323873
310,208.987564,51.697566,-44.617380,0.085084,-0.771984,1.161151
311,190.798810,54.444190,-44.983597,0.118898,-0.859388,0.973404
312,166.262303,58.472572,-47.730220,0.119387,-1.016739,0.812390
313,139.101244,64.454108,-51.087205,0.160281,-1.197162,0.646616
314,104.188602,73.975738,-58.045319,0.197147,-1.422141,0.736950
315,72.266728,84.107729,-60.486763,0.206302,-1.696803,0.878553
316,60.914015,86.549172,-57.740139,0.155642,-1.890898,0.662730
317,56.763561,71.107042,-46.997787,0.086549,-1.858793,0.212894
318,28.442817,29.297322,-25.085832,-0.041138,-1.632349,-0.068116
319,-12.939651,-21.057450,2.258335,-0.258915,-1.545434,-0.566537
320,-78.492409,-98.146029,38.147555,-0.220096,-1.255268,-0.161501
321,-122.072175,-152.407111,61.097124,0.044434,-1.186053,0.539559
322,-143.373770,-138.918135,60.425727,0.203250,-1.350607,0.868666
323,-195.193408,-71.778439,65.064469,-0.097292,-1.181537,0.073610
324,-113.038834,-60.364691,54.077974,0.167361,0.099733,0.583749
325,-154.970626,-72.205692,45.899138,0.592416,0.887953,1.574975
326,-248.355840,-67.627985,55.664912,0.800916,0.505745,1.340108
327,-265.445945,-75.318532,42.969406,0.744152,-0.210452,1.591699
328,-215.945678,-41.748684,19.226368,0.579355,-0.207767,1.937530
329,-188.601511,-35.767147,5.371176,0.152712,-0.152224,1.999969
330,-147.524224,-28.564889,2.014191,-0.433722,-0.394049,1.999969
331,-83.741512,-32.654307,14.221408,-1.060197,-0.229984,1.750149
332,-89.600977,-82.459754,41.809720,-0.425910,-0.317144,1.211200
333,-50.354772,-99.549859,40.955215,0.872816,0.438117,1.999969
334,-69.886320,-53.040360,14.953841,1.606714,0.180301,1.999969
335,-30.518044,19.348440,-7.812619,-0.055665,-0.023804,1.010391
336,-41.565576,6.836042,-2.868696,-0.695689,-0.050538,1.145647
337,-56.031128,-28.931106,13.550011,0.202396,-0.067872,1.181170
338,-11.596857,-9.399557,-4.028382,0.240116,0.071046,1.168475
339,-37.598230,-3.234913,2.868696,-0.117678,0.018799,1.015763
340,-29.236286,-7.812619,2.014191,-0.003784,-0.072999,1.270649
341,-1.403830,-5.676356,-0.671397,0.045167,0.045777,1.034562
342,-12.451362,-4.089418,1.342794,-0.000122,0.044312,1.001724
343,-11.413748,-4.699779,1.342794,-0.031128,0.021729,1.047990
344,-4.699779,-5.798428,0.305180,0.001221,0.059449,0.949477
345,-11.230640,-5.798428,0.427253,0.025757,0.057984,0.997330
346,-12.878614,-5.371176,0.793469,-0.000122,0.022950,1.014908
347,-9.216449,-4.882887,1.342794,0.029908,0.027832,1.024552
348,-8.789197,-1.464866,-0.122072,0.079713,-0.051759,0.871839
349,-9.887846,-2.197299,0.854505,0.034424,-0.013794,1.022721
350,-7.812619,-1.892119,1.342794,-0.003052,0.036500,0.986831
351,-8.300908,-2.197299,1.159686,0.001343,0.049317,1.004044
352,-10.620279,-2.807660,1.342794,0.010864,0.027222,1.028702
353,-6.469825,-2.502480,0.915541,0.009888,0.016846,1.007706
354,-5.249104,-1.770047,1.037613,0.022583,0.027344,0.999527
355,-6.897078,-1.342794,1.342794,0.012696,0.024781,1.020523
356,-6.347753,0.976577,-0.305180,0.125368,-0.118898,0.771862
357,-6.897078,1.159686,0.854505,0.013428,0.019165,1.014054
358,-9.887846,1.037613,2.014191,0.001465,0.028809,0.990005
359,-8.545052,1.159686,2.014191,0.000977,0.027100,0.980728
360,-9.887846,0.915541,2.014191,0.001343,0.015503,0.990494
361,-10.620279,0.427253,2.197299,-0.006836,0.014771,0.992569
362,-10.864424,-0.488289,1.647974,-0.011353,0.000000,0.991104
363,-9.582666,-1.159686,1.831083,0.010864,0.004883,1.019059
364,-9.460594,-0.976577,1.342794,-0.010254,-0.002564,1.034562
365,-7.019150,-0.732433,1.647974,0.005859,0.029419,1.036149
366,-6.164645,-0.549325,1.709010,0.004639,0.010864,0.990616
367,-7.690547,-0.671397,1.220722,-0.003174,0.005005,0.984634
368,-8.178836,-1.037613,1.464866,-0.009155,0.016358,0.925917
369,-14.465553,-2.014191,2.014191,0.007324,0.021118,0.976333
370,-17.517357,-1.953155,2.014191,0.004150,-0.006470,0.995499
371,-15.136950,-1.709010,1.709010,0.018433,-0.010254,1.010758
372,-15.564202,-1.403830,1.770047,0.008545,-0.007813,0.998184
373,-14.709697,-1.098650,1.709010,-0.000488,-0.009033,1.017350
374,-14.160372,-0.732433,2.197299,0.024537,-0.027832,1.017227
375,-12.390326,0.671397,2.746624,0.020508,-0.033692,1.025528
376,-10.864424,1.831083,3.356985,0.005371,-0.028077,1.001968
377,-8.911269,1.525902,3.234913,0.015869,-0.014527,0.982437
378,-11.291676,1.037613,2.502480,0.010376,-0.014405,0.994766
379,-11.291676,0.610361,2.197299,-0.000366,-0.023560,1.006851
380,-10.803388,0.305180,2.319371,0.004639,-0.040406,0.982925
381,-10.376135,-0.610361,2.258335,-0.018799,-0.021973,0.976455
382,-11.718929,-2.502480,2.075227,-0.022827,-0.000610,0.954849
383,-15.991455,-5.065995,1.464866,-0.027955,-0.012818,0.929091
384,-20.935378,-7.507439,1.342794,0.008423,0.011963,0.953262
385,-24.048219,-8.667124,1.342794,-0.010010,-0.008179,1.007340
386,-21.179522,-9.155413,0.732433,0.001099,-0.012940,0.985733
387,-24.170291,-9.094377,0.671397,0.017456,-0.034424,0.990127
388,-26.855879,-9.155413,1.098650,0.008057,-0.052979,1.006485
389,-20.447089,-8.422980,2.014191,0.019532,-0.051392,0.968521
390,-25.818265,-9.765774,3.418021,0.014282,-0.048219,0.981094
391,-27.527276,-10.498207,5.798428,0.022217,-0.080446,0.996109
392,-20.996414,-8.239872,7.812619,0.066041,-0.021851,1.048966
393,-34.973678,-3.540093,7.385367,0.026490,-0.043946,1.075090
394,-29.846647,-2.319371,6.225681,0.008423,-0.052003,1.016739
395,-32.227054,-0.732433,3.906310,0.024781,-0.025269,0.969375
396,-41.504540,-1.098650,3.356985,0.022217,-0.034791,0.980240
397,-43.213550,-0.183108,2.319371,0.007568,-0.028077,1.022354
398,-48.096437,0.061036,0.000000,0.011597,-0.083986,0.986709
399,-50.110628,0.122072,-0.915541,-0.025269,-0.086305,0.984756
400,-49.195087,-1.831083,-3.662165,-0.023072,-0.081910,1.034928
401,-50.110628,0.366217,-11.779965,0.002075,-0.156497,0.976455
402,-54.261082,1.342794,-22.827497,-0.023072,-0.180545,1.062638
403,-68.116274,11.779965,-39.429313,0.050538,-0.236820,1.004288
404,-51.331350,13.488975,-33.691920,0.080323,-0.396490,1.041398
405,-23.376822,2.197299,-10.681315,0.094484,-0.161135,1.052750
406,-29.419394,-0.671397,-7.934691,0.061769,-0.044190,1.081682
407,-52.002747,7.202258,-9.338521,-0.012696,0.001343,1.097307
408,-96.742199,16.235599,-11.779965,0.083497,0.070558,1.006119
409,-126.100557,19.836728,-6.164645,0.064820,-0.112306,0.717906
410,-104.921035,7.324331,11.841001,-0.083864,0.350713,0.917006
411,-127.809567,-14.038300,-17.456321,0.040162,0.742443,0.866468
412,-321.721218,-2.319371,-31.372549,-0.054078,0.707652,1.757473
413,-515.754940,-10.864424,2.014191,-0.417853,-0.016602,1.386496
414,-599.435416,-41.016251,20.141909,-0.266728,-0.007568,1.417624
415,-667.368582,-38.513771,16.906996,0.230472,-0.022461,1.520409
416,-716.685740,-27.588312,12.085145,0.114748,-0.342779,1.157244
417,-863.050279,-14.831769,86.610208,-0.945937,-1.962799,1.999969
418,-530.281529,53.589685,27.710384,-1.571557,-0.937026,1.999969
419,123.720150,88.746471,-49.378195,-0.834852,0.278447,1.999969
420,217.471580,98.817426,-44.678416,-1.115496,0.710460,1.999969
421,35.461967,84.473945,1.098650,-0.920790,0.379889,1.341573
422,-20.569162,21.362631,73.975738,-0.627817,0.091310,0.554208
423,79.346914,-1.586938,70.496681,-0.318730,0.193973,0.401251
424,82.581827,-22.949569,70.496681,-0.116091,0.450324,0.174807
425,37.048905,-30.762188,73.731594,0.083864,0.407111,0.498177
426,64.271000,-15.930419,57.923247,0.193851,0.435065,0.702037
427,89.356832,-0.854505,37.170977,0.287602,0.576059,0.742931
428,90.638590,9.704738,20.325017,0.278813,0.556649,0.795666
429,110.780499,9.948882,4.699779,0.152834,0.479500,0.790539
430,131.593805,-0.366217,-5.615320,0.067872,0.477180,0.872816
431,145.387961,-9.521630,-11.169604,-0.038819,0.415412,1.051896
432,166.445411,-16.357671,-12.878614,-0.167361,0.335088,1.253315
433,190.859846,-18.616007,-11.657893,-0.270634,0.242191,1.389914
434,216.372931,-18.860151,-6.897078,-0.330205,0.153323,1.426169
435,240.360113,-18.921187,-0.976577,-0.340948,0.074220,1.346456
436,257.816434,-18.921187,4.760815,-0.345220,0.014771,1.293843
437,267.582208,-17.090105,9.826810,-0.305180,-0.036378,1.324361
438,276.493477,-9.277485,12.939651,-0.261601,-0.069459,1.391135
439,283.878843,0.793469,14.282444,-0.215213,-0.124147,1.423239
440,288.456550,10.193027,13.427939,-0.123171,-0.239261,1.310201
441,288.883803,19.653620,8.178836,0.029664,-0.343145,1.105364
442,276.798657,32.715343,-1.892119,0.114748,-0.422492,0.961074
443,254.337377,36.133364,-10.437171,0.091066,-0.406989,1.048478
444,233.401999,31.189441,-17.883574,0.049561,-0.409674,1.295186
445,224.795911,34.729534,-23.437858,-0.071901,-0.362432,1.579004
446,212.954910,40.344854,-24.048219,-0.241947,-0.404303,1.919951
447,210.940719,44.495308,-18.249790,-0.367315,-0.462287,1.999969
448,228.213931,44.129091,-10.376135,-0.432380,-0.602670,1.999969
449,247.379263,44.922560,-2.380407,-0.442512,-0.676036,1.999969
450,250.858320,44.495308,7.812619,-0.417243,-0.689586,1.999969
451,256.351568,42.725261,17.029068,-0.322637,-0.715953,1.999969
452,269.596399,44.007019,21.667811,-0.186282,-0.692149,1.916167
453,268.863966,44.556344,22.034028,-0.012696,-0.636728,1.692042
454,260.013733,44.129091,17.090105,0.138918,-0.596078,1.570092
455,252.384222,41.931792,7.568475,0.240238,-0.585336,1.449119
456,242.374304,34.973678,-3.723201,0.283696,-0.587778,1.364157
457,228.763256,27.832456,-14.953841,0.279423,-0.639780,1.299825
458,212.893874,22.827497,-24.536507,0.156741,-0.790539,1.181903
459,194.155795,21.118486,-29.846647,0.008179,-0.990616,1.021134
460,166.872663,23.437858,-30.640116,-0.098390,-1.254902,0.948867
461,134.401465,31.677729,-28.625925,-0.022095,-1.555688,0.922744
462,102.723735,46.265354,-31.311513,0.208499,-1.876371,1.017716
463,77.943084,68.177310,-38.513771,0.342657,-2.000031,0.915419
464,68.726635,93.018997,-43.762875,0.270756,-2.000031,0.600473
465,54.688334,88.075074,-28.809033,0.063478,-2.000031,0.125124
466,16.418708,44.617380,-0.122072,-0.121950,-1.776638,-0.057618
467,-22.217136,-14.221408,31.006332,-0.174807,-1.489647,0.226078
468,-42.236973,-52.307927,53.101396,-0.196536,-1.195331,0.709361
469,-55.786984,-62.500954,58.716716,-0.132448,-1.677150,-2.000031
470,-183.108263,-101.136797,78.980697,-0.098512,-0.879530,-0.203250
471,-222.598611,-109.681849,74.402991,-0.072267,-0.718395,0.302007
472,-138.368811,-63.294423,58.411536,-0.112306,0.669810,1.721584
473,-185.549706,-55.054551,70.557717,-0.028809,0.887953,1.631617
474,-256.290532,-88.197147,86.610208,0.577035,0.248295,1.031998
475,-257.084001,-77.515831,69.153887,1.084855,-0.263798,1.026261
476,-232.730602,-40.650034,43.884947,1.094743,-0.048585,1.918608
477,-230.228122,-30.640116,23.682002,1.083879,0.026612,1.999969
478,-175.722896,9.216449,-0.244144,0.326909,-0.280156,1.999969
479,-110.597391,24.719615,-11.413748,-0.701183,-0.124880,1.511986
480,-142.763409,-22.949569,22.949569,-1.346334,-0.403937,1.914336
481,-90.699626,-78.370336,46.082246,-0.265385,-0.274296,1.109148
482,-66.163119,-92.164492,31.799802,1.222675,0.313848,1.999969
483,-72.571908,-32.837415,12.939651,0.865980,0.046143,1.851713
484,-40.222782,-0.732433,3.601129,-0.665171,-0.033448,0.898817
485,-55.176623,-40.894179,13.855192,-0.289799,-0.003906,1.185809
486,-31.067369,-39.856565,4.028382,0.551034,0.109010,1.448020
487,-28.564889,-12.024109,-1.403830,-0.019776,-0.064454,1.122820
488,-22.583352,-16.052491,2.685588,-0.211185,-0.057130,1.159686
489,0.671397,-19.836728,-0.305180,0.159182,0.075685,1.018448
490,-17.761501,-11.963073,1.220722,-0.028443,0.023438,1.030411
491,-13.366903,-13.061723,2.502480,-0.037598,-0.022095,1.038468
492,-4.394598,-9.094377,1.342794,0.112184,0.081666,1.048966
493,-16.174563,-2.075227,3.662165,0.035279,0.041993,1.040665
494,-13.550011,0.976577,5.065995,0.059083,0.015869,1.067887
495,-10.009918,4.821851,5.371176,0.023926,0.030030,0.993545
496,-14.343481,5.371176,6.042573,-0.005859,0.036133,1.013443
497,-12.390326,3.723201,5.615320,-0.023560,0.027222,0.961563
498,-13.305867,1.586938,4.028382,-0.011109,0.051148,0.961685
499,-20.019837,1.586938,0.366217,0.041871,-0.267704,0.675425
500,-15.014878,-1.281758,1.525902,-0.016480,-0.009400,1.049454
501,-16.113527,-3.601129,2.319371,-0.026001,-0.006592,1.011368
502,-13.000687,-5.432212,2.197299,0.000122,-0.024903,1.006363
503,-13.244831,-6.286717,1.464866,-0.016480,-0.004883,1.014420
504,-13.672084,-7.446403,0.976577,0.001465,-0.000244,1.005753
505,-12.451362,-7.507439,0.305180,0.006348,-0.011963,1.014542
506,-12.634470,-7.263294,0.427253,0.001465,-0.012696,0.992447
507,-12.268254,-8.667124,-0.915541,-0.067018,0.012573,1.020401
508,-16.235599,-9.277485,0.183108,0.001953,-0.002441,0.973281
509,-20.202945,-9.643702,1.037613,-0.020020,-0.034913,1.035294
510,-14.770733,-9.094377,1.342794,0.019287,-0.006348,0.990860
511,-17.944610,-7.751583,1.647974,0.017456,-0.021485,1.025040
512,-17.334249,-6.530861,1.892119,0.012085,-0.046265,1.031998
513,-12.390326,-5.188067,1.892119,0.015991,-0.036255,1.011368
514,-13.061723,-4.394598,1.892119,0.013428,-0.045289,1.030655
515,-11.047532,-4.089418,1.892119,0.008911,-0.047730,1.023575
516,-6.103609,-4.028382,1.159686,-0.006348,-0.027710,1.000504
517,-8.606088,-5.188067,0.549325,0.004883,-0.020142,0.983536
518,-8.545052,-5.798428,-0.244144,0.009155,-0.029297,0.997940
519,-8.545052,-5.615320,-0.671397,0.022827,-0.032837,1.004166
520,-9.216449,-4.699779,-0.732433,0.024414,-0.032227,1.018204
521,-8.606088,-3.601129,-0.549325,0.022461,-0.046509,0.996231
522,-8.667124,-3.479057,-0.244144,-0.000122,-0.038453,0.967300
523,-11.169604,-4.394598,0.244144,0.010864,-0.032715,0.990372
524,-12.878614,-5.004959,0.305180,-0.003784,-0.043336,0.987564
525,-13.244831,-6.225681,0.549325,0.015625,-0.035279,0.977188
526,-15.869383,-6.347753,0.671397,0.011963,-0.024781,0.949111
527,-20.874342,-7.629511,0.671397,0.010742,-0.039307,0.964981
528,-24.048219,-7.934691,-0.549325,0.023316,-0.055177,0.956069
529,-25.146868,-8.789197,1.342794,0.044800,-0.048829,0.990005
530,-26.794842,-9.216449,3.051804,0.046143,-0.045289,1.031510
531,-25.696193,-6.713970,2.807660,0.053346,-0.069337,0.992935
532,-29.907683,-2.014191,3.234913,0.065064,-0.096803,1.040787
533,-24.353399,1.098650,4.577707,0.041749,-0.043580,1.028824
534,-29.724575,5.188067,6.836042,0.044312,-0.052979,1.006607
535,-38.941024,5.615320,9.277485,0.031373,-0.131350,1.011246
536,-25.268940,7.751583,10.193027,0.038453,-0.081544,1.032975
537,-31.555657,8.545052,9.155413,0.012940,-0.079835,0.991226
538,-34.729534,7.202258,9.521630,-0.024048,-0.073121,0.975235
539,-32.227054,5.188067,5.371176,-0.039918,-0.067262,0.995010
540,-32.410163,1.953155,-0.366217,-0.022339,-0.028443,0.965835
541,-38.941024,-1.586938,-6.775006,-0.041382,-0.061158,0.996353
542,-45.044633,-3.906310,-16.174563,-0.052247,-0.046632,1.042863
543,-50.293736,-4.638743,-28.198672,-0.029664,-0.101564,1.074968
544,-66.407263,7.446403,-40.466926,0.067506,-0.037720,0.879408
545,-65.186542,11.352712,-43.701839,0.102785,-0.338140,1.008804
546,-44.373236,1.831083,-20.569162,0.111208,-0.257328,1.071427
547,-35.278859,-0.671397,-11.230640,0.068605,-0.109010,1.029557
548,-46.875715,5.432212,-9.948882,0.082521,-0.036744,1.008316
549,-66.590372,13.672084,-10.376135,0.070680,0.074464,0.943130
550,-101.808194,19.775692,-6.652934,0.081300,0.019898,0.818738
551,-100.953689,10.009918,16.296635,-0.118898,0.346685,0.804578
552,-137.392233,1.159686,-8.972305,0.066896,0.573861,0.807874
553,-214.480812,-14.465553,-27.771420,-0.094240,0.428840,1.190082
554,-461.738003,-5.004959,-0.793469,-0.056764,0.401617,1.552636
555,-616.769665,-21.423667,45.227741,0.064942,0.225834,1.312764
556,-659.067674,-34.424353,38.696880,0.238895,-0.051270,1.326070
557,-714.305333,-15.197986,28.564889,0.208011,-0.329961,1.013321
558,-795.422293,-14.099336,64.148928,0.246098,-2.000031,1.999969
559,-646.921492,19.836728,93.202106,-1.130388,-0.498665,1.999969
560,-12.512398,4.699779,-64.454108,-0.326909,-0.156130,1.999969
561,187.808042,15.197986,-76.844434,-0.684947,0.792004,1.999969
562,-11.535821,4.821851,-56.031128,-0.487556,0.478767,1.737209
563,-129.884794,-62.500954,27.161059,-0.468147,0.552499,1.441794
564,-35.767147,-55.664912,37.781338,-0.195438,0.417243,1.605005
565,90.699626,-42.908370,1.647974,-0.175906,0.597299,1.364034
566,67.994202,-37.476158,5.920500,-0.062257,0.655528,1.262348
567,75.867857,-26.794842,1.770047,-0.011719,0.458503,1.276509
568,140.932326,-9.948882,-14.221408,0.013550,0.497688,0.996353
569,148.500801,-8.545052,-22.278172,-0.017212,0.464729,0.797498
570,150.453956,-12.329290,-25.024796,-0.118776,0.304936,0.797375
571,177.309834,-14.160372,-28.809033,-0.195071,0.262333,0.802258
572,185.732815,-13.488975,-27.527276,-0.259037,0.235477,0.886000
573,192.080568,-7.080186,-23.132677,-0.316899,0.144411,1.034440
574,208.621347,1.892119,-17.822538,-0.356817,0.076783,1.163104
575,224.063478,6.103609,-9.094377,-0.350835,0.021241,1.193866
576,240.177005,4.577707,0.122072,-0.283085,-0.014405,1.238300
577,255.436027,4.028382,6.286717,-0.171756,-0.022339,1.269795
578,266.544595,8.606088,7.507439,-0.036011,-0.012085,1.368307
579,275.883116,20.630198,3.356985,0.134768,-0.013306,1.516381
580,287.296864,34.241245,-6.775006,0.364874,-0.104860,1.418845
581,289.738308,46.143282,-23.987182,0.611948,-0.282109,1.046159
582,281.742580,53.650721,-49.317159,0.752087,-0.370855,0.800183
583,253.665980,58.899825,-73.792630,0.656870,-0.452644,0.954726
584,228.458076,57.007706,-90.699626,0.559335,-0.493050,1.232563
585,218.753338,52.613108,-103.883421,0.385870,-0.520516,1.572534
586,212.832837,52.613108,-109.315633,0.157839,-0.611948,1.782742
587,215.396353,54.261082,-106.446937,-0.050050,-0.704234,1.776761
588,219.729915,51.758602,-99.855039,-0.186526,-0.757092,1.690455
589,211.856260,56.885634,-89.539940,-0.258427,-0.774914,1.764065
590,201.113909,70.313573,-75.745785,-0.298466,-0.786145,1.999969
591,205.508507,81.544213,-59.998474,-0.353521,-0.808362,1.999969
592,222.293431,85.694667,-41.321431,-0.347784,-0.834119,1.943389
593,229.556725,85.023270,-21.667811,-0.237919,-0.773571,1.770169
594,224.612802,82.642863,-7.141222,0.025879,-0.778210,1.518578
595,221.377890,87.953002,-1.953155,0.307622,-0.659678,1.551904
596,210.879683,83.375296,-3.234913,0.498665,-0.589975,1.694606
597,219.241627,71.534295,-10.986496,0.618296,-0.571908,1.659693
598,227.176318,58.594644,-21.911955,0.657481,-0.569100,1.458152
599,220.035096,47.791257,-32.715343,0.613046,-0.632456,1.242695
600,208.987564,40.650034,-43.274586,0.454963,-0.718761,1.128679
601,192.507820,36.804761,-48.889906,0.171267,-0.854017,1.100481
602,177.676051,34.729534,-47.730220,-0.048585,-1.000137,1.053361
603,163.393606,36.743725,-42.481117,-0.135988,-1.137957,0.905287
604,140.199893,42.236973,-36.865797,-0.074220,-1.315084,0.718029
605,112.245365,52.124819,-32.715343,-0.009033,-1.533837,0.607187
606,82.276646,67.689021,-28.564889,-0.007080,-1.749172,0.503426
607,50.476844,81.849393,-18.493935,-0.068360,-1.925200,0.457893
608,23.132677,84.718090,1.831083,-0.159548,-1.936065,0.354009
609,-1.831083,63.477531,30.823224,-0.167361,-1.815824,0.125002
610,-29.663539,13.794156,60.547799,-0.138186,-1.579980,0.230961
611,-56.336309,-26.977951,86.671244,-0.130495,-1.345113,0.669078
612,-102.357519,-68.787671,92.347601,0.012085,-1.970977,-1.464622
613,-180.300603,-121.889067,109.803922,0.191531,0.306035,1.053971
614,-103.761349,-70.191501,74.769207,0.098146,0.598398,1.398581
615,-92.774853,-45.960174,67.750057,-0.375860,1.188128,1.116838
616,-171.633478,-122.987716,101.319905,0.241459,0.603769,-0.244388
617,-295.048447,-127.809567,114.869917,1.094865,-0.202640,0.250980
618,-312.932021,-73.609522,91.187915,1.357687,-0.176394,1.921294
619,-269.596399,-59.815366,59.510185,1.834257,0.023194,1.999969
620,-159.304189,-24.475471,3.234913,1.658595,0.082521,1.999969
621,-106.019684,14.343481,-43.396658,0.269780,0.033326,1.407004
622,-137.636378,25.635157,-30.762188,-1.313863,-0.181888,1.405051
623,-147.829404,-9.277485,29.480430,-2.000031,-0.537972,1.685206
624,-93.324178,-95.216297,62.684062,-0.436042,-0.376471,1.280781
625,-55.176623,-116.273747,50.049592,1.229633,0.474006,1.999969
626,-68.482490,-66.163119,25.513085,1.171649,0.136599,1.766506
627,-52.735180,-17.456321,7.934691,-0.458259,-0.039307,1.237690
628,-48.889906,-48.157473,15.747311,-0.373663,0.072999,1.122454
629,-35.095750,-55.970092,6.469825,0.559457,0.152468,1.407614
630,-38.269627,-27.893492,0.305180,0.110719,-0.018311,1.162860
631,-31.738766,-25.574121,2.380407,-0.124025,-0.028809,1.244892
632,-14.465553,-26.245518,-2.197299,0.133791,0.011475,1.138811
633,-9.521630,-14.953841,-3.967346,0.161257,0.087892,1.061051
634,-20.691234,-6.530861,-0.549325,0.028687,-0.006714,1.087785
635,-6.103609,-2.685588,-0.793469,0.090455,0.030152,1.066300
636,-10.131991,4.821851,1.098650,0.131960,0.058717,1.051774
637,-10.498207,10.559243,1.770047,0.000122,0.015381,1.013809
638,-7.019150,10.315099,2.258335,0.044312,0.040772,1.010758
639,-9.582666,11.352712,2.319371,0.022217,0.016480,1.014786
640,-6.958114,10.315099,2.075227,-0.001099,0.025025,0.986709
641,-5.554284,8.422980,1.342794,0.008667,0.082155,0.931533
642,-13.916228,6.775006,1.037613,-0.015625,0.128420,1.038956
643,-11.474784,6.897078,1.464866,-0.013306,0.043336,1.051041
644,-8.606088,6.286717,1.647974,-0.000732,0.034546,1.002579
645,-10.254063,5.310140,2.258335,-0.004395,0.015381,0.981949
646,-8.850233,4.089418,2.685588,-0.015625,-0.002930,0.993668
647,-7.385367,2.014191,3.540093,0.002564,0.015503,0.992081
648,-8.117800,0.793469,3.784237,0.009888,0.018555,0.994278
649,-8.422980,0.244144,3.540093,0.011353,-0.001221,1.029923
650,-4.150454,0.000000,3.418021,0.000488,-0.005859,0.960220
651,-4.394598,-2.319371,2.685588,-0.013428,-0.016968,0.937758
652,-7.690547,-5.615320,2.136263,-0.003906,0.040650,0.990738
653,-6.286717,-7.141222,1.709010,0.000488,0.017456,0.976211
654,-7.751583,-7.080186,0.183108,-0.016114,0.095949,1.079118
655,-7.507439,-9.033341,1.220722,0.029664,-0.033082,1.008804
656,-9.765774,-9.582666,0.915541,-0.009400,0.008789,0.991104
657,-8.178836,-9.521630,0.366217,0.000122,-0.014649,0.995010
658,-5.554284,-9.460594,0.366217,0.026490,-0.010742,1.036149
659,-4.638743,-9.094377,0.549325,0.010132,0.046632,1.008072
660,-3.295949,-9.582666,0.000000,0.006836,-0.024170,0.928725
661,-8.117800,-11.047532,0.366217,0.006104,0.010498,1.035294
662,-5.432212,-10.803388,0.427253,0.040528,-0.010864,1.019181
663,-2.685588,-9.582666,0.671397,0.044068,-0.004639,1.021988
664,-2.075227,-7.995727,1.159686,0.025635,-0.003784,0.993179
665,-2.319371,-7.751583,0.976577,0.011597,0.025147,0.948135
666,-7.202258,-8.728161,0.488289,0.021851,0.034058,0.932387
667,-14.160372,-9.704738,0.305180,0.035401,0.009888,0.978164
668,-14.282444,-9.338521,0.183108,0.037110,0.021973,1.022354
669,-14.404517,-8.911269,0.488289,0.048096,0.027466,0.983291
670,-18.860151,-8.117800,0.976577,0.052857,0.002075,0.987076
671,-20.996414,-7.629511,1.403830,0.038331,0.004395,0.947768
672,-26.489662,-7.629511,2.014191,0.052369,0.003784,0.942763
673,-31.677729,-6.897078,2.685588,0.051881,-0.012818,0.965347
674,-34.851606,-6.897078,3.356985,0.041871,-0.029541,0.981704
675,-32.410163,-5.676356,4.028382,0.055909,-0.039673,0.991104
676,-35.339895,-4.089418,4.760815,0.057130,-0.053346,0.972427
677,-33.447776,-2.746624,6.042573,0.060914,-0.055787,1.039322
678,-32.776379,-1.953155,6.897078,0.016114,-0.044190,1.017350
679,-33.997101,-0.427253,6.836042,0.051759,-0.066407,0.962905
680,-32.898451,-1.709010,5.615320,0.001465,-0.040894,0.970840
681,-30.762188,-2.685588,2.929732,0.124880,0.083986,0.926162
682,-55.664912,1.464866,1.342794,-0.043214,-0.008057,0.971817
683,-64.148928,-1.220722,-0.610361,0.106447,-0.124636,1.009415
684,-51.697566,2.502480,-0.915541,0.021485,-0.060304,1.034806
685,-57.618067,2.624552,-1.770047,0.058717,-0.082521,1.006119
686,-58.594644,3.051804,-0.671397,0.004395,-0.063844,1.033707
687,-57.495995,2.380407,-6.591897,-0.020630,-0.069215,0.996231
688,-61.097124,1.464866,-15.075914,-0.009522,-0.203494,1.146014
689,-72.205692,12.024109,-31.128405,0.010742,-0.123049,0.867323
690,-70.618753,9.094377,-45.227741,0.098146,-0.289799,0.984756
691,-41.687648,-2.380407,-26.428626,0.252811,-0.271366,0.958633
692,-25.268940,1.953155,-2.502480,0.099855,-0.146487,1.126726
693,-56.153201,9.094377,-2.014191,0.038575,0.052979,1.023331
694,-97.047379,18.066682,-7.934691,0.084230,0.064698,0.966445
695,-124.086366,21.789883,-1.647974,0.043458,0.100221,0.802258
696,-123.537041,6.958114,5.249104,-0.039796,0.210697,0.741222
697,-138.796063,-12.878614,7.141222,-0.103639,0.393805,0.908949
698,-271.000229,-17.761501,-10.070954,0.150637,0.788708,0.795666
699,-475.837339,-36.804761,-0.915541,-0.307378,-0.323857,1.226337
700,-560.128176,-112.489509,61.463340,-0.325200,-0.008423,1.791897
701,-600.961318,-123.414969,49.805447,0.406989,-0.057374,1.432029
702,-664.072633,-101.686122,44.495308,0.208499,-0.140383,0.786023
703,-735.423819,-80.689708,65.064469,0.805188,-2.000031,1.999969
704,-733.592737,0.854505,162.722210,-0.626719,0.045167,1.999969
705,-129.579614,8.667124,-37.842374,-0.003540,-1.064347,1.999969
706,208.010987,44.434272,-58.411536,-0.322271,0.608164,1.999969
707,109.010452,37.048905,-62.745098,-0.135134,0.624155,1.743557
708,-13.733120,-14.282444,4.699779,-0.395392,0.661509,1.303487
709,-5.371176,-39.612421,13.977264,-0.092531,0.340581,1.147234
710,114.503700,-19.653620,-5.493248,-0.076295,0.432624,0.836561
711,104.127565,-14.282444,-11.841001,0.081422,0.492073,0.518196
712,63.843748,-1.464866,-15.869383,0.088624,0.398688,0.713756
713,86.793317,19.348440,-28.015564,0.066651,0.314214,0.788952
714,110.048066,27.161059,-35.889220,0.020874,0.348638,0.755993
715,108.827344,17.212177,-35.217823,-0.053590,0.317144,0.888075
716,126.649882,4.150454,-33.997101,-0.100465,0.284794,1.097673
717,153.810941,-2.624552,-32.227054,-0.107912,0.303960,1.242939
718,172.915236,-2.075227,-30.212863,-0.103517,0.309331,1.425925
719,197.573816,6.469825,-30.090791,-0.089113,0.250492,1.543359
720,229.373617,18.066682,-30.273899,-0.078492,0.176150,1.412985
721,250.675212,25.574121,-31.921874,-0.089479,0.092287,1.313985
722,266.056306,30.334936,-30.640116,-0.051270,0.007691,1.167498
723,274.662394,33.142596,-30.334936,-0.011231,-0.027955,1.182757
724,278.202487,36.072328,-30.273899,0.034302,-0.075441,1.215717
725,287.113756,37.964446,-33.752956,0.071412,-0.130983,1.139788
726,284.672313,45.105669,-39.002060,0.070558,-0.257328,0.899794
727,267.765316,58.350500,-42.969406,0.088258,-0.405158,0.681773
728,242.374304,70.435645,-44.861524,0.106691,-0.433478,0.683970
729,213.992523,75.318532,-47.974365,0.177371,-0.328496,1.057633
730,195.376516,73.731594,-52.246891,0.172000,-0.255497,1.616114
731,197.268635,76.112001,-55.970092,0.132815,-0.307256,1.999969
732,213.199054,84.046693,-56.214237,0.047852,-0.387701,1.999969
733,230.655375,86.488136,-53.467613,-0.054444,-0.555062,1.999969
734,236.270695,88.807507,-45.899138,-0.119875,-0.663340,1.825589
735,226.016632,82.337682,-34.973678,-0.139040,-0.749767,1.820218
736,221.927214,79.652094,-25.146868,-0.107546,-0.761852,1.999969
737,226.749065,83.680476,-17.029068,-0.076783,-0.782116,1.999969
738,249.820707,86.488136,-9.338521,-0.044678,-0.815320,1.999969
739,272.220951,85.145342,-3.234913,0.101442,-0.795666,1.807156
740,265.445945,83.924620,2.014191,0.323491,-0.740734,1.546044
741,250.980392,78.309300,4.394598,0.381598,-0.742931,1.555444
742,247.196155,66.773480,6.164645,0.351446,-0.796277,1.591577
743,244.022278,55.359731,8.606088,0.278935,-0.889052,1.524804
744,235.111009,48.157473,11.963073,0.138430,-1.082414,1.338766
745,221.744106,45.777066,16.968032,0.057130,-1.305074,1.052995
746,195.681697,48.157473,18.982223,0.205570,-1.553124,0.805676
747,155.703059,56.458381,11.169604,0.561654,-1.804227,0.632456
748,111.818112,82.032502,-15.747311,0.819226,-2.000031,0.603891
749,81.544213,124.452583,-41.992828,0.643931,-2.000031,0.498421
750,59.205005,146.059358,-44.068055,0.258061,-2.000031,0.159915
751,24.719615,115.968566,-18.982223,-0.070192,-2.000031,-0.161868
752,-12.329290,45.044633,18.127718,-0.231449,-1.802884,-0.089235
753,-100.587472,-67.322805,47.119860,-0.217533,-2.000031,-1.756619
754,-235.904479,-193.850614,84.046693,0.698253,-1.630030,-0.537362
755,-191.470207,-148.744945,57.618067,0.623056,-0.450568,1.249409
756,-113.344015,-81.788357,20.874342,-0.310796,1.045914,1.999969
757,-181.521324,-86.976425,58.167391,-0.287480,0.889906,1.139055
758,-284.306096,-108.949416,74.280919,0.435676,-0.171023,0.306767
759,-295.536736,-75.440604,66.285191,0.886244,-0.482795,0.829480
760,-284.611276,-72.816052,51.941711,1.429099,-0.009888,1.999969
761,-239.505608,-18.982223,21.362631,1.273335,-0.255497,1.999969
762,-127.504387,7.324331,-17.456321,0.129763,-0.256840,1.999298
763,-123.231861,-8.545052,-12.390326,-1.431907,-0.304204,1.999969
764,-129.274434,-70.984970,42.603189,-1.348409,-0.528817,0.998428
765,-73.487449,-119.569696,44.495308,0.664195,0.124514,1.954498
766,-79.713130,-87.891966,25.513085,1.702052,0.234989,1.999969
767,-46.997787,-12.878614,-2.990768,-0.142580,0.057496,1.225483
768,-64.332036,-34.119173,2.929732,-0.618906,-0.135378,1.142840
769,-31.555657,-56.031128,6.836042,0.442512,0.094240,1.235859
770,-33.569848,-23.315785,-10.315099,0.329717,-0.081910,1.302510
771,-35.034714,-12.329290,-2.807660,-0.173709,-0.104250,1.155291
772,-4.577707,-20.386053,-3.234913,0.106935,0.077394,0.938735
773,-26.733806,-11.230640,-3.662165,0.051392,0.043214,0.996841
774,-35.339895,-6.164645,-1.159686,0.015503,-0.088746,1.113542
775,-17.578393,-2.746624,-0.732433,0.121096,0.007080,1.090593
776,-23.315785,2.319371,2.197299,0.051759,-0.032105,1.077775
777,-14.404517,5.004959,3.356985,0.062379,-0.033204,1.076555
778,-14.709697,7.873655,4.821851,0.052979,0.004761,1.008682
779,-15.808347,9.460594,5.249104,0.015747,-0.006958,1.005142
780,-14.770733,8.422980,5.493248,0.030884,-0.006836,1.017960
781,-14.160372,9.216449,2.685588,-0.022827,-0.135500,0.974014
782,-17.395285,8.239872,4.028382,0.004883,-0.005615,1.016739
783,-15.869383,6.775006,4.699779,-0.012573,-0.020508,1.008927
784,-14.526589,5.737392,4.211490,0.013428,-0.029664,1.009659
785,-13.550011,5.981537,4.333562,0.004883,-0.054688,1.036881
786,-8.789197,5.737392,4.333562,0.006836,-0.043458,1.034928
787,-5.737392,5.432212,4.211490,0.008179,-0.025147,1.005020
788,-7.141222,4.882887,3.662165,-0.012696,-0.024414,1.000381
789,-6.530861,3.356985,3.112840,-0.011231,-0.023804,1.004532
790,-6.836042,2.258335,2.380407,-0.010376,-0.028443,0.985000
791,-6.775006,1.037613,2.075227,-0.003540,-0.041016,1.003555
792,-6.408789,0.061036,1.892119,0.005249,-0.060304,1.030167
793,-1.525902,0.244144,2.014191,0.002319,-0.055177,1.021012
794,0.183108,-0.549325,1.647974,-0.001587,-0.045167,1.015518
795,1.525902,-1.403830,1.098650,0.001587,-0.025391,1.026017
796,1.281758,-1.892119,1.342794,-0.016602,-0.025513,0.988663
797,1.647974,-2.868696,1.220722,-0.002930,-0.015137,0.968154
798,-1.037613,-3.479057,0.854505,0.002808,-0.024170,0.973404
799,-2.319371,-3.295949,0.976577,0.018555,-0.013916,1.017960
800,-2.258335,-2.258335,1.220722,0.018067,-0.031861,1.000626
801,-3.601129,-1.403830,1.342794,0.002319,-0.038941,1.004044
802,-2.990768,-0.061036,-0.671397,0.028565,-0.212406,0.851698
803,-1.098650,-0.549325,0.793469,0.032227,-0.055177,0.984024
804,-4.821851,-1.770047,1.647974,-0.000122,-0.009033,1.012589
805,-4.577707,-2.380407,2.014191,0.000610,-0.005249,1.000992
806,-4.699779,-3.173877,1.342794,0.005982,-0.016480,0.988174
807,-6.591897,-3.601129,0.976577,0.007568,-0.004639,0.982071
808,-8.850233,-3.662165,0.671397,0.013428,-0.032227,0.983169
809,-10.681315,-3.601129,0.915541,0.004150,-0.044434,0.986587
810,-10.620279,-4.272526,0.793469,0.001465,-0.029664,0.975357
811,-12.756542,-4.943923,0.183108,0.013672,-0.023194,0.984634
812,-15.686275,-5.371176,0.244144,0.005371,-0.040650,0.967300
813,-18.371862,-5.981537,0.488289,0.009522,-0.037842,0.969375
814,-21.179522,-6.408789,0.671397,-0.002686,-0.046632,0.963027
815,-23.315785,-7.507439,1.342794,0.006348,-0.064454,0.965835
816,-25.268940,-8.422980,2.441444,0.013306,-0.064332,0.976699
817,-25.391012,-8.606088,3.479057,0.019776,-0.083742,1.008927
818,-25.879301,-8.545052,4.089418,0.013916,-0.102296,1.016373
819,-19.897765,-8.545052,4.882887,0.020874,-0.076051,1.019059
820,-17.456321,-9.033341,7.019150,0.032349,-0.026123,1.034562
821,-23.193713,-7.507439,5.371176,0.001465,-0.077272,0.953384
822,-23.376822,-9.033341,4.821851,0.027832,-0.046876,1.010880
823,-26.733806,-6.591897,3.051804,0.049805,-0.051270,1.008072
824,-30.640116,-5.676356,2.685588,0.030762,-0.069459,1.010513
825,-32.471199,-4.272526,2.258335,0.021363,-0.071901,0.980972
826,-34.058137,-4.272526,2.441444,0.037964,-0.049195,1.013077
827,-39.063096,-2.563516,1.159686,0.012818,-0.065187,0.996109
828,-42.786297,-2.380407,0.122072,0.012207,-0.090944,0.997330
829,-41.870756,-2.929732,-2.136263,-0.019654,-0.097658,0.984268
830,-39.917601,-2.929732,-8.789197,-0.032349,-0.102174,0.996597
831,-49.683375,-5.127031,-18.432898,-0.047364,-0.106081,1.153460
832,-74.402991,6.530861,-36.682689,-0.011597,-0.148074,1.061784
833,-69.703212,5.737392,-35.278859,0.087404,-0.390265,1.075334
834,-36.011292,-2.929732,-12.329290,0.089357,-0.217411,1.023087
835,-27.222095,-1.403830,-12.451362,0.118654,-0.174807,0.962783
836,-31.250477,-0.671397,-3.295949,0.074830,-0.038697,1.058976
837,-55.664912,5.615320,-9.460594,0.023316,0.114870,0.954360
838,-96.192874,13.794156,-19.592584,0.077150,0.034546,1.055192
839,-123.109789,19.348440,-18.677043,0.104860,0.076417,0.792737
840,-113.344015,4.760815,-8.972305,-0.130129,0.095094,0.879774
841,-131.532769,-26.489662,-30.518044,-0.062379,0.657969,1.152850
842,-311.406119,-10.986496,-43.457694,0.095705,1.160784,1.540185
843,-525.093462,-19.714656,-18.860151,-0.496468,-0.161135,1.218769
844,-615.243763,-81.116960,25.757229,-0.274296,-0.325933,1.044205
845,-674.143587,-128.358892,57.068742,0.006958,-0.043336,1.242451
846,-728.465705,-156.801709,58.594644,0.138186,-0.532845,0.912490
847,-878.553445,-163.454643,155.825132,-0.467048,-1.744045,1.999969
848,-505.622950,-106.446937,106.202792,-1.097673,-0.574716,1.999969
849,156.374456,-45.349813,-27.466239,-0.172000,0.644907,1.999969
850,259.830625,2.258335,-43.884947,-0.591806,1.185443,1.999969
851,63.233387,28.992142,-26.306554,-0.428351,0.749889,1.383078
852,-63.416495,-17.700465,32.288090,-0.406256,0.453132,0.726085
853,-5.981537,-10.620279,37.048905,-0.193729,0.164675,0.671763
854,99.916075,-3.418021,17.883574,-0.210208,0.385992,0.559579
855,59.388113,-16.296635,26.062409,-0.072633,0.453254,0.617319
856,46.509499,-20.141909,28.564889,-0.026978,0.311772,0.940810
857,101.930266,-9.704738,16.418708,0.073243,0.418830,0.960708
858,113.038834,-3.723201,6.469825,0.125978,0.502327,1.012467
859,118.348974,2.136263,-2.258335,0.106203,0.425055,1.188373
860,155.642023,9.033341,-11.902037,0.069581,0.379400,1.281392
861,179.934386,8.911269,-18.860151,-0.011963,0.305547,1.356588
862,208.743420,6.958114,-20.325017,-0.034546,0.198245,1.297627
863,236.331731,4.455634,-21.179522,-0.050172,0.137942,1.217548
864,251.712825,3.906310,-21.057450,-0.038575,0.061402,1.215717
865,265.201801,7.263294,-21.423667,-0.039063,-0.017090,1.301778
866,282.413977,11.413748,-21.728847,-0.025269,-0.061891,1.327779
867,294.071870,14.526589,-22.095064,0.006592,-0.116457,1.361593
868,302.738994,16.418708,-22.217136,0.026123,-0.191165,1.236225
869,308.049134,16.662852,-24.597543,0.060182,-0.286748,0.971695
870,294.316014,24.109255,-29.297322,0.105715,-0.462409,0.639048
871,264.530404,42.908370,-33.691920,0.162966,-0.476936,0.616464
872,226.260777,55.054551,-37.842374,0.059083,-0.447150,1.010147
873,209.353780,53.955901,-39.002060,0.037354,-0.394659,1.411276
874,212.344549,54.261082,-41.321431,-0.017334,-0.329351,1.836576
875,206.851301,57.068742,-37.903410,-0.068849,-0.374640,1.999969
876,219.424735,56.946670,-33.386740,-0.078737,-0.488045,1.999969
877,246.829938,57.618067,-31.799802,-0.026368,-0.591684,1.999969
878,253.910124,63.233387,-29.907683,0.001709,-0.598154,1.999969
879,249.881743,62.378882,-26.672770,0.015137,-0.655894,1.999969
880,266.178378,60.608835,-25.024796,0.083497,-0.707408,1.999969
881,282.719158,66.346227,-28.503853,0.159548,-0.730968,1.942901
882,271.122301,73.914702,-30.090791,0.159670,-0.796887,1.717922
883,261.295491,78.431373,-31.738766,0.171267,-0.860731,1.659815
884,253.299763,80.140383,-33.752956,0.167605,-0.899306,1.597070
885,242.435340,83.741512,-35.461967,0.231815,-0.939101,1.554101
886,227.420462,90.089265,-36.682689,0.296269,-0.985855,1.522972
887,214.663920,91.432059,-37.293050,0.318975,-1.119890,1.425803
888,203.982605,89.662013,-37.476158,0.328252,-1.303487,1.197162
889,182.009613,88.380255,-35.889220,0.384283,-1.563745,0.952773
890,148.683909,90.028229,-34.424353,0.500496,-1.869657,0.776867
891,113.405051,93.995575,-38.696880,0.609018,-2.000031,0.660533
892,89.723049,90.882734,-43.030442,0.578988,-2.000031,0.389288
893,70.618753,78.675517,-43.396658,0.421271,-2.000031,0.087770
894,43.152514,52.063783,-28.015564,0.158938,-2.000031,-0.239994
895,-8.178836,3.540093,-0.732433,-0.077760,-1.829374,-0.138674
896,-49.011978,-43.030442,28.503853,-0.268559,-1.511254,0.424201
897,-105.653468,-95.460441,38.513771,-0.275151,-1.947295,-1.357565
898,-221.438926,-163.149462,68.665599,0.043336,-0.454719,0.920790
899,-147.096971,-98.756390,54.688334,-0.167483,-0.070314,1.665431
900,-96.864271,-44.617380,44.129091,-0.632334,1.083146,1.087053
901,-174.013886,-107.118334,77.210651,-0.155886,0.537850,-0.445197
902,-334.050507,-137.270161,101.136797,0.572274,-0.129763,0.481575
903,-359.197375,-98.023957,97.352560,0.830335,-0.420905,1.999969
904,-267.643244,-80.628672,71.778439,1.495262,-0.236210,1.999969
905,-191.653315,-53.345541,29.846647,1.461204,-0.125978,1.999969
906,-155.397879,-18.799115,2.014191,0.522347,-0.254276,1.998199
907,-123.781186,1.586938,-2.502480,-0.536751,-0.163577,1.555688
908,-147.463188,-39.856565,25.696193,-1.206073,-0.284794,1.999969
909,-120.485237,-78.797589,33.997101,0.410163,-0.181765,1.999969
910,-44.739452,-56.763561,16.296635,1.031388,0.063355,1.612818
911,-53.833829,-19.226368,-0.732433,-0.020020,0.062013,1.310689
912,-82.642863,-31.128405,12.878614,-0.323735,-0.110109,1.055192
913,-48.279545,-35.889220,-0.854505,0.329961,-0.159915,1.543847
914,-20.996414,-22.339208,-1.281758,0.131960,-0.023682,1.108782
915,-28.442817,-19.165332,-2.624552,0.001465,-0.077516,1.067033
916,-27.893492,-17.029068,-2.197299,0.101930,-0.025391,1.098528
917,-17.212177,-13.000687,-4.699779,0.036255,-0.015747,1.038102
918,-24.353399,-9.643702,-2.014191,0.052735,-0.010620,1.028092
919,-25.207904,-6.897078,-0.427253,0.054566,-0.057130,1.109636
920,-16.174563,-2.014191,1.037613,0.124514,-0.040528,1.065812
921,-16.968032,3.723201,1.892119,0.053346,-0.030396,1.044327
922,-15.686275,4.394598,3.723201,0.057374,-0.092164,1.026871
923,-9.033341,5.554284,4.577707,0.059937,-0.037842,1.031022
924,-10.193027,5.981537,4.577707,0.005859,-0.020142,0.973770
925,-10.864424,4.394598,4.821851,0.032349,0.021118,1.018570
926,-11.474784,3.479057,4.211490,0.019898,-0.026001,1.004532
927,-9.033341,2.502480,3.234913,-0.000977,0.003784,0.953017
928,-17.090105,0.610361,2.441444,0.001587,-0.027955,0.991470
929,-17.273213,-0.061036,2.014191,0.025025,-0.064698,1.053361
930,-10.620279,0.671397,1.770047,0.030274,-0.068727,1.046891
931,-7.568475,1.281758,2.014191,0.035035,-0.062989,1.021866
932,-5.432212,1.342794,1.892119,0.027344,-0.057618,1.022354
933,-2.807660,1.281758,1.647974,0.026734,-0.048829,1.019181
934,-2.075227,1.281758,1.647974,0.028443,-0.050416,1.004410
935,-0.976577,0.793469,1.525902,0.015015,-0.039063,0.981949
936,-2.380407,-0.549325,1.342794,0.014893,-0.026123,0.970474
937,-6.530861,-1.647974,1.342794,0.014405,-0.018677,0.985000
938,-6.652934,-2.014191,0.793469,0.011719,-0.053712,0.962661
939,-10.498207,-2.624552,1.037613,0.031617,-0.039673,0.993301
940,-12.512398,-2.258335,1.586938,0.020264,-0.041871,1.005997
941,-11.169604,-2.014191,2.380407,0.023194,-0.052857,1.002579
942,-11.169604,-2.136263,2.075227,0.023072,-0.059083,1.006851
943,-10.498207,-1.709010,2.136263,0.029664,-0.080079,1.026139
944,-7.629511,-1.342794,2.319371,0.030762,-0.074952,1.042985
945,-3.784237,-0.732433,2.502480,0.034913,-0.069825,1.025406
946,-1.647974,-0.488289,2.441444,0.023438,-0.060670,0.961440
947,-5.004959,-1.525902,2.868696,0.024781,-0.024414,0.947402
948,-11.779965,-2.746624,2.746624,0.007202,-0.021729,0.937758
949,-16.357671,-4.638743,2.014191,-0.002808,-0.039429,0.937758
950,-19.470512,-6.347753,1.525902,0.036011,-0.037110,0.993179
951,-23.315785,-6.286717,1.159686,0.023072,-0.081300,1.012589
952,-20.141909,-6.286717,1.647974,0.048707,-0.093996,1.014420
953,-17.517357,-5.676356,2.502480,0.051637,-0.042359,1.056779
954,-18.127718,-3.540093,2.746624,0.039429,-0.092653,1.013077
955,-17.883574,-2.380407,3.051804,0.045655,-0.107668,1.031998
956,-14.953841,-1.464866,2.746624,0.030274,-0.080446,1.034440
957,-13.733120,-1.281758,2.380407,0.019776,-0.052735,0.960098
958,-19.714656,-2.685588,1.586938,0.019654,-0.053956,0.972061
959,-22.156100,-3.112840,0.976577,0.038209,-0.073121,0.992691
960,-26.428626,-0.671397,1.831083,0.128664,0.049195,0.834241
961,-28.564889,-0.915541,3.418021,0.058473,-0.082155,0.992081
962,-31.860838,1.159686,6.897078,0.066407,-0.136599,1.012222
963,-28.442817,3.295949,9.521630,0.029297,-0.148684,1.013443
964,-23.682002,4.943923,10.742351,0.046021,-0.096803,1.010269
965,-27.832456,4.943923,10.620279,0.008423,-0.079469,0.963638
966,-31.128405,4.089418,7.812619,-0.000244,-0.069825,0.978286
967,-32.837415,2.990768,2.807660,0.000488,-0.051759,0.975845
968,-36.194400,-0.061036,-1.464866,-0.020386,-0.110353,1.035294
969,-35.278859,0.305180,-5.432212,-0.011597,-0.103761,0.966812
970,-36.743725,-0.793469,-15.564202,-0.010620,-0.217288,1.055924
971,-42.908370,3.967346,-29.785611,-0.025269,-0.086671,1.058854
972,-61.402304,12.024109,-47.852293,0.080446,-0.192752,1.026749
973,-44.556344,13.366903,-33.569848,0.184451,-0.376104,1.045548
974,-12.817578,9.216449,-9.704738,0.096315,-0.187015,1.115129
975,-9.155413,5.554284,-11.413748,-0.005737,0.020020,0.982681
976,-43.823911,9.216449,-16.968032,0.120974,0.419806,0.772473
977,-110.048066,18.127718,-21.850919,0.135378,0.240238,0.810437
978,-161.867704,19.531548,-7.141222,-0.031861,0.213993,0.806897
979,-177.798123,8.789197,-1.647974,0.020020,0.880873,1.164569
980,-331.975280,7.568475,-53.894865,0.091920,0.741100,1.100847
981,-539.436942,8.422980,4.882887,-0.327642,0.580087,1.999969
982,-667.307546,-39.124132,35.156786,-0.451057,-0.412360,1.568261
983,-709.361410,-48.340581,89.539940,0.153323,-0.249638,1.185565
984,-764.965286,-40.588998,82.581827,0.567880,-2.000031,1.999969
985,-774.303807,-3.906310,161.562524,-1.287739,0.020386,1.999969
986,-188.052186,-28.442817,-31.555657,-0.212039,-1.162249,1.999969
987,190.188449,20.080873,-55.481804,-0.393194,0.644175,1.999969
988,27.771420,42.114900,-67.872129,-0.249149,0.536141,1.723659
989,-130.251011,-8.606088,35.645075,-0.467292,0.680552,1.256489
990,-126.588846,-43.823911,57.618067,-0.130983,0.220829,1.516014
991,46.448463,-28.686961,24.536507,-0.098756,0.277836,1.309957
992,85.450523,-38.391699,17.700465,0.081666,0.619638,0.812024
993,39.429313,-46.753643,21.118486,0.133669,0.524544,0.967422
994,76.844434,-39.673457,6.469825,0.120485,0.407599,1.141375
995,122.194247,-36.072328,-9.704738,0.100099,0.493538,1.028580
996,127.077134,-43.213550,-18.982223,0.058473,0.428473,1.044083
997,150.209812,-46.753643,-28.931106,-0.019654,0.333989,1.061418
998,174.990463,-45.716030,-37.903410,-0.106325,0.290410,0.997818
999,181.338216,-41.138323,-41.443503,-0.188479,0.218997,1.019791
1000,192.446784,-33.997101,-42.175937,-0.297124,0.144778,1.136004
1001,207.095445,-26.733806,-39.124132,-0.368414,0.099001,1.232807
1002,223.025864,-18.677043,-33.020523,-0.407477,0.048707,1.320943
1003,238.956283,-10.559243,-25.207904,-0.401862,0.014893,1.415793
1004,257.694362,-0.976577,-17.822538,-0.366827,-0.016236,1.519799
1005,275.638972,10.254063,-10.986496,-0.306889,-0.080446,1.540063
1006,292.484932,21.484703,-6.469825,-0.208988,-0.140261,1.522972
1007,305.302510,31.311513,-4.577707,-0.113039,-0.190188,1.380636
1008,311.772335,39.734493,-7.324331,0.035767,-0.257572,1.140764
1009,304.753185,49.317159,-15.197986,0.190677,-0.398932,0.735851
1010,279.911498,64.087892,-27.771420,0.366583,-0.480232,0.534432
1011,243.167773,74.830243,-37.170977,0.295048,-0.424445,0.826673
1012,213.076982,65.186542,-42.664225,0.238773,-0.391485,1.342428
1013,214.236667,48.950942,-47.486076,0.177493,-0.316289,1.864775
1014,221.438926,42.481117,-51.331350,0.127199,-0.306401,1.999969
1015,231.815061,51.941711,-52.674144,0.065675,-0.475959,1.999969
1016,254.032197,70.252537,-54.993515,-0.016724,-0.629892,1.999969
1017,255.191882,82.337682,-50.659953,-0.140261,-0.641367,1.999969
1018,243.289845,76.966506,-38.086519,-0.173831,-0.693736,1.999969
1019,263.675898,67.627985,-27.527276,-0.070069,-0.775158,1.999969
1020,290.409705,69.825284,-25.268940,0.099611,-0.775280,1.999969
1021,281.986725,77.393759,-26.977951,0.302251,-0.754894,1.585107
1022,262.333104,78.370336,-34.546426,0.441779,-0.725841,1.479149
1023,249.515526,75.318532,-47.058824,0.550546,-0.687144,1.479149
1024,237.674525,73.853666,-61.585412,0.565560,-0.712169,1.360494
1025,223.392081,74.891279,-74.586099,0.486702,-0.785779,1.120989
1026,199.282826,80.994888,-83.497368,0.353521,-0.875135,0.949111
1027,165.896086,85.572595,-86.671244,0.190066,-1.048722,0.941421
1028,138.429847,87.769894,-83.680476,-0.018921,-1.334127,0.929213
1029,114.198520,85.023270,-72.877089,-0.046509,-1.660914,0.956924
1030,89.234760,74.769207,-54.322118,0.009522,-2.000031,0.838392
1031,80.933852,62.806134,-35.889220,0.101808,-2.000031,0.338872
1032,65.552758,45.227741,-17.273213,0.093996,-2.000031,-0.083986
1033,17.761501,10.193027,14.343481,-0.002930,-1.822293,-0.073976
1034,-23.620966,-31.677729,45.654994,-0.124392,-1.468772,0.384649
1035,-74.647135,-89.600977,67.139696,-0.014771,-1.547997,-0.337652
1036,-143.801022,-147.280079,90.516518,0.332769,-1.269673,0.382940
1037,-171.023117,-152.468147,82.459754,0.641855,-1.425193,0.760266
1038,-204.470893,-83.863584,67.078660,0.354986,-0.650645,0.680064
1039,-114.808881,-65.552758,40.405890,0.215946,0.363043,1.261494
1040,-139.223316,-61.524376,36.926833,0.523445,0.858900,1.550561
1041,-238.467994,-55.542840,42.969406,0.565072,0.379278,1.087053
1042,-261.905852,-48.462654,40.344854,0.465095,-0.273075,1.144671
1043,-211.367971,-33.875029,26.367590,0.431769,-0.174319,1.694362
1044,-202.700847,-24.719615,18.310826,0.405402,0.002564,1.999969
1045,-169.924468,-11.352712,8.911269,-0.142824,-0.258915,1.999969
1046,-105.714504,-4.699779,6.225681,-0.641001,-0.210452,1.134295
1047,-137.392233,-52.368963,37.476158,-0.797498,-0.202152,1.689601
1048,-101.503014,-89.784085,51.148241,0.023926,-0.212161,1.396262
1049,-68.787671,-95.155261,32.288090,1.165911,0.250248,1.999969
1050,-52.246891,-37.476158,14.953841,0.824842,0.034913,1.724514
1051,-37.598230,-2.319371,9.277485,-0.401984,0.055543,1.118425
1052,-52.857252,-26.123445,14.526589,-0.138552,0.020020,1.145647
1053,-34.912642,-22.827497,3.356985,0.407355,0.045167,1.361837
1054,-33.142596,-3.906310,2.685588,-0.027344,-0.017090,1.089006
1055,-27.038987,-7.873655,3.356985,-0.118532,0.024781,1.181903
1056,-17.151141,-11.596857,0.793469,0.040772,0.024781,1.018570
1057,-16.845960,-7.690547,-0.793469,0.022705,0.016602,1.069108
1058,-18.371862,-6.775006,1.220722,-0.038087,-0.026123,1.075212
1059,-7.934691,-7.385367,0.427253,0.021363,0.027466,1.022843
1060,-11.169604,-5.432212,1.464866,0.035157,0.021729,1.037003
1061,-10.498207,-3.662165,2.014191,0.000732,0.017578,1.018936
1062,-10.193027,-3.234913,2.014191,0.026123,0.015869,1.027359
1063,-9.216449,-1.831083,2.258335,0.001221,0.019898,1.015763
1064,-9.094377,-2.014191,2.197299,-0.010620,0.020142,1.010758
1065,-8.545052,-2.502480,1.647974,-0.006836,0.001831,1.014420
1066,-6.652934,-1.709010,1.525902,0.023316,0.014893,1.033219
1067,-6.897078,0.732433,2.197299,0.010132,0.012573,1.015030
1068,-5.798428,1.586938,2.258335,-0.006470,0.010864,1.009049
1069,-6.164645,1.770047,2.502480,0.018799,-0.010620,1.024918
1070,-2.868696,2.807660,2.380407,-0.001099,0.006714,1.010758
1071,-3.234913,2.502480,2.441444,-0.010864,0.021118,0.993790
1072,-3.845274,1.831083,2.136263,0.002319,0.007080,1.011002
1073,-2.868696,1.953155,1.892119,-0.003418,0.006104,0.996475
1074,-2.441444,1.342794,1.586938,-0.004517,0.019654,0.999649
1075,-3.845274,0.793469,1.647974,-0.005859,0.006836,0.987808
1076,-3.356985,0.610361,1.342794,-0.011719,0.011841,0.982803
1077,-4.821851,0.488289,1.525902,-0.007080,0.010254,0.983780
1078,-6.469825,2.929732,-1.525902,0.087892,-0.217655,0.688243
1079,-4.028382,2.197299,0.061036,0.005005,-0.016846,1.082048
1080,-8.361944,0.854505,2.136263,-0.008789,0.008789,0.973892
1081,-7.507439,0.244144,2.014191,-0.005859,-0.010254,0.993912
1082,-7.019150,-0.061036,1.831083,-0.007935,-0.011109,1.018570
1083,-6.103609,-0.488289,2.136263,-0.003174,-0.009033,1.000259
1084,-6.042573,-1.098650,2.014191,-0.008301,-0.006348,0.986465
1085,-4.577707,-1.342794,2.014191,-0.027344,0.012940,0.965469
1086,-6.347753,-2.502480,1.159686,-0.111696,0.112306,1.246967
1087,-6.164645,-4.394598,2.502480,-0.006958,-0.005127,0.993545
1088,-10.193027,-6.225681,1.892119,0.002197,-0.013794,0.955581
1089,-10.803388,-5.981537,1.464866,-0.000977,-0.018311,1.004166
1090,-10.070954,-5.493248,1.586938,0.009400,-0.015259,1.017227
1091,-9.643702,-4.760815,1.709010,0.004883,-0.044800,0.976699
1092,-10.559243,-5.249104,2.197299,-0.008667,-0.013062,0.997574
1093,-12.390326,-6.469825,2.746624,0.004761,-0.003540,0.995010
1094,-12.634470,-6.836042,2.746624,-0.017823,0.023438,1.002823
1095,-13.672084,-8.484016,2.441444,-0.014160,0.004517,0.959854
1096,-15.991455,-10.131991,2.014191,0.000855,0.000977,0.967910
1097,-19.775692,-10.498207,1.770047,0.018311,-0.015015,0.956069
1098,-22.217136,-10.803388,1.586938,0.004517,0.001465,0.980972
1099,-26.611734,-11.108568,1.892119,0.001343,-0.001465,0.989639
1100,-31.006332,-10.559243,2.136263,0.012940,-0.044556,1.004288
1101,-30.029755,-9.277485,2.258335,0.009400,-0.032837,1.034195
1102,-29.419394,-8.667124,2.380407,0.017945,-0.063111,1.009903
1103,-26.733806,-8.178836,2.746624,0.018555,-0.066407,1.005264
1104,-25.757229,-7.629511,3.051804,0.023316,-0.055299,1.011856
1105,-26.733806,-7.568475,3.479057,0.024903,-0.061646,1.025162
1106,-21.484703,-6.775006,4.150454,0.041260,0.000855,0.991836
1107,-31.921874,-6.713970,3.906310,-0.035645,-0.012451,0.967788
1108,-35.217823,-9.704738,3.051804,0.038575,-0.020142,0.990127
1109,-42.603189,-5.432212,0.427253,0.026856,-0.053346,1.046036
1110,-41.199359,-4.150454,-0.915541,0.012451,-0.084840,1.044450
1111,-36.499580,-2.563516,-2.685588,0.011719,-0.083009,1.016373
1112,-35.400931,-2.441444,-3.601129,-0.035279,-0.046265,1.000259
1113,-38.879988,-2.990768,-11.474784,-0.071901,-0.017578,1.026993
1114,-46.997787,-6.164645,-24.658579,-0.046754,-0.057740,1.012833
1115,-58.411536,-0.732433,-36.926833,0.037476,-0.077760,0.883192
1116,-58.106355,0.976577,-35.339895,0.129152,-0.272709,1.024674
1117,-46.997787,-5.004959,-13.305867,0.174319,-0.197147,1.092180
1118,-48.767834,-1.831083,-5.310140,0.098390,-0.059693,0.988540
1119,-65.857939,4.821851,-8.728161,0.056519,0.212161,0.924208
1120,-112.123293,14.038300,-14.953841,0.142580,0.257694,0.835340
1121,-156.191348,20.996414,-7.019150,-0.018067,0.217166,0.757458
1122,-180.727855,-0.061036,2.014191,-0.252567,0.397101,0.856214
1123,-230.655375,-32.043946,-8.972305,-0.287358,0.449836,1.266011
1124,-416.205081,-26.184482,-29.724575,0.121706,0.627939,1.827543
1125,-593.514916,-97.352560,8.850233,-0.829114,-0.105226,1.342550
1126,-696.971084,-179.995422,29.419394,-0.180911,-0.086061,1.334127
1127,-755.016403,-165.957122,84.962234,0.267460,-0.302495,1.999969
1128,-901.258869,-89.662013,211.123827,-1.240253,0.544686,1.999969
1129,-291.325246,-47.486076,68.482490,-0.806775,-0.667613,1.999969
1130,323.796445,51.575494,-26.977951,-0.351812,0.812879,1.999969
1131,276.920729,74.647135,-49.317159,0.173831,0.645396,-0.181521
1132,8.728161,31.677729,0.244144,-0.514656,0.440070,0.145754
1133,-121.889067,-38.513771,84.290837,-0.094362,0.137575,-0.091798
1134,-82.642863,-28.442817,49.256123,0.045045,-0.024781,0.775280
1135,63.416495,-4.455634,19.043259,-0.130495,0.461433,0.908705
1136,48.767834,-1.647974,17.334249,-0.018433,0.613657,0.795422
1137,17.761501,0.061036,17.761501,-0.148562,0.448981,0.974014
1138,70.496681,7.019150,12.756542,-0.206180,0.414557,0.988907
1139,104.249638,8.850233,12.939651,-0.242924,0.497322,0.866957
1140,98.390173,5.249104,19.104295,-0.268193,0.459113,1.018326
1141,121.705959,8.178836,23.804074,-0.257939,0.386969,1.264302
1142,155.764096,15.869383,27.405203,-0.251347,0.364996,1.436667
1143,181.277180,19.775692,32.532235,-0.241947,0.301884,1.505272
1144,212.588693,23.193713,37.048905,-0.231083,0.195071,1.475608
1145,242.496376,23.559930,40.711070,-0.144411,0.100710,1.325093
1146,263.859007,20.508125,41.809720,-0.018677,0.041627,1.129900
1147,273.929961,16.906996,37.659266,0.160403,0.026734,1.034562
1148,277.653162,15.747311,26.977951,0.313237,0.003296,0.988907
1149,277.775235,15.869383,11.047532,0.393317,-0.058717,0.923842
1150,271.671626,20.874342,-8.728161,0.470588,-0.167849,0.790539
1151,255.130846,31.250477,-28.503853,0.466194,-0.241459,0.777722
1152,231.387808,31.799802,-42.359045,0.313237,-0.262211,1.086564
1153,224.124514,20.141909,-52.368963,0.228031,-0.246464,1.326070
1154,229.678798,14.526589,-61.951629,0.173709,-0.194217,1.641382
1155,223.819333,18.982223,-66.773480,0.040162,-0.234257,1.999969
1156,228.519112,33.325704,-67.994202,-0.118288,-0.418219,1.999969
1157,246.097505,44.800488,-64.759289,-0.226688,-0.568002,1.980255
1158,249.149310,55.115587,-57.679103,-0.276738,-0.654673,1.797269
1159,236.942092,52.735180,-45.838102,-0.311894,-0.739635,1.782010
1160,234.866865,48.767834,-35.156786,-0.246708,-0.753796,1.908232
1161,232.974746,51.209277,-27.222095,-0.199222,-0.738048,1.999969
1162,236.514839,55.176623,-20.386053,-0.110597,-0.736950,1.999969
1163,248.661021,57.679103,-17.700465,0.061158,-0.710948,1.974640
1164,249.637598,61.097124,-18.738079,0.199222,-0.701183,1.749783
1165,240.299077,61.402304,-20.202945,0.265141,-0.744884,1.629419
1166,233.829252,58.899825,-20.935378,0.255009,-0.780652,1.479393
1167,222.842756,51.636530,-20.508125,0.214725,-0.843153,1.332296
1168,208.438239,44.678416,-19.287404,0.178836,-0.917861,1.200702
1169,191.836423,40.711070,-19.409476,0.183474,-0.992081,1.057877
1170,166.201267,40.039673,-23.559930,0.246586,-1.119036,1.005142
1171,138.368811,44.617380,-31.921874,0.400519,-1.300313,1.079118
1172,113.649195,58.106355,-50.049592,0.571054,-1.601953,1.066667
1173,100.404364,78.614481,-70.984970,0.578500,-1.950958,0.763684
1174,81.727321,90.699626,-78.553445,0.426032,-2.000031,0.286503
1175,53.589685,74.830243,-64.454108,0.170901,-2.000031,-0.146853
1176,13.183795,28.747997,-35.156786,-0.104372,-1.806668,-0.181888
1177,-26.245518,-25.696193,0.000000,-0.300664,-1.510765,0.232547
1178,-47.669184,-58.228428,32.227054,-0.380499,-1.224750,0.741955
1179,-52.368963,-62.378882,55.237659,-0.424201,-1.209979,-0.531258
1180,-162.355993,-117.311360,69.459068,0.027710,-0.988296,-0.614267
1181,-236.148623,-150.209812,70.618753,0.137331,-0.917983,0.853040
1182,-130.006867,-68.543526,53.589685,-0.018067,0.444953,1.538109
1183,-150.331884,-64.148928,49.134051,-0.187869,0.932998,1.412497
1184,-246.402686,-95.765621,73.853666,0.362554,0.318242,0.985122
1185,-275.822080,-88.929580,65.430686,0.820813,-0.394049,1.311543
1186,-240.787366,-51.880674,44.922560,0.974990,-0.222049,1.999969
1187,-199.526970,-43.579767,24.109255,1.178851,-0.003906,1.999969
1188,-137.331197,-3.845274,-7.141222,0.478401,-0.206912,1.999969
1189,-96.192874,2.319371,-14.892805,-0.610117,-0.135988,1.192035
1190,-137.941558,-36.316472,21.911955,-1.387961,-0.328618,1.650660
1191,-98.817426,-94.422828,50.965133,-0.462654,-0.229374,1.174578
1192,-74.830243,-110.353246,39.124132,1.225360,0.252445,1.999969
1193,-68.360418,-47.302968,13.305867,1.060563,-0.113649,1.609400
1194,-36.560616,-12.451362,-2.014191,-0.608164,0.021118,1.144060
1195,-55.909056,-49.134051,14.526589,-0.226810,0.004639,1.184955
1196,-27.710384,-46.326390,5.065995,0.520760,0.095094,1.289326
1197,-32.654307,-19.226368,-1.770047,0.148440,-0.008667,1.280171
1198,-28.931106,-16.845960,2.990768,-0.073976,-0.057740,1.190692
1199,-0.915541,-17.456321,-1.403830,0.087648,0.093996,1.043961
1200,-16.357671,-14.465553,-0.732433,-0.008423,0.061280,0.952041
1201,-19.409476,-14.221408,-0.366217,0.027588,0.023926,1.035904
1202,-15.747311,-10.193027,-0.122072,0.109499,-0.002930,1.078996
1203,-13.855192,-2.502480,1.892119,0.141360,0.032227,1.125505
1204,-8.300908,4.638743,4.089418,0.072877,-0.003418,1.071916
1205,-5.371176,7.446403,4.699779,0.009155,0.027100,1.009415
1206,-8.850233,6.836042,5.615320,0.017090,0.064820,0.973159
1207,-9.033341,6.164645,4.821851,0.001343,0.000000,0.928725
1208,-13.916228,5.188067,4.272526,0.014038,-0.028077,0.895766
1209,-16.296635,3.601129,3.356985,-0.009522,0.025391,0.964736
1210,-17.761501,0.854505,2.380407,-0.004883,0.020630,0.976944
1211,-19.104295,-0.183108,2.014191,0.022339,0.005737,1.015518
1212,-18.616007,0.793469,1.709010,0.012818,-0.006592,1.033097
1213,-17.273213,2.014191,2.014191,0.044068,-0.025147,1.060319
1214,-13.366903,4.821851,2.197299,0.041505,-0.019654,1.057755
1215,-11.413748,6.530861,2.563516,0.028565,-0.023194,1.023575
1216,-10.498207,7.751583,2.563516,0.018067,-0.020630,1.016983
1217,-9.338521,7.873655,2.197299,0.010254,-0.003296,1.006241
1218,-10.437171,7.446403,1.831083,-0.001709,0.001343,0.975845
1219,-13.000687,6.775006,1.342794,0.000244,0.004883,0.962661
1220,-16.906996,5.981537,1.709010,-0.007691,-0.011231,0.983047
1221,-17.761501,5.188067,2.014191,0.001465,-0.023316,0.983658
1222,-19.226368,5.371176,2.502480,0.015625,-0.025757,0.986343
1223,-20.508125,5.310140,2.990768,-0.004883,-0.037354,0.986099
1224,-19.348440,4.821851,2.868696,-0.001953,-0.024781,0.991958
1225,-21.057450,3.356985,2.685588,0.000977,-0.050416,1.015152
1226,-17.883574,3.295949,2.380407,0.003052,-0.054932,1.020157
1227,-15.503166,3.173877,2.319371,0.011963,-0.066773,1.044938
1228,-11.047532,3.967346,2.136263,0.011109,-0.070924,1.021622
1229,-7.934691,3.967346,2.075227,-0.010620,-0.052735,1.000504
1230,-8.545052,2.746624,1.892119,-0.018921,-0.047486,0.972427
1231,-8.911269,0.976577,1.220722,-0.029786,-0.030518,0.946792
1232,-12.085145,-1.709010,0.305180,-0.021729,-0.029786,0.972793
1233,-14.343481,-3.295949,-0.366217,0.001953,-0.067994,1.010880
1234,-11.108568,-2.746624,-0.915541,0.003906,-0.067384,1.020035
1235,-11.352712,-2.441444,-0.732433,0.013428,-0.067506,1.021134
1236,-10.681315,-1.159686,0.000000,0.026490,-0.068116,1.000748
1237,-12.695506,-0.244144,0.671397,0.025757,-0.041871,0.984268
1238,-17.334249,0.488289,1.770047,0.011353,-0.046143,0.992203
1239,-16.662852,2.136263,1.892119,-0.005249,-0.029419,0.963394
1240,-23.376822,0.671397,2.197299,0.002441,-0.033570,0.946548
1241,-29.175250,-0.427253,2.441444,-0.014527,-0.040040,0.960952
1242,-32.776379,-0.610361,3.479057,-0.005127,-0.093751,1.004532
1243,-31.372549,-1.281758,5.004959,-0.005371,-0.114260,1.023087
1244,-26.001373,-0.793469,5.554284,-0.009766,-0.095583,1.005753
1245,-25.879301,-1.647974,6.103609,-0.068238,-0.055177,0.943374
1246,-28.686961,-5.249104,5.371176,0.027344,-0.057618,0.957046
1247,-29.724575,-6.347753,3.418021,-0.053468,-0.052125,1.009049
1248,-31.860838,-9.704738,0.549325,-0.011597,-0.058228,0.994644
1249,-36.621653,-7.751583,-3.173877,0.001099,-0.071778,0.952773
1250,-38.330663,-6.530861,-5.371176,0.002075,-0.069093,1.020157
1251,-42.236973,-5.981537,-9.399557,-0.016480,-0.087404,0.973281
1252,-46.692607,-6.713970,-11.047532,-0.059693,-0.066529,1.030411
1253,-47.364004,-7.141222,-19.592584,-0.036500,-0.108156,0.963516
1254,-61.219196,-7.385367,-34.546426,-0.047974,-0.210086,1.039445
1255,-80.323491,3.723201,-41.138323,0.053223,-0.283207,1.130877
1256,-62.989242,3.356985,-29.785611,0.142702,-0.423468,1.093156
1257,-38.086519,-6.164645,-7.934691,-0.026734,-0.046632,0.980484
1258,-56.214237,-4.577707,-19.409476,0.058350,0.045777,0.969375
1259,-82.764935,-0.061036,-13.366903,0.069459,0.015747,1.013443
1260,-110.109102,1.953155,-3.295949,0.057740,0.091554,0.822278
1261,-123.109789,1.342794,-7.873655,0.054932,0.187991,0.946548
1262,-161.074235,-2.441444,-32.532235,-0.001343,0.897353,1.309102
1263,-347.783627,8.545052,-41.626612,0.210452,0.667613,0.942519
1264,-582.467384,10.437171,8.850233,-0.076539,0.473640,1.999969
1265,-650.461585,-3.234913,33.081559,-0.097414,-0.145266,1.569726
1266,-688.426032,12.024109,32.166018,0.254276,-0.163821,1.015274
1267,-736.644541,19.409476,15.869383,0.101320,-0.940810,0.842908
1268,-878.797589,13.366903,136.659800,-1.142107,-1.776028,1.999969
1269,-514.839399,6.164645,-0.976577,-1.169329,-1.678737,1.999969
1270,18.921187,8.606088,-43.335622,-0.647959,-0.219364,1.999969
1271,-10.498207,-0.732433,-50.232700,-0.732799,0.568246,1.678126
1272,-175.417716,-29.114214,37.781338,-0.739147,0.405402,1.999969
1273,-168.459602,-80.262455,83.802548,-0.422004,-0.034668,1.999969
1274,21.118486,-63.416495,77.332723,-0.198367,0.297612,1.999969
1275,85.511559,-55.970092,69.092851,0.073487,0.636240,1.502464
1276,63.172351,-49.011978,66.407263,0.249638,0.561898,1.346456
1277,98.329137,-26.550698,45.105669,0.310674,0.443000,1.192035
1278,136.964981,-10.986496,19.531548,0.329351,0.475593,0.922744
1279,138.246738,-7.690547,0.732433,0.263432,0.381598,0.851698
1280,150.270848,-10.009918,-14.465553,0.145510,0.252079,0.837293
1281,172.426947,-16.479744,-26.367590,0.048463,0.213504,0.806897
1282,178.652628,-26.367590,-32.166018,-0.063111,0.149416,0.906386
1283,190.981918,-36.133364,-34.729534,-0.151980,0.093874,1.132830
1284,210.147250,-41.748684,-34.485389,-0.259281,0.072145,1.432029
1285,234.439612,-43.884947,-32.349126,-0.308843,0.015625,1.682643
1286,268.253605,-39.368276,-29.968719,-0.348150,-0.044923,1.748684
1287,301.152056,-31.006332,-28.259709,-0.352911,-0.135378,1.549950
1288,318.303197,-18.860151,-26.001373,-0.327642,-0.219364,1.343282
1289,325.505455,-5.676356,-23.804074,-0.291386,-0.277348,1.270771
1290,328.740368,6.591897,-21.789883,-0.253056,-0.338506,1.272236
1291,333.745327,16.296635,-20.508125,-0.208988,-0.396246,1.204120
1292,333.867399,23.620966,-20.691234,-0.113283,-0.419440,1.112932
1293,324.528878,27.588312,-21.911955,-0.035767,-0.447395,0.869520
1294,308.232242,30.273899,-28.442817,0.054322,-0.543343,0.638437
1295,278.080415,44.129091,-38.269627,0.165408,-0.557504,0.662364
1296,238.773175,57.007706,-47.547112,0.123293,-0.450568,1.162493
1297,218.631266,62.012665,-55.542840,0.119020,-0.441169,1.622339
1298,223.331044,67.444877,-63.599603,0.033448,-0.437507,1.915068
1299,228.274968,72.816052,-65.735866,-0.094484,-0.520394,1.999969
1300,229.373617,79.468986,-60.852979,-0.210208,-0.630869,1.995270
1301,228.946365,82.642863,-51.392386,-0.245487,-0.706676,1.999969
1302,227.420462,83.985657,-38.879988,-0.236942,-0.751843,1.999969
1303,237.918669,80.933852,-27.466239,-0.167849,-0.791272,1.999969
1304,263.797971,79.041733,-21.606775,-0.036744,-0.817884,1.999969
1305,275.638972,83.192187,-20.813306,0.118044,-0.823255,1.849638
1306,266.239414,87.464714,-24.048219,0.220951,-0.823011,1.538842
1307,249.088273,90.516518,-29.907683,0.238285,-0.824598,1.415427
1308,233.096819,95.399405,-36.255436,0.192996,-0.846082,1.376974
1309,215.701534,102.357519,-38.757916,0.067628,-0.927626,1.365621
1310,195.742733,99.610895,-32.654307,-0.139773,-1.068376,1.427268
1311,185.000381,79.957275,-18.982223,-0.262943,-1.315816,1.477317
1312,180.239567,56.336309,-1.342794,-0.049683,-1.700099,1.453391
1313,163.576715,45.349813,12.634470,0.377813,-2.000031,1.208881
1314,137.453269,52.857252,12.390326,0.813245,-2.000031,0.451423
1315,131.960021,73.731594,-1.159686,0.909316,-2.000031,-0.677256
1316,90.455482,64.148928,-19.531548,0.404547,-2.000031,-2.000031
1317,-77.393759,-72.693980,21.545739,0.357305,-2.000031,-2.000031
1318,-224.063478,-198.611429,64.515145,0.553964,-1.947417,-0.533333
1319,-239.810788,-242.801556,49.073014,0.860121,-1.907988,0.748791
1320,-222.171359,-156.130312,30.212863,0.313970,-0.402350,1.686793
1321,-157.412070,-78.553445,10.742351,-0.356695,0.500740,1.999969
1322,-199.160754,-78.126192,36.438544,-0.266972,0.535409,1.386862
1323,-301.396201,-106.019684,56.702525,0.410163,-0.259281,1.453147
1324,-277.103838,-82.887007,52.124819,0.708019,-0.562997,1.613916
1325,-218.936446,-75.379568,32.593271,0.958633,-0.235599,1.999969
1326,-189.333944,-23.132677,23.315785,0.201907,-0.344854,1.999969
1327,-101.991302,-42.603189,23.926146,-0.917250,-0.200198,1.999969
1328,-99.671931,-80.933852,44.556344,-0.622324,-0.223148,1.297993
1329,-79.102770,-109.803922,33.264668,1.375509,0.303105,1.999969
1330,-68.848707,-39.002060,5.493248,1.255024,0.101564,1.622950
1331,-70.191501,4.638743,-3.051804,-0.518929,-0.001587,1.235126
1332,-78.614481,-33.752956,15.442130,-0.378058,-0.087282,1.121843
1333,-40.527962,-35.156786,-1.525902,0.563851,-0.082765,1.531029
1334,-28.259709,-13.183795,-2.136263,-0.040894,-0.039796,1.106096
1335,-29.541466,-22.705425,3.601129,-0.010498,-0.093996,1.112078
1336,-7.324331,-18.493935,0.305180,0.167483,0.039551,1.142718
1337,-14.526589,-10.864424,0.244144,0.017090,0.041871,0.942031
1338,-21.484703,-12.573434,1.403830,-0.047608,0.007080,0.979507
1339,-15.686275,-14.770733,-1.342794,0.018189,0.020508,1.016983
1340,-19.165332,-12.390326,0.244144,0.106081,-0.029297,0.999161
1341,-22.156100,-7.080186,1.770047,0.072511,-0.074098,1.070329
1342,-12.878614,-3.173877,2.441444,0.058839,-0.009522,1.047623
1343,-15.625238,-1.647974,3.906310,0.043458,-0.056764,1.045670
1344,-11.169604,-0.427253,4.028382,0.043091,0.012451,1.064225
1345,-6.164645,0.305180,3.418021,0.032471,-0.037842,0.965225
1346,-10.009918,-0.976577,3.234913,-0.013672,0.023072,0.963882
1347,-13.488975,-4.760815,2.014191,-0.045655,0.066285,1.101823
1348,-12.329290,-5.188067,2.197299,0.039673,0.014893,1.009537
1349,-15.136950,-5.615320,1.525902,-0.007691,-0.012329,1.013199
1350,-13.061723,-5.859464,0.366217,0.053223,-0.031739,1.018204
1351,-11.657893,-4.150454,0.549325,0.018189,-0.011841,1.022477
1352,-10.193027,-3.723201,1.159686,0.037842,0.024903,1.041642
1353,-12.634470,-2.624552,1.403830,0.050050,-0.056641,1.002579
1354,-10.559243,-1.525902,1.464866,0.051026,-0.032471,1.006363
1355,-13.183795,-0.915541,1.220722,0.026978,0.014038,1.016617
1356,-13.244831,-0.915541,1.159686,0.030640,-0.020020,0.981704
1357,-14.526589,-1.464866,0.671397,0.025391,-0.021851,0.976455
1358,-16.601816,-2.380407,0.000000,0.019776,-0.033936,0.984024
1359,-16.968032,-3.234913,-0.732433,0.028687,-0.034058,0.999527
1360,-17.700465,-3.479057,-0.610361,0.036744,-0.048096,1.008438
1361,-17.944610,-2.807660,-0.305180,0.036500,-0.059693,1.013443
1362,-14.709697,-2.563516,0.305180,0.036866,-0.068360,0.999771
1363,-14.038300,-2.502480,0.793469,0.038819,-0.047120,1.007218
1364,-15.197986,-2.746624,0.671397,0.032349,-0.075929,1.010880
1365,-12.817578,-2.807660,0.793469,0.047974,-0.069825,1.028580
1366,-16.845960,-1.831083,0.488289,0.048096,-0.058106,1.037858
1367,-10.864424,-0.549325,1.342794,0.050660,-0.083131,1.032120
1368,-8.117800,0.610361,1.709010,0.054444,-0.078981,0.998795
1369,-7.446403,1.770047,3.356985,0.060182,-0.076173,1.048722
1370,-6.775006,2.990768,4.028382,0.045655,-0.080934,0.991226
1371,-5.981537,3.723201,4.699779,0.059449,-0.056519,0.999649
1372,-8.484016,4.272526,5.065995,0.043458,-0.057252,0.994156
1373,-9.399557,4.516670,4.699779,0.030518,-0.048096,0.987686
1374,-10.620279,3.479057,3.418021,0.022339,-0.054322,0.990127
1375,-12.512398,2.258335,2.319371,0.010864,-0.059205,0.974380
1376,-14.160372,0.610361,0.854505,0.012085,-0.066285,0.969741
1377,-18.982223,-0.183108,0.000000,-0.009155,-0.047486,0.931899
1378,-19.775692,-2.258335,-1.098650,-0.000488,-0.052369,0.996475
1379,-22.278172,-4.028382,-2.441444,0.027710,-0.058961,0.978531
1380,-28.381781,-4.272526,-3.112840,0.034058,-0.086427,1.000381
1381,-27.893492,-3.784237,-2.258335,0.047486,-0.112795,1.026505
1382,-25.268940,-1.709010,0.671397,0.075319,-0.096071,1.021622
1383,-30.090791,2.319371,5.615320,0.077638,-0.094728,1.019303
1384,-33.142596,3.540093,8.361944,0.012573,-0.123537,1.004166
1385,-24.719615,3.418021,8.484016,0.044068,-0.058473,0.996109
1386,-34.302281,3.845274,6.836042,0.014649,-0.060792,0.993423
1387,-43.335622,2.502480,5.493248,-0.002808,-0.093385,0.969741
1388,-38.269627,0.183108,3.356985,-0.031373,-0.076783,1.000137
1389,-38.513771,0.183108,-5.004959,-0.021607,-0.091798,0.971939
1390,-35.889220,0.854505,-12.085145,-0.007568,-0.199832,0.920180
1391,-43.152514,5.432212,-28.320745,-0.015259,-0.166262,1.003433
1392,-47.974365,7.629511,-39.002060,0.117556,-0.262455,1.080705
1393,-21.484703,5.310140,-19.592584,0.192020,-0.348760,1.010147
1394,-7.995727,6.775006,0.732433,0.148440,-0.157229,1.145892
1395,-14.343481,11.230640,5.065995,0.063600,-0.052003,1.042252
1396,-40.466926,18.371862,2.075227,0.010498,0.136477,0.942763
1397,-88.014038,22.217136,-9.216449,0.024414,0.094850,0.967544
1398,-122.621500,23.559930,-0.854505,0.058961,0.128298,0.801404
1399,-182.558938,28.992142,1.770047,-0.032715,0.465339,0.062867
1400,-169.680324,-15.075914,9.582666,-0.066407,0.632944,1.241352
1401,-397.955291,-18.432898,-33.386740,-0.024903,0.148318,1.627832
1402,-558.175021,-51.697566,53.101396,-0.503426,0.350591,1.831693
1403,-651.194018,-104.188602,49.500267,-0.183230,-0.222171,1.023575
1404,-718.455787,-106.446937,72.205692,0.125856,-0.248173,1.254170
1405,-782.482643,-106.813153,80.811780,0.323491,-0.580941,1.373556
1406,-956.252384,-96.009766,154.848554,-0.251347,-1.721096,1.999969
1407,-389.471275,-20.630198,50.415808,-0.918349,-1.122698,1.999969
1408,241.397726,37.354086,-38.513771,-0.378302,0.763195,1.999969
1409,259.708553,52.063783,-49.622339,-0.496223,1.054459,1.770413
1410,79.163806,34.058137,-7.751583,-0.653330,0.328374,1.112444
1411,-38.818952,-41.443503,70.740826,-0.377569,0.262211,0.493782
1412,-3.967346,-48.340581,79.041733,-0.023316,0.238773,0.424689
1413,105.775540,-32.349126,50.659953,-0.088136,0.291386,0.474250
1414,95.887694,-31.250477,42.481117,0.128908,0.449348,0.308354
1415,51.270314,-27.710384,37.048905,0.182620,0.427619,0.561654
1416,75.318532,-18.371862,20.080873,0.170901,0.393561,0.748669
1417,111.818112,-14.892805,2.075227,0.132448,0.478889,0.829114
1418,115.968566,-23.193713,-8.606088,0.062013,0.454231,1.019303
1419,136.842908,-30.395972,-17.822538,-0.017456,0.347539,1.250874
1420,175.173571,-31.250477,-26.428626,-0.083864,0.266117,1.383688
1421,201.602197,-27.466239,-31.860838,-0.151247,0.165652,1.410666
1422,222.293431,-18.127718,-33.936065,-0.228397,0.014771,1.404562
1423,244.022278,-6.286717,-32.532235,-0.280766,-0.113527,1.303731
1424,259.281300,5.371176,-27.588312,-0.321294,-0.189700,1.227192
1425,264.591440,11.596857,-18.982223,-0.330694,-0.265751,1.260517
1426,271.793698,15.197986,-8.911269,-0.280034,-0.307256,1.292378
1427,279.118029,14.526589,-2.807660,-0.109377,-0.361578,1.320821
1428,284.916457,16.296635,-3.784237,0.039796,-0.413458,1.392477
1429,294.438087,25.085832,-10.681315,0.118776,-0.394049,1.384665
1430,291.447318,27.649348,-18.982223,0.198367,-0.395514,1.403220
1431,287.785153,30.518044,-29.297322,0.248661,-0.443610,1.485863
1432,283.573663,34.241245,-40.772107,0.180911,-0.550912,1.520165
1433,278.873884,37.232013,-49.378195,0.074586,-0.633555,1.467796
1434,272.892348,40.222782,-54.505226,-0.022705,-0.676036,1.379782
1435,259.891661,45.593957,-56.458381,-0.097902,-0.700328,1.306538
1436,240.177005,53.650721,-55.848020,-0.115969,-0.706188,1.254536
1437,218.387121,60.852979,-53.833829,-0.092531,-0.634287,1.406516
1438,198.123140,64.148928,-51.270314,-0.024292,-0.554696,1.786893
1439,192.874037,64.148928,-51.697566,0.071290,-0.515267,1.999969
1440,208.438239,67.811093,-56.641489,0.187015,-0.534920,1.999969
1441,229.251545,77.821012,-65.003433,0.258061,-0.572885,1.999969
1442,235.049973,88.685435,-71.900511,0.257939,-0.656260,1.886259
1443,232.364385,92.347601,-74.708171,0.236454,-0.737560,1.632227
1444,226.504921,90.943771,-75.135424,0.231327,-0.774670,1.420676
1445,211.551080,84.779126,-73.853666,0.268803,-0.800916,1.360983
1446,197.146563,77.882048,-72.999161,0.295048,-0.840223,1.378927
1447,188.845655,72.266728,-73.975738,0.310430,-0.915053,1.362692
1448,180.483711,70.313573,-76.722362,0.292485,-1.025895,1.270283
1449,167.483024,70.557717,-77.393759,0.238285,-1.197040,1.187518
1450,151.613642,74.586099,-75.806821,0.211551,-1.453758,1.092790
1451,135.194934,80.384527,-70.496681,0.172610,-1.762844,0.961685
1452,115.663386,86.060884,-60.791943,0.150393,-2.000031,0.682506
1453,106.080720,81.788357,-46.631571,0.085939,-2.000031,0.185428
1454,87.159533,59.388113,-21.423667,-0.008179,-1.972808,-0.381231
1455,34.607462,13.733120,11.413748,-0.057740,-1.677150,-0.540169
1456,-21.423667,-34.912642,41.687648,-0.042725,-1.356222,-0.034302
1457,-52.368963,-64.209964,63.599603,0.002441,-1.046647,0.687510
1458,-57.373922,-71.778439,75.318532,-0.079713,-0.804944,1.122332
1459,-149.172198,-149.233234,71.961547,0.296025,-1.309346,-0.345220
1460,-181.826505,-185.915923,79.652094,0.712291,-0.114748,0.821790
1461,-83.924620,-114.503700,48.279545,0.426276,0.913710,1.717922
1462,-106.385901,-72.510872,40.588998,-0.007080,1.187518,0.485603
1463,-268.925002,-105.653468,60.547799,0.407477,0.325566,-0.102052
1464,-316.777295,-94.300755,54.749371,0.708995,-0.460945,0.952529
1465,-270.695048,-66.529335,40.833143,0.947646,-0.167605,1.999969
1466,-209.109636,-32.898451,12.512398,1.088396,-0.120729,1.999969
1467,-131.898985,16.601816,-15.930419,0.378302,-0.388067,1.999969
1468,-81.361105,22.827497,-16.418708,-0.546517,-0.098268,1.999969
1469,-105.897612,-1.647974,19.470512,-1.017594,-0.531868,1.913603
1470,-41.931792,-40.650034,33.936065,-0.295781,-0.145510,0.803113
1471,-48.035401,-60.303655,36.682689,0.295659,0.382452,1.309834
1472,-78.187228,-55.970092,35.278859,0.279423,0.011231,1.426780
1473,-45.716030,-48.340581,20.630198,-0.024170,0.098756,1.511742
1474,-48.157473,-50.598917,18.432898,-0.036133,0.098756,1.125139
1475,-46.631571,-47.913329,11.291676,0.153689,0.189578,1.232441
1476,-58.838788,-39.490349,5.371176,0.098146,0.053468,1.015885
1477,-58.167391,-34.424353,3.112840,0.048341,0.069215,1.235248
1478,-51.331350,-29.541466,-1.709010,0.092287,-0.086793,1.169818
1479,-36.133364,-17.578393,-3.601129,0.158694,0.008667,1.235615
1480,-35.889220,-8.667124,1.403830,0.048951,0.016846,1.088762
1481,-28.076600,-1.953155,0.671397,0.125978,0.021729,1.109270
1482,-27.710384,4.272526,2.075227,0.053346,-0.014160,1.118914
1483,-18.554971,9.460594,2.197299,0.094118,0.000610,1.094987
1484,-17.395285,15.381094,3.418021,0.040040,-0.007691,1.065812
1485,-13.305867,15.625238,3.906310,-0.045655,-0.003174,1.012955
1486,-10.864424,12.451362,3.112840,-0.001587,0.019043,0.991714
1487,-12.390326,10.803388,2.319371,-0.049073,0.006470,0.983536
1488,-11.291676,6.836042,1.159686,-0.040650,0.006226,0.996597
1489,-10.986496,4.882887,0.915541,-0.012451,-0.002564,1.019669
1490,-8.545052,4.882887,1.098650,-0.015747,-0.017945,1.035904
1491,-5.615320,5.188067,1.647974,-0.010742,-0.011475,1.018936
1492,-4.272526,4.943923,2.685588,-0.027344,-0.001709,0.980728
1493,-4.516670,3.967346,3.234913,-0.017212,0.001099,0.994888
1494,-4.943923,2.990768,3.723201,-0.025879,-0.005371,0.989273
1495,-4.272526,1.709010,3.784237,-0.027710,0.007324,0.973281
1496,-5.737392,-0.244144,3.418021,-0.026734,0.005982,0.988052
1497,-6.286717,-1.709010,2.746624,-0.029541,0.011475,0.981827
1498,-7.995727,-3.295949,2.380407,-0.026001,0.000732,0.961807
1499,-8.728161,-4.943923,1.525902,-0.032471,0.002564,0.971328
1500,-11.657893,-5.737392,0.000000,0.038575,-0.036378,0.896376
1501,-8.850233,-6.408789,0.244144,-0.018799,-0.026123,1.086442
1502,-9.643702,-7.080186,0.854505,-0.004517,-0.020752,1.015396
1503,-6.958114,-6.713970,0.732433,-0.003174,-0.034424,0.997086
1504,-3.601129,-6.652934,0.000000,-0.010742,-0.008057,0.982925
1505,-7.385367,-8.422980,0.000000,-0.034913,-0.007813,0.960586
1506,-8.789197,-9.094377,-0.793469,0.082277,-0.050904,0.816541
1507,-6.042573,-10.681315,-0.915541,-0.034302,0.005493,1.065080
1508,-9.765774,-12.878614,-0.427253,-0.018067,-0.002075,0.964614
1509,-10.925460,-13.794156,-0.427253,0.021729,-0.023682,0.990005
1510,-10.620279,-13.244831,-1.220722,0.002564,-0.018555,0.977554
1511,-13.244831,-13.488975,-0.793469,0.020996,-0.028199,1.024186
1512,-13.305867,-11.474784,-0.122072,0.038697,-0.062623,1.033219
1513,-9.948882,-8.728161,0.366217,0.015259,-0.042725,1.045426
1514,-8.178836,-7.202258,0.854505,0.015259,-0.030762,0.998306
1515,-8.789197,-6.530861,0.854505,-0.003418,-0.012696,0.973892
1516,-10.864424,-7.568475,0.549325,-0.003540,-0.003174,0.951919
1517,-15.991455,-9.887846,-0.244144,-0.013184,0.009400,0.921523
1518,-21.972992,-12.512398,-0.915541,0.012573,-0.001099,0.945327
1519,-27.832456,-13.183795,-0.549325,0.024170,-0.026368,0.999405
1520,-28.992142,-11.963073,-0.366217,0.029908,-0.085695,1.011734
1521,-23.437858,-10.070954,0.671397,0.049683,-0.087160,0.920912
1522,-25.818265,-8.300908,1.342794,0.046387,-0.073243,0.998428
1523,-27.405203,-7.202258,2.685588,0.039673,-0.067750,1.043473
1524,-26.123445,-3.540093,3.356985,0.064210,-0.086061,1.058366
1525,-22.278172,0.183108,4.577707,0.036988,-0.047364,1.010880
1526,-25.329976,2.990768,9.399557,0.051759,-0.037354,0.997452
1527,-37.048905,3.540093,11.413748,-0.003174,-0.082277,0.983902
1528,-25.818265,3.601129,10.070954,0.008789,-0.027710,0.999649
1529,-35.034714,2.624552,7.263294,-0.021363,-0.023072,0.975967
1530,-41.992828,-0.427253,4.394598,-0.022461,-0.028931,0.964126
1531,-41.260395,-2.441444,-0.671397,-0.012696,-0.048341,0.985855
1532,-45.532921,-4.577707,-6.286717,-0.038331,-0.055299,1.009049
1533,-50.659953,-5.554284,-13.122759,0.002808,-0.116579,1.044572
1534,-48.645762,-5.493248,-21.362631,-0.055299,-0.189334,1.176654
1535,-59.754330,9.216449,-40.772107,0.032837,-0.210452,1.034684
1536,-47.364004,7.568475,-35.645075,0.114137,-0.397589,1.036027
1537,-24.902724,-0.488289,-12.268254,0.179080,-0.237675,1.026871
1538,-14.587625,-0.793469,2.380407,0.092897,-0.025757,0.979507
1539,-30.762188,4.882887,-2.624552,-0.011353,0.179324,0.996841
1540,-82.398718,11.657893,-16.601816,0.099245,0.209720,0.978408
1541,-127.748531,23.010605,-18.249790,0.053223,0.199710,0.888563
1542,-152.956436,12.451362,-16.235599,-0.116701,0.124147,0.568124
1543,-149.416342,-23.132677,-13.183795,-0.190921,0.702770,1.159808
1544,-296.330205,-17.395285,-40.650034,0.223026,1.313619,1.238666
1545,-518.135348,-20.813306,-48.218509,-0.381109,0.078614,1.440696
1546,-625.680934,-85.938811,6.591897,-0.209720,0.215213,1.159442
1547,-718.699931,-147.890440,21.667811,-0.018311,-0.012696,1.123674
1548,-808.484016,-162.294957,41.260395,0.077760,-0.163333,0.816297
1549,-960.708019,-159.975586,117.433433,0.085939,-2.000031,1.999969
1550,-603.219654,-71.717403,138.735027,-1.550439,-0.822522,1.999969
1551,189.639124,-38.025483,-46.997787,-0.386969,0.334722,1.999969
1552,346.623941,6.103609,-41.992828,-0.612192,1.026505,1.999969
1553,126.894026,20.691234,-42.969406,-0.403082,0.712291,1.292744
1554,-16.113527,-25.696193,46.936751,-0.442756,0.388556,0.229007
1555,-44.373236,-39.429313,53.528649,-0.011231,0.187381,0.184573
1556,83.985657,-14.526589,21.667811,-0.141726,0.248539,0.425055
1557,91.432059,-11.291676,10.864424,0.055909,0.386114,0.301762
1558,30.212863,-8.545052,11.169604,0.017212,0.390753,0.693004
1559,53.894865,2.319371,2.380407,-0.008789,0.333013,1.028336
1560,104.676890,12.634470,-8.361944,-0.026001,0.447395,1.043595
1561,110.353246,8.056764,-11.291676,-0.068605,0.455085,1.153460
1562,130.617227,5.798428,-13.733120,-0.090211,0.382818,1.364767
1563,171.450370,11.535821,-17.456321,-0.107668,0.379400,1.488182
1564,198.916609,20.386053,-19.165332,-0.116091,0.319463,1.583276
1565,224.917983,33.325704,-19.043259,-0.120851,0.216678,1.756008
1566,262.333104,44.312200,-17.273213,-0.138308,0.064210,1.715480
1567,300.480659,48.462654,-14.404517,-0.108888,-0.050904,1.510887
1568,321.355001,43.762875,-10.131991,-0.044556,-0.159670,1.225727
1569,330.510414,35.278859,-7.507439,0.063722,-0.207523,1.002090
1570,330.632486,27.527276,-10.131991,0.199344,-0.196292,0.873671
1571,322.392615,24.719615,-18.738079,0.291630,-0.221195,0.756847
1572,302.006561,33.997101,-32.776379,0.386603,-0.397955,0.558724
1573,269.901579,63.416495,-48.523690,0.431647,-0.492439,0.444953
1574,233.951324,86.305028,-59.632258,0.349248,-0.394049,0.678111
1575,200.259403,83.863584,-67.689021,0.181033,-0.342779,1.067643
1576,187.014572,79.041733,-69.214923,0.069703,-0.259770,1.962554
1577,177.920195,83.863584,-64.515145,0.018067,-0.322271,1.999969
1578,208.926528,94.666972,-56.885634,-0.040650,-0.527474,1.999969
1579,273.807889,100.831617,-51.514458,-0.095949,-0.828870,1.999969
1580,288.273442,110.475319,-41.138323,-0.105837,-0.913710,1.766140
1581,242.862593,96.803235,-21.118486,-0.125978,-0.955703,1.885893
1582,246.585794,81.727321,-7.263294,-0.015503,-1.050065,1.999969
1583,264.042115,84.901198,-7.385367,0.100343,-1.146990,1.448386
1584,233.463035,105.226215,-7.324331,0.281621,-1.079728,1.286885
1585,187.991150,116.823072,-8.300908,0.299443,-1.128313,1.592065
1586,186.343175,113.466087,-9.155413,0.301396,-1.113298,1.914824
1587,199.893187,93.751431,-8.484016,0.417487,-1.135515,1.824857
1588,212.954910,72.693980,-9.826810,0.569711,-1.158465,1.555077
1589,209.842069,58.167391,-14.343481,0.650767,-1.208759,1.133074
1590,191.165026,47.058824,-20.935378,0.592172,-1.285908,0.869642
1591,167.421988,34.851606,-25.391012,0.424323,-1.410178,0.789441
1592,147.035935,21.484703,-26.428626,0.260258,-1.558618,0.784192
1593,130.006867,13.183795,-25.024796,0.157595,-1.692775,0.719249
1594,111.635004,12.756542,-21.850919,0.102296,-1.796414,0.519783
1595,84.351873,17.334249,-15.564202,-0.021485,-1.871122,0.340215
1596,51.819638,20.935378,-1.831083,-0.169802,-1.877470,0.212406
1597,19.348440,16.906996,19.165332,-0.315679,-1.782376,0.178225
1598,-14.099336,2.868696,44.312200,-0.585458,-1.787869,0.071778
1599,-130.373083,-80.018311,67.322805,-0.131350,-1.995636,-1.237201
1600,-232.913710,-163.942931,85.206378,0.387823,-1.068254,0.614633
1601,-92.591745,-77.576867,53.711757,0.166506,0.318242,1.660792
1602,-73.853666,-63.965820,37.537194,-0.364263,1.225605,1.234638
1603,-197.940032,-119.020371,78.248264,0.084230,0.723278,0.221927
1604,-320.256352,-123.537041,96.375982,0.695933,-0.417975,0.644663
1605,-268.863966,-86.488136,73.670558,1.030777,-0.418463,1.999969
1606,-196.597238,-63.416495,45.288777,1.521386,0.028565,1.999969
1607,-150.087739,-28.198672,10.193027,1.082170,-0.021485,1.999969
1608,-97.291524,3.662165,-11.169604,0.003418,-0.030274,1.451682
1609,-124.208438,18.249790,10.620279,-1.304341,-0.032593,1.649683
1610,-147.035935,-49.683375,53.528649,-1.025406,-0.557015,1.520531
1611,-60.303655,-90.638590,42.420081,0.575448,0.112428,1.998322
1612,-58.289464,-64.454108,19.043259,1.307637,0.241581,1.999969
1613,-48.828870,-11.841001,8.361944,-0.130495,0.123049,0.853773
1614,-74.769207,-29.053178,11.596857,-0.443610,0.097536,1.230365
1615,-65.980011,-48.279545,7.629511,0.287480,-0.010986,1.189837
1616,-36.926833,-25.268940,-5.554284,0.278325,0.011475,1.342061
1617,-50.415808,-18.371862,-1.281758,-0.120729,-0.103761,1.177508
1618,-17.151141,-22.400244,-2.990768,0.121218,-0.036866,1.080705
1619,-19.775692,-11.841001,-1.831083,0.128054,0.044556,1.103166
1620,-25.696193,-7.873655,2.685588,-0.026246,-0.040650,0.985000
1621,-11.413748,-9.094377,3.723201,0.061524,0.018555,1.037369
1622,-17.944610,-6.897078,3.418021,0.017334,0.042725,0.976944
1623,-20.813306,-7.385367,4.211490,0.024659,0.049683,1.033585
1624,-21.423667,-6.836042,3.234913,0.034546,-0.017090,1.044327
1625,-17.639429,-6.103609,2.441444,-0.061524,0.079103,1.124285
1626,-12.817578,-8.606088,2.807660,0.030030,0.049683,0.987930
1627,-19.104295,-9.094377,1.342794,0.033448,0.006592,0.997574
1628,-18.127718,-9.094377,1.220722,0.005493,-0.013794,1.018326
1629,-13.794156,-9.399557,1.098650,0.022217,-0.015869,1.008194
1630,-15.381094,-8.056764,2.197299,0.055665,-0.001587,1.027359
1631,-14.343481,-6.164645,2.502480,0.018555,0.041382,1.027970
1632,-15.686275,-6.652934,2.868696,0.019654,0.004639,1.006851
1633,-14.709697,-5.493248,1.709010,0.030640,-0.032715,0.963638
1634,-12.878614,-4.821851,1.770047,0.025635,-0.008667,1.006607
1635,-15.320058,-4.760815,1.403830,0.019532,-0.005615,0.997574
1636,-17.761501,-5.554284,1.159686,0.011597,-0.007080,0.986465
1637,-14.831769,-5.981537,0.000000,0.010620,-0.003418,0.964736
1638,-19.958801,-7.446403,-0.671397,0.029297,-0.032471,0.999283
1639,-18.127718,-7.202258,-0.732433,0.023926,-0.011231,1.013199
1640,-18.188754,-7.446403,-0.427253,0.029786,-0.025513,1.006485
1641,-18.310826,-6.469825,-0.793469,0.036378,-0.052491,0.993301
1642,-21.667811,-5.188067,-0.976577,0.045289,-0.047974,1.027115
1643,-16.906996,-5.859464,0.671397,0.045167,-0.061280,1.018082
1644,-8.728161,-5.371176,0.366217,0.036011,-0.049561,1.017227
1645,-9.521630,-5.554284,0.122072,0.031373,-0.049683,1.001236
1646,-8.361944,-6.775006,0.305180,0.029419,-0.034302,1.010269
1647,-7.202258,-7.019150,-0.793469,0.033814,-0.046265,0.983658
1648,-10.131991,-7.141222,-0.793469,0.041749,-0.055909,1.001968
1649,-8.484016,-7.019150,-0.427253,0.041138,-0.054444,1.005509
1650,-9.033341,-5.004959,-0.915541,0.060304,-0.072511,0.996841
1651,-10.742351,-3.356985,-0.366217,0.076783,-0.071412,1.022110
1652,-9.216449,-1.464866,1.220722,0.068971,-0.061402,1.020523
1653,-10.437171,0.488289,2.197299,0.062379,-0.070314,1.028214
1654,-14.343481,2.685588,2.807660,0.067262,-0.066041,0.897963
1655,-9.399557,2.990768,3.540093,0.043336,-0.066163,1.015763
1656,-9.399557,2.990768,3.479057,0.025391,-0.033082,0.982681
1657,-13.366903,1.709010,2.563516,0.019287,-0.039063,0.953872
1658,-14.892805,0.122072,1.220722,0.015259,-0.055543,0.926528
1659,-17.456321,-1.525902,0.122072,0.033570,-0.068482,0.966323
1660,-19.043259,-1.831083,-0.549325,0.050904,-0.063600,0.989883
1661,-20.019837,-1.831083,-0.732433,0.049561,-0.069703,0.999161
1662,-21.057450,-0.854505,-0.183108,0.049317,-0.071534,0.978408
1663,-22.400244,0.305180,0.000000,0.111208,-0.084352,0.975113
1664,-30.273899,3.540093,3.906310,0.027832,-0.074952,0.971572
1665,-34.729534,3.540093,6.347753,0.067506,-0.110109,1.007828
1666,-31.128405,5.432212,8.178836,0.041505,-0.094972,1.005264
1667,-35.034714,5.188067,9.521630,0.037476,-0.105226,1.001968
1668,-32.288090,5.065995,9.399557,0.020630,-0.084596,1.015152
1669,-30.518044,3.845274,6.713970,0.011841,-0.100099,0.997696
1670,-28.015564,3.356985,2.868696,0.007324,-0.079591,0.983413
1671,-29.358358,1.586938,-2.136263,-0.019409,-0.071656,1.017594
1672,-31.677729,1.342794,-9.765774,-0.014160,-0.133669,1.033463
1673,-32.593271,4.211490,-16.113527,-0.028321,-0.099977,1.157488
1674,-38.818952,5.737392,-32.288090,-0.071290,-0.109499,1.086931
1675,-43.579767,7.446403,-34.241245,0.096681,-0.235721,1.030777
1676,-24.292363,2.990768,-20.019837,0.120119,-0.308476,0.991714
1677,-4.821851,-0.549325,-1.770047,0.094850,-0.172610,1.070207
1678,-9.216449,1.281758,2.868696,0.072023,-0.066896,1.029557
1679,-36.743725,7.995727,0.671397,0.055055,0.093019,1.005509
1680,-79.041733,18.921187,-13.244831,0.068482,0.164065,0.954360
1681,-108.522164,22.522316,-19.531548,0.051759,0.173587,0.977188
1682,-143.312734,21.789883,-27.161059,-0.121340,0.471321,0.731090
1683,-160.585946,-20.263981,-32.959487,-0.359991,-0.009888,0.790173
1684,-228.030823,-35.400931,-21.728847,-0.180911,0.510628,1.531395
1685,-416.083009,-43.701839,-57.434958,0.008667,0.348150,1.370382
1686,-547.920958,-113.221942,-29.236286,-0.656138,-0.144289,1.170184
1687,-642.038605,-185.549706,10.498207,-0.065675,-0.198001,1.053117
1688,-730.724041,-221.438926,38.513771,0.087648,0.066651,0.880507
1689,-827.038987,-208.072023,54.016938,0.640757,-0.971939,1.784573
1690,-1011.001755,-202.273594,170.717937,-0.301152,-0.905409,1.999969
1691,-284.000916,-63.782712,5.676356,-0.485969,-0.704112,1.999969
1692,339.055467,18.738079,-118.226902,-0.189944,0.918349,1.999969
1693,332.280461,48.340581,-131.227588,-0.442267,1.334859,1.339376
1694,124.452583,29.480430,-99.427787,-0.953017,0.508186,1.000992
1695,-9.460594,-26.855879,-6.652934,-0.674815,0.182132,0.126589
1696,-3.295949,-22.766461,15.014878,-0.524666,0.081300,0.390265
1697,111.024643,5.004959,-1.953155,-0.592416,0.043336,0.633799
1698,133.791104,14.526589,8.728161,-0.444587,0.323613,0.537240
1699,85.877775,14.160372,25.696193,-0.412726,0.292485,0.910292
1700,105.836576,20.630198,34.363317,-0.356329,0.200565,1.224140
1701,165.224689,29.297322,35.706111,-0.259159,0.264775,1.249165
1702,181.765469,30.945296,40.283818,-0.142702,0.303471,1.230732
1703,194.705119,34.302281,41.016251,0.012940,0.222293,1.255024
1704,223.392081,47.791257,34.607462,0.146242,0.185306,1.263813
1705,237.857633,61.646448,25.818265,0.274540,0.135012,1.300801
1706,247.196155,70.130465,14.953841,0.390143,0.003906,1.416892
1707,269.474327,81.971466,-0.244144,0.413825,-0.100832,1.482933
1708,291.081102,84.107729,-13.366903,0.404181,-0.213260,1.437522
1709,303.410391,78.492409,-22.949569,0.416754,-0.317998,1.340841
1710,309.208820,69.703212,-32.227054,0.451911,-0.388434,1.283345
1711,307.011521,64.209964,-42.664225,0.501106,-0.470588,1.201312
1712,296.696422,68.604562,-56.214237,0.499886,-0.655161,0.987564
1713,276.188296,83.375296,-67.811093,0.358404,-0.853162,0.709972
1714,245.853361,88.380255,-67.322805,0.146365,-0.848402,0.599252
1715,212.527657,70.374609,-62.500954,0.040040,-0.759777,0.785290
1716,188.906691,51.392386,-55.603876,0.026978,-0.583261,1.404929
1717,173.830777,48.218509,-52.063783,0.050904,-0.514656,1.999969
1718,180.544747,62.439918,-51.087205,0.020264,-0.572030,1.999969
1719,215.884642,85.084306,-53.162432,-0.031739,-0.761608,1.999969
1720,232.364385,104.066529,-50.476844,-0.148074,-0.883558,1.676783
1721,213.138018,109.071489,-36.072328,-0.237797,-0.932021,1.539208
1722,195.193408,99.549859,-15.320058,-0.299809,-0.921279,1.854887
1723,205.508507,86.915389,4.333562,-0.251347,-0.868544,1.999969
1724,227.420462,82.032502,18.188754,-0.057618,-0.794446,1.988190
1725,234.866865,88.929580,23.010605,0.147829,-0.750378,1.655909
1726,228.030823,99.732967,20.202945,0.267704,-0.719371,1.416159
1727,214.297704,106.446937,13.305867,0.293462,-0.703380,1.338399
1728,202.822919,107.911803,5.615320,0.297612,-0.710704,1.329732
1729,194.583047,104.432746,-0.610361,0.270878,-0.736217,1.368795
1730,189.944305,94.422828,-4.028382,0.244022,-0.790417,1.330587
1731,189.394980,80.750744,-6.530861,0.239994,-0.855848,1.189105
1732,180.727855,68.055238,-8.972305,0.245609,-0.969375,0.991348
1733,163.271534,62.745098,-11.902037,0.245975,-1.132464,0.934951
1734,139.894713,65.308614,-12.817578,0.226932,-1.411887,0.887098
1735,120.607309,71.839475,-12.878614,0.196292,-1.716213,0.682261
1736,101.991302,77.882048,-10.986496,0.122438,-1.946563,0.312627
1737,74.708171,74.952316,-0.183108,-0.014282,-1.979278,-0.140017
1738,30.273899,49.195087,23.682002,-0.160647,-1.789700,-0.333257
1739,-18.554971,6.103609,53.284504,-0.243656,-1.547753,-0.009888
1740,-46.387427,-31.494621,79.591058,-0.249638,-1.291768,0.626108
1741,-59.998474,-58.045319,88.136110,0.300420,-1.520653,-2.000031
1742,-184.756237,-84.657053,86.549172,0.187381,-0.092531,0.574472
1743,-112.306401,-105.653468,52.613108,0.020996,-0.041871,1.302266
1744,-52.063783,-83.009079,45.532921,-0.311284,1.472068,1.178485
1745,-128.358892,-117.921721,60.669871,-0.331426,0.887587,-0.238529
1746,-291.996643,-113.344015,88.685435,0.130739,-0.042237,-0.121218
1747,-321.660182,-91.981384,99.610895,0.814099,-0.390509,1.470115
1748,-254.032197,-65.186542,71.717403,1.642725,0.027832,1.999969
1749,-173.525597,-27.649348,24.902724,1.833158,0.112551,1.999969
1750,-135.988403,8.117800,-16.784924,0.768688,0.081666,1.720729
1751,-154.848554,35.400931,-17.700465,-0.508675,-0.122927,1.999969
1752,-135.133898,39.368276,14.648661,-1.685939,-0.211307,1.999969
1753,-89.356832,-14.648661,42.298009,-1.068742,-0.564218,1.208881
1754,-36.682689,-44.312200,48.828870,0.023438,0.245487,0.921035
1755,-65.186542,-68.238346,41.138323,0.585092,0.513924,1.059709
1756,-77.515831,-54.627298,32.532235,0.009400,0.099489,0.986343
1757,-80.933852,-70.496681,33.203632,-0.264530,0.012451,1.698024
1758,-50.537881,-79.468986,23.071641,0.197635,-0.006958,1.218158
1759,-41.504540,-65.980011,9.704738,0.250248,0.198001,1.349020
1760,-59.937438,-57.007706,9.033341,-0.012085,0.074708,1.084367
1761,-57.190814,-53.833829,3.234913,-0.007202,0.054688,1.352804
1762,-45.349813,-45.716030,-1.586938,0.210086,0.009400,1.121355
1763,-46.509499,-27.283131,-0.610361,0.172244,0.050782,1.387228
1764,-34.180209,-13.550011,0.915541,0.134524,-0.034546,1.255390
1765,-14.953841,-0.061036,-1.586938,0.074952,0.078370,1.106096
1766,-24.475471,3.356985,0.976577,0.000366,0.036866,1.062516
1767,-18.371862,4.882887,0.793469,0.028687,0.008667,1.052262
1768,-17.273213,5.859464,1.647974,-0.002075,0.030884,0.980240
1769,-18.005646,4.516670,1.464866,-0.031983,0.063966,0.942031
1770,-25.329976,2.075227,1.342794,0.010132,0.022461,1.014054
1771,-23.315785,2.136263,0.732433,-0.005982,-0.017823,1.051896
1772,-17.273213,1.403830,0.305180,-0.031250,0.000122,1.005142
1773,-18.249790,-0.732433,0.183108,-0.020264,0.001953,1.000870
1774,-18.127718,-1.525902,0.244144,-0.005127,-0.008301,1.011368
1775,-16.479744,-2.014191,0.488289,-0.029175,-0.011597,0.992325
1776,-15.136950,-3.723201,0.366217,-0.142702,0.092042,1.143572
1777,-17.761501,-6.713970,2.563516,-0.019043,0.054322,0.934218
1778,-20.202945,-8.178836,0.305180,-0.021851,-0.028199,0.991226
1779,-16.906996,-8.056764,-1.098650,-0.007568,-0.040284,1.051041
1780,-13.183795,-6.958114,-1.098650,0.018433,-0.011963,1.039445
1781,-11.474784,-5.493248,-1.281758,-0.003418,-0.018921,1.016739
1782,-12.390326,-4.821851,-0.854505,-0.003906,-0.020752,1.032120
1783,-11.108568,-3.662165,-0.366217,0.017945,-0.044923,1.056901
1784,-7.141222,-1.647974,0.305180,0.005127,-0.038819,1.032242
1785,-4.455634,-0.732433,0.061036,-0.014160,-0.011231,0.991470
1786,-6.408789,-1.098650,0.000000,-0.000122,-0.024659,1.008682
1787,-6.897078,-1.098650,0.244144,-0.005249,-0.045533,1.050187
1788,-0.915541,-0.793469,-0.183108,0.000732,-0.033082,1.012467
1789,-0.305180,-0.976577,-0.610361,-0.026978,-0.018799,0.996231
1790,-1.586938,-2.441444,-0.671397,-0.008057,-0.026368,0.995987
1791,-1.098650,-2.807660,-0.549325,-0.009155,-0.032227,1.001724
1792,0.244144,-2.990768,-0.732433,0.003296,-0.025391,1.017472
1793,0.671397,-2.441444,-0.305180,0.004395,-0.032471,1.014298
1794,1.281758,-1.220722,0.305180,0.015259,-0.037110,1.023453
1795,3.356985,0.000000,0.732433,-0.000366,-0.016968,1.003189
1796,1.586938,0.549325,1.037613,0.018311,-0.019287,1.003433
1797,0.305180,1.709010,1.403830,0.013916,-0.028321,1.010880
1798,1.342794,3.112840,1.586938,0.011597,-0.021118,1.001968
1799,1.037613,3.479057,1.709010,-0.011231,-0.015503,0.996231
1800,-0.976577,2.929732,1.831083,-0.012207,-0.027466,0.990738
1801,-0.061036,1.953155,0.793469,-0.040772,-0.031495,0.988540
1802,-1.159686,-0.244144,0.671397,-0.025147,-0.026246,0.985489
1803,-0.366217,-1.953155,0.000000,-0.005005,-0.023560,0.992325
1804,-0.671397,-1.953155,-0.610361,0.024537,-0.026490,0.995132
1805,-0.305180,-0.732433,-0.183108,0.030396,-0.024048,1.021500
1806,0.244144,2.258335,0.549325,0.012940,-0.027588,1.007218
1807,-1.647974,3.845274,2.014191,0.013184,-0.021973,1.007828
1808,-1.281758,5.188067,2.319371,-0.016480,-0.013184,0.981827
1809,-3.784237,3.845274,2.197299,-0.011109,-0.015991,0.980117
1810,-4.577707,3.173877,1.525902,-0.021241,-0.018189,0.977798
1811,-5.432212,2.075227,1.159686,-0.016480,-0.020752,0.988296
1812,-5.188067,0.915541,0.671397,-0.026123,-0.021118,0.976211
1813,-6.652934,-1.403830,0.122072,-0.035889,-0.022827,0.973526
1814,-6.836042,-4.028382,-0.671397,-0.026123,-0.017823,0.979385
1815,-7.507439,-5.371176,-1.281758,-0.023926,-0.030030,0.989395
1816,-8.422980,-5.798428,-0.854505,-0.006470,-0.030030,0.992935
1817,-9.521630,-5.737392,0.122072,-0.010376,-0.010498,0.965469
1818,-12.451362,-6.347753,0.366217,-0.017578,0.035401,0.931777
1819,-19.714656,-7.507439,0.183108,-0.002441,0.021973,0.940688
1820,-25.513085,-7.873655,-0.366217,-0.000732,-0.013428,0.979263
1821,-27.283131,-8.117800,-1.159686,0.019409,-0.039673,1.007462
1822,-26.489662,-7.019150,-2.014191,0.051270,-0.052857,1.009293
1823,-26.977951,-4.028382,-1.770047,0.030884,-0.052247,0.976577
1824,-33.813993,-2.624552,1.892119,-0.006592,-0.052491,1.008682
1825,-34.912642,0.793469,4.394598,0.041016,-0.111330,1.064225
1826,-27.405203,3.173877,5.920500,0.006348,-0.078370,1.025772
1827,-29.724575,5.188067,7.141222,0.031128,-0.088014,1.036515
1828,-30.334936,6.775006,8.361944,-0.028199,-0.083009,1.032242
1829,-26.672770,7.202258,7.690547,0.016358,-0.067872,0.993912
1830,-24.597543,8.178836,6.286717,-0.023438,-0.026856,0.925917
1831,-30.701152,5.310140,2.746624,-0.036255,0.001465,0.922377
1832,-42.481117,1.586938,0.000000,-0.043458,-0.036622,0.988418
1833,-43.152514,0.061036,-3.784237,-0.054810,-0.068116,0.992081
1834,-37.903410,-0.427253,-8.361944,-0.072389,-0.011841,0.965591
1835,-43.518730,-2.990768,-16.174563,0.025513,-0.137697,0.907851
1836,-55.970092,-6.530861,-18.493935,-0.014160,-0.103029,0.946181
1837,-70.191501,-10.864424,-17.456321,-0.016602,-0.096315,0.969375
1838,-83.680476,-13.733120,-14.465553,0.018433,-0.072023,0.996841
1839,-87.830930,-9.643702,-13.305867,0.098634,0.007202,0.989029
1840,-105.531395,-4.272526,-10.864424,0.046876,-0.007568,0.848035
1841,-142.519265,-1.159686,0.549325,0.067994,-0.178470,1.141619
1842,-143.129625,6.408789,-0.244144,0.087404,-0.036378,1.103899
1843,-155.519951,4.211490,-3.356985,-0.008667,-0.108888,0.961563
1844,-185.305562,9.460594,-1.037613,0.168704,-0.124147,1.296284
1845,-184.267948,20.386053,-2.075227,0.083009,0.020752,1.314961
1846,-136.476692,19.165332,-4.150454,-0.069459,0.477790,1.410300
1847,-132.326238,24.109255,0.305180,-0.176150,0.370977,1.675807
1848,-144.960708,2.990768,20.447089,-0.726696,0.505013,1.999969
1849,-5.798428,-14.404517,-6.591897,-0.302861,0.151003,1.997955
1850,97.840848,12.634470,-14.343481,-0.448493,0.431525,1.030411
1851,57.740139,0.671397,10.193027,-0.351934,0.358892,0.849012
1852,48.584726,-1.159686,22.583352,-0.401129,0.141726,1.110369
1853,95.399405,-0.549325,30.151827,-0.402960,0.124636,1.378561
1854,122.804608,-1.464866,41.077287,-0.417487,0.087892,1.302876
1855,145.510033,-1.281758,51.636530,-0.351812,-0.000244,1.056779
1856,161.562524,3.906310,59.021897,-0.213260,-0.065797,0.797375
1857,159.853513,12.634470,61.646448,-0.052857,-0.100954,0.711437
1858,156.679637,23.682002,58.716716,0.036622,-0.144533,0.726452
1859,156.923781,31.128405,53.162432,0.086305,-0.163455,0.753918
1860,154.848554,31.006332,49.073014,0.112184,-0.178714,0.841077
1861,154.604410,23.010605,46.448463,0.132692,-0.213870,0.910658
1862,159.182116,13.061723,42.359045,0.180545,-0.246952,0.930068
1863,159.182116,5.371176,35.950256,0.216312,-0.263798,0.924575
1864,154.665446,0.671397,28.686961,0.223514,-0.303105,0.912367
1865,148.195621,-1.953155,19.592584,0.166995,-0.372930,0.892592
1866,138.796063,-3.418021,11.841001,0.073610,-0.439216,0.845716
1867,126.100557,-4.211490,6.591897,-0.000732,-0.501350,0.782361
1868,112.001221,-1.892119,3.356985,-0.090333,-0.517586,0.717784
1869,91.981384,-1.831083,3.234913,-0.175296,-0.553231,0.245365
1870,-44.556344,-156.496529,28.259709,0.218021,-0.693858,1.999969
1871,6.225681,-24.597543,35.156786,0.473030,-1.058976,1.798489
1872,95.216297,-4.821851,-43.823911,0.670420,-2.000031,-1.029679
1873,-87.464714,0.793469,-33.325704,-0.312383,-2.000031,-0.270634
1874,-179.995422,-17.151141,19.043259,-0.113405,-0.583383,1.999969
1875,231.448844,-10.986496,8.728161,0.115724,-0.406867,0.882338
1876,316.411078,46.753643,-70.740826,0.603037,1.085466,-0.443244
1877,-14.160372,32.227054,-29.419394,-0.438239,0.705943,-0.168948
1878,-241.763943,-49.073014,56.824598,-0.531380,0.468757,1.065690
1879,-136.293584,-22.400244,43.884947,0.264897,0.000488,1.996246
1880,63.111315,12.085145,-13.611048,0.028321,0.112184,1.123308
1881,-14.221408,6.775006,-6.775006,-0.103151,0.131838,0.654307
1882,-66.224155,-5.188067,5.615320,0.071412,-0.195682,1.184344
1883,-2.136263,6.286717,0.305180,-0.021363,-0.015503,1.166400
1884,-12.390326,3.173877,1.892119,-0.050904,0.032349,0.952407
1885,-13.733120,0.671397,1.403830,-0.023194,0.001221,1.010513
1886,-8.239872,-0.366217,-0.305180,-0.071290,0.022461,0.962783
1887,-13.794156,-3.967346,0.061036,-0.020386,-0.009277,1.011490
1888,-8.606088,-3.723201,-0.427253,-0.022461,0.000122,1.004776
1889,-9.643702,-4.943923,-0.305180,-0.034424,0.014405,0.983413
1890,-10.681315,-6.164645,-0.427253,-0.038453,0.016602,0.983169
1891,-13.305867,-7.690547,-0.549325,-0.023560,0.005982,0.978653
1892,-13.183795,-7.995727,-0.122072,-0.009644,-0.000366,1.009415
1893,-14.465553,-6.164645,-0.793469,0.049928,-0.097658,0.912490
1894,-10.681315,-6.103609,-0.305180,0.012696,-0.015869,1.058610
1895,-11.963073,-5.615320,0.549325,0.002319,-0.009400,1.006973
1896,-10.254063,-4.638743,0.366217,0.012696,-0.016968,1.025528
1897,-9.277485,-3.723201,0.183108,0.006958,-0.016724,1.011124
1898,-9.094377,-3.112840,0.061036,0.002564,-0.002319,0.997452
1899,-11.718929,-3.051804,0.061036,-0.003906,-0.020508,1.003189
