Packet number,Gyroscope X (deg/s),Gyroscope Y (deg/s),Gyroscope Z (deg/s),Accelerometer X (g),Accelerometer Y (g),Accelerometer Z (g)
0,0.305180,0.305180,0.000000,0.009644,-0.022950,1.005264
1,0.488289,0.244144,0.000000,0.006226,-0.032471,1.005386
2,0.854505,0.244144,-0.122072,0.005859,-0.022339,0.993057
3,0.732433,0.000000,-0.183108,0.004639,-0.024781,0.999771
4,0.854505,0.000000,-0.244144,0.013794,-0.022095,0.997818
5,0.427253,-0.122072,-0.244144,0.009400,-0.024659,1.001114
6,0.793469,0.183108,-0.183108,0.005371,-0.025513,0.996231
7,0.488289,0.244144,-0.122072,0.010986,-0.022095,1.000504
8,0.732433,0.305180,0.000000,0.002075,-0.025269,1.012222
9,0.671397,0.488289,0.000000,0.004883,-0.022339,1.006119
10,0.793469,0.671397,-0.183108,-0.005005,-0.020752,0.994400
11,0.549325,0.183108,0.000000,0.009155,-0.018555,0.996719
12,0.732433,0.549325,0.000000,0.002197,-0.022827,1.005264
13,0.915541,0.488289,-0.122072,0.002930,-0.019409,0.999161
14,0.915541,0.183108,-0.183108,0.008545,-0.024659,1.000870
15,1.159686,0.122072,-0.305180,-0.003174,-0.018555,0.988296
16,0.671397,0.000000,-0.183108,0.007324,-0.017212,0.997452
17,0.122072,0.000000,-0.244144,0.005737,-0.022461,1.000626
18,-0.244144,-0.061036,-0.122072,0.011719,-0.020874,1.003311
19,0.671397,0.244144,0.000000,0.008789,-0.018189,1.004532
20,-0.183108,0.122072,0.000000,0.013062,-0.016846,1.002090
21,0.183108,0.305180,0.000000,0.004150,-0.018555,1.004898
22,-0.122072,0.061036,0.000000,0.005249,-0.022461,1.002701
23,-0.183108,0.122072,0.000000,0.003540,-0.023926,0.992569
24,-0.305180,0.122072,-0.183108,0.005859,-0.025269,1.003677
25,0.244144,0.366217,0.000000,0.001709,-0.031006,1.007828
26,0.732433,0.183108,-0.122072,0.011231,-0.019654,0.985977
27,0.122072,0.000000,-0.183108,0.005737,-0.019165,0.999649
28,0.366217,0.061036,-0.244144,0.003784,-0.021729,1.001968
29,0.366217,0.000000,-0.183108,0.005249,-0.018067,1.003067
30,0.549325,0.000000,-0.183108,0.002808,-0.020386,1.003799
31,0.122072,0.000000,-0.183108,-0.000488,-0.016602,0.993790
32,-0.305180,-0.244144,-0.183108,0.012085,-0.020508,1.002213
33,0.061036,0.061036,0.000000,0.005859,-0.021607,0.998428
34,-0.305180,-0.061036,-0.122072,0.007324,-0.022095,1.008682
35,0.000000,0.122072,0.000000,0.009277,-0.023804,1.010025
36,0.122072,0.122072,0.000000,0.012451,-0.021729,0.996719
37,0.000000,0.305180,0.000000,0.005493,-0.023194,1.000870
38,0.427253,0.305180,0.000000,0.003540,-0.019409,1.004776
39,0.427253,0.427253,0.000000,0.002075,-0.022705,0.995377
40,1.342794,0.732433,-0.183108,-0.008179,-0.016968,0.969375
41,0.488289,0.000000,0.000000,0.010010,-0.021851,0.995010
42,1.098650,0.183108,-0.244144,0.004273,-0.015625,1.004776
43,1.037613,0.122072,-0.183108,0.004883,-0.020142,1.004898
44,1.342794,0.244144,-0.122072,0.006348,-0.022827,0.999039
45,1.220722,0.244144,0.000000,0.000244,-0.018677,0.997574
46,1.403830,0.183108,0.000000,0.008667,-0.023804,1.001358
47,1.525902,0.244144,0.000000,0.003662,-0.023316,1.011734
48,1.831083,0.671397,0.061036,0.000000,-0.027710,1.016251
49,3.784237,1.647974,0.000000,-0.007568,-0.037354,0.951797
50,4.028382,1.098650,0.122072,0.006714,-0.025269,1.021866
51,5.249104,1.342794,0.122072,-0.008911,-0.032227,1.018082
52,7.568475,1.342794,0.061036,0.002686,-0.018433,1.006851
53,7.385367,1.220722,0.244144,-0.000610,-0.021241,1.005997
54,9.277485,1.037613,0.244144,0.004028,-0.017578,1.016129
55,9.826810,0.976577,0.061036,0.018433,0.005005,0.967544
56,8.850233,0.976577,-0.122072,-0.007080,-0.010010,0.993179
57,8.911269,0.549325,-0.244144,-0.000610,-0.008545,1.011124
58,9.277485,0.732433,-0.183108,0.009888,0.002441,1.002213
59,9.399557,1.098650,-0.183108,-0.001831,-0.002686,0.995987
60,8.728161,0.671397,-0.122072,-0.000610,0.004395,0.985367
61,7.934691,0.366217,-0.305180,-0.006226,0.005493,0.976577
62,6.408789,-0.183108,-0.305180,-0.005005,0.008545,0.975235
63,5.004959,-0.915541,-0.305180,0.000366,0.001709,0.989151
64,5.188067,-1.037613,-0.427253,0.005493,0.000488,1.005753
65,5.310140,-0.976577,-0.488289,0.001343,0.005615,1.000015
66,5.188067,-1.281758,-0.366217,-0.003662,0.004273,0.986099
67,4.333562,-1.892119,-0.244144,0.007324,0.010742,0.990738
68,3.845274,-1.464866,-0.305180,-0.004517,0.008911,0.987808
69,3.723201,-1.647974,-0.244144,0.008911,0.004028,0.994400
70,3.845274,-1.098650,-0.305180,0.003784,0.008301,0.996475
71,3.723201,-1.281758,-0.122072,0.003540,0.007446,0.992325
72,2.929732,-1.281758,-0.122072,0.008789,0.009277,0.990616
73,2.746624,-1.220722,-0.183108,0.010620,0.009033,0.987808
74,2.624552,-1.220722,0.000000,0.004150,0.005127,0.988907
75,2.258335,-1.220722,0.061036,0.007813,0.011109,1.000259
76,1.953155,-1.220722,0.000000,0.006470,0.014282,0.990127
77,1.709010,-0.915541,0.061036,0.012696,0.006958,1.012467
78,2.441444,-0.671397,0.305180,0.009400,0.010742,1.006973
79,2.624552,-0.427253,0.122072,0.013794,-0.000610,0.981949
80,1.953155,-0.427253,0.183108,0.000855,0.007691,0.999893
81,2.319371,-0.488289,0.061036,0.005127,0.014893,0.998550
82,1.586938,-0.427253,0.000000,0.007324,0.010864,0.999405
83,2.258335,0.000000,0.061036,0.007568,0.010742,1.000870
84,2.197299,0.061036,0.122072,0.006836,0.012573,0.989761
85,1.525902,0.000000,0.122072,0.009888,0.011353,0.994644
86,2.014191,0.000000,0.244144,0.011353,0.011963,1.006363
87,1.831083,0.183108,0.488289,0.006348,0.015747,1.001602
88,2.319371,0.000000,0.671397,0.006836,0.009522,0.990127
89,1.831083,0.000000,0.671397,0.005615,0.016358,0.996841
90,2.685588,0.061036,0.854505,-0.004761,0.022339,0.975967
91,0.732433,-0.610361,0.915541,-0.000977,0.018189,0.967422
92,0.244144,-0.915541,1.220722,-0.004028,0.023438,0.944106
93,-1.770047,-1.403830,0.671397,-0.016480,0.056764,0.937026
94,-10.070954,-3.051804,0.915541,0.000977,0.006104,1.003677
95,-5.004959,-2.990768,0.671397,0.014771,-0.002197,1.025284
96,-3.662165,-1.953155,0.793469,0.033204,0.000122,1.029068
97,-2.441444,-0.366217,1.403830,0.011353,-0.024781,1.044083
98,4.028382,1.037613,1.403830,0.013550,-0.004517,1.033097
99,5.127031,1.220722,1.647974,0.005737,0.013184,0.987564
100,6.042573,1.037613,1.464866,-0.005982,0.039796,0.947158
101,0.854505,-0.793469,1.831083,0.003418,0.031250,0.962051
102,-1.831083,-0.488289,2.075227,0.009155,0.011963,0.983658
103,-1.342794,0.000000,2.014191,0.018921,0.039063,0.979263
104,-5.676356,0.061036,2.319371,0.019043,-0.004883,1.011856
105,-3.845274,0.976577,2.319371,0.018311,-0.006592,1.043351
106,-0.976577,1.953155,2.136263,0.014527,0.000610,1.023453
107,-0.549325,1.831083,2.014191,-0.002686,0.008423,1.006119
108,-0.305180,0.915541,1.647974,-0.005982,-0.001099,0.998428
109,1.281758,-0.183108,0.915541,-0.016480,0.036133,0.973281
110,-1.892119,-2.380407,0.732433,-0.017212,0.015137,0.985367
111,-0.854505,-4.028382,0.366217,-0.007935,0.012207,0.985977
112,-0.915541,-5.188067,-0.122072,0.000732,0.091066,0.991226
113,-4.272526,-6.897078,-0.122072,0.001465,0.005127,0.971450
114,-4.333562,-6.897078,-0.610361,0.018921,0.004150,1.005631
115,-4.394598,-6.164645,-0.366217,0.028809,0.004761,1.014176
116,-3.356985,-5.249104,-0.488289,0.027955,0.005127,1.017227
117,-3.234913,-3.967346,-0.610361,0.025147,0.009522,1.031510
118,-1.098650,-2.746624,-0.488289,0.030274,0.000122,1.033585
119,0.183108,-0.915541,-0.305180,0.025025,-0.004273,0.992447
120,0.854505,0.000000,-0.305180,0.020264,0.026978,0.979385
121,-1.220722,-0.061036,-0.427253,0.011719,0.023804,0.975113
122,-3.723201,-1.159686,-0.488289,0.009766,0.025513,0.954238
123,-6.225681,-2.197299,-0.793469,-0.001831,0.011597,0.981827
124,-6.652934,-3.234913,-0.732433,0.011353,-0.014527,1.008072
125,-4.211490,-3.173877,-0.732433,0.014160,-0.001221,0.996353
126,-4.333562,-3.418021,-0.610361,0.015869,0.002197,1.003189
127,-3.784237,-3.173877,-0.549325,0.023560,-0.004273,1.005997
128,-3.356985,-2.563516,-0.610361,0.021607,-0.006958,1.004288
129,-2.990768,-2.319371,-0.366217,0.024903,-0.003052,1.002457
130,-1.892119,-2.014191,-0.305180,0.021363,0.081422,1.000748
131,-5.554284,-3.356985,0.427253,0.019287,-0.000244,0.960708
132,-4.943923,-3.540093,-0.305180,0.012451,0.026734,0.976455
133,-8.545052,-4.333562,0.244144,0.023804,0.005371,0.986709
134,-8.850233,-4.150454,0.122072,0.009400,0.016114,0.997818
135,-8.972305,-3.967346,0.183108,0.024048,0.008057,0.985489
136,-11.657893,-3.967346,0.305180,0.021851,-0.006348,0.996597
137,-10.803388,-3.356985,0.366217,0.035035,-0.003906,1.010025
138,-11.291676,-2.624552,0.549325,0.028077,-0.019287,1.010147
139,-10.315099,-2.197299,0.793469,0.015747,-0.020020,1.002823
140,-8.789197,-2.380407,0.732433,0.015503,-0.004761,0.968765
141,-11.902037,-3.784237,1.098650,0.005737,0.001343,0.942885
142,-17.212177,-5.920500,1.220722,0.011475,-0.001099,0.932753
143,-22.034028,-7.324331,1.464866,0.019165,-0.007202,0.968276
144,-23.804074,-7.690547,1.586938,0.029664,-0.032593,1.018692
145,-19.592584,-6.897078,1.342794,0.010986,-0.035523,0.999771
146,-19.775692,-7.385367,1.403830,0.034791,-0.036622,0.999283
147,-18.860151,-5.737392,1.525902,0.061769,-0.029786,0.980606
148,-16.540780,-6.408789,1.709010,0.028565,-0.037354,1.043839
149,-16.662852,-6.347753,1.831083,0.025391,-0.054566,0.997086
150,-15.564202,-6.836042,2.807660,0.035889,-0.051881,0.985367
151,-15.320058,-7.568475,3.601129,0.018921,-0.043458,0.936782
152,-19.409476,-10.131991,4.394598,0.015259,-0.034546,0.922011
153,-23.743038,-13.122759,5.798428,0.022339,-0.026734,0.953750
154,-22.766461,-13.611048,5.798428,0.031861,-0.065675,1.007340
155,-25.024796,-12.573434,5.249104,0.086793,-0.065553,1.095109
156,-23.559930,-8.972305,4.211490,0.026001,-0.075563,1.060563
157,-18.860151,-7.995727,3.784237,0.085817,-0.073976,0.999527
158,-20.630198,-4.943923,3.234913,0.061524,-0.057984,1.018082
159,-22.461280,-2.258335,4.028382,0.086305,0.020020,1.170184
160,-27.222095,1.281758,3.662165,0.039307,-0.049683,1.025772
161,-34.851606,1.831083,3.784237,0.076295,-0.053346,0.975601
162,-36.011292,4.516670,2.807660,0.052857,-0.032715,1.021866
163,-43.701839,5.310140,2.136263,0.032349,-0.051148,1.006363
164,-44.983597,5.371176,0.427253,0.033692,-0.066041,0.952041
165,-44.495308,4.516670,-1.281758,0.016480,-0.085939,0.985245
166,-44.983597,3.845274,-1.403830,0.000488,-0.101808,1.058488
167,-41.565576,7.324331,0.366217,-0.005493,-0.105959,1.020890
168,-50.965133,7.568475,-9.338521,-0.091310,-0.020874,1.177874
169,-65.735866,10.193027,-35.706111,-0.000610,-0.149905,1.046891
170,-51.819638,9.338521,-27.038987,0.140749,-0.285283,0.992325
171,-35.339895,9.338521,-14.526589,0.071656,-0.158572,1.151507
172,-22.949569,20.447089,-15.686275,0.064820,-0.164187,1.059342
173,-37.293050,19.470512,-13.305867,0.071412,-0.070558,1.026139
174,-59.510185,14.465553,-5.737392,0.081544,-0.038819,0.913100
175,-98.390173,19.470512,-5.004959,0.047364,-0.031373,0.989273
176,-125.062943,19.348440,-7.629511,0.031250,-0.235355,0.995743
177,-116.029603,4.150454,5.065995,-0.073121,-0.311650,0.946548
178,-65.369650,3.540093,8.850233,0.153201,0.433845,0.924086
179,-135.317006,4.028382,-19.409476,0.015747,0.395270,0.812024
180,-278.934920,2.380407,5.249104,-0.039307,0.297612,1.224140
181,-406.988632,2.502480,32.166018,0.016480,-0.286381,0.974502
182,-423.224231,17.151141,17.883574,0.227787,0.085084,1.471702
183,-452.643626,19.714656,-5.920500,0.159304,0.175906,1.615503
184,-554.695964,67.872129,2.990768,0.421271,0.034791,1.172625
185,-591.256580,102.479591,-1.709010,0.444587,-0.401617,1.524315
186,-653.208209,126.344701,57.068742,-0.501961,-1.119646,1.999969
187,-423.163195,118.593118,-20.813306,-0.902358,-0.408820,1.999969
188,80.567636,89.112688,-71.290150,-0.563607,0.440436,1.999969
189,155.580987,53.772793,-87.586786,-0.557382,0.890639,1.678248
190,36.926833,11.291676,-22.644388,-0.315923,0.695811,1.128557
191,-34.668498,-43.457694,11.841001,0.011353,0.299687,0.814954
192,52.002747,-34.058137,-5.249104,0.255497,0.281132,0.655650
193,60.425727,-25.085832,-19.470512,0.340948,0.505745,0.454353
194,17.639429,-12.512398,-26.428626,0.352789,0.406867,0.820203
195,46.814679,7.263294,-42.359045,0.242679,0.364385,0.949111
196,67.505913,10.620279,-50.232700,0.108400,0.416999,0.935317
197,70.130465,-1.464866,-47.669184,-0.043702,0.328740,1.117937
198,99.671931,-13.550011,-42.481117,-0.138796,0.303471,1.336690
199,127.687495,-22.156100,-34.790570,-0.166140,0.312261,1.503197
200,154.726482,-23.926146,-27.771420,-0.158694,0.250614,1.588037
201,185.915923,-16.479744,-23.132677,-0.108888,0.158816,1.440696
202,206.973373,-6.103609,-20.935378,-0.075196,0.081910,1.258686
203,219.913024,2.502480,-17.151141,-0.032593,0.020020,1.033829
204,224.917983,4.333562,-13.916228,0.009277,-0.020752,0.895155
205,224.612802,1.770047,-11.291676,0.053101,-0.042725,0.944717
206,226.749065,-0.671397,-10.742351,0.101320,-0.033082,1.063981
207,230.411231,-2.685588,-12.390326,0.151858,-0.002197,1.260761
208,236.820020,-4.028382,-16.906996,0.231449,0.005859,1.457786
209,246.341650,-3.051804,-25.085832,0.282475,-0.045411,1.523949
210,255.680171,0.793469,-35.828183,0.327153,-0.149294,1.393088
211,256.290532,8.056764,-48.279545,0.324224,-0.246220,1.228779
212,247.440299,16.418708,-59.876402,0.255131,-0.317021,1.137591
213,232.974746,25.085832,-67.444877,0.157473,-0.361822,1.157610
214,219.241627,32.227054,-71.778439,0.086183,-0.380133,1.240253
215,207.705806,37.537194,-73.365377,0.027955,-0.361334,1.405661
216,195.559625,37.964446,-72.205692,-0.027100,-0.340215,1.798123
217,194.583047,37.659266,-69.642176,-0.066041,-0.406744,1.999969
218,213.260090,42.908370,-66.651408,-0.118166,-0.554330,1.999969
219,231.143664,54.077974,-64.271000,-0.165042,-0.663218,1.862577
220,223.270008,63.416495,-57.190814,-0.213016,-0.705333,1.799710
221,215.335317,66.346227,-46.692607,-0.203372,-0.757824,1.996857
222,227.420462,65.613794,-36.865797,-0.071778,-0.744274,1.999969
223,239.932860,63.233387,-30.762188,0.117678,-0.757580,1.873198
224,242.191196,58.594644,-28.259709,0.295171,-0.774670,1.626123
225,239.017319,52.796216,-31.189441,0.427375,-0.788342,1.371237
226,225.345235,48.340581,-36.987869,0.458381,-0.819471,1.269062
227,209.109636,44.373236,-42.359045,0.374273,-0.921279,1.255634
228,197.634852,39.002060,-44.739452,0.272587,-1.040787,1.206561
229,183.779660,28.015564,-46.082246,0.305547,-1.165423,1.118425
230,167.360952,19.775692,-52.857252,0.343389,-1.376730,0.973159
231,145.326925,25.940337,-63.904784,0.301274,-1.658717,0.790906
232,118.898299,44.922560,-73.304341,0.177127,-1.951324,0.559091
233,88.990616,62.500954,-71.778439,-0.027100,-2.000031,0.243656
234,57.862211,62.134737,-53.894865,-0.211185,-2.000031,0.124269
235,21.911955,35.523003,-21.850919,-0.343389,-1.844022,0.080568
236,-4.821851,-8.789197,14.343481,-0.368780,-1.541405,0.339971
237,-23.987182,-41.748684,46.875715,-0.507820,-1.414939,-0.079591
238,-122.316320,-84.534981,70.862898,-0.005737,-1.403586,-0.792126
239,-205.081254,-96.803235,77.393759,0.030762,-1.617823,0.002075
240,-155.825132,-40.955215,73.243305,-0.015503,-0.092653,1.004166
241,-139.528496,-60.364691,55.542840,0.069093,0.653696,1.913359
242,-192.507820,-83.070115,73.609522,0.671275,0.766369,1.517723
243,-223.880369,-77.332723,57.434958,0.695811,-0.013916,0.850721
244,-215.335317,-61.646448,46.448463,0.690074,-0.129519,1.311055
245,-219.424735,-46.387427,35.767147,0.840345,-0.014893,1.999969
246,-183.291371,-31.067369,18.005646,0.596567,-0.186526,1.999969
247,-100.343328,-19.653620,0.122072,0.082277,-0.221317,1.999969
248,-68.543526,-12.146181,-0.732433,-0.411017,-0.071412,1.230121
249,-82.825971,-17.883574,18.066682,-0.719005,-0.083619,0.823987
250,-103.517205,-64.637217,41.626612,-0.339483,0.068482,1.242451
251,-95.277333,-80.506600,30.212863,0.962539,0.259525,1.999969
252,-61.585412,-39.673457,6.103609,0.802625,-0.141604,1.404074
253,-37.354086,-5.432212,-2.929732,-0.298833,0.261112,1.110246
254,-86.610208,-36.743725,13.305867,-0.333379,-0.064332,1.001480
255,-51.148241,-46.265354,8.606088,0.244755,-0.001221,1.356588
256,-36.621653,-25.940337,-0.732433,0.229984,-0.040528,1.124529
257,-42.114900,-20.080873,1.586938,-0.072267,-0.046021,1.194598
258,-20.202945,-23.926146,1.892119,0.029297,-0.011231,1.053483
259,-16.296635,-19.531548,-0.610361,0.086061,0.041993,1.034195
260,-22.766461,-15.625238,0.732433,0.085451,0.033448,1.032609
261,-21.606775,-12.939651,1.159686,0.058106,-0.023804,1.042985
262,-11.657893,-10.376135,2.197299,0.091798,0.029664,1.049332
263,-12.512398,-6.652934,2.746624,0.087770,0.044800,1.011734
264,-13.550011,-4.455634,4.028382,0.063966,0.042359,1.028702
265,-10.559243,-3.356985,3.418021,0.036255,0.045045,1.028336
266,-12.878614,-3.662165,3.051804,0.036988,0.012573,1.029068
267,-11.169604,-4.211490,2.502480,0.033326,0.026123,1.039200
268,-9.887846,-4.638743,1.159686,0.035279,-0.012207,0.959487
269,-10.315099,-5.432212,1.342794,0.033448,0.010254,1.051652
270,-9.338521,-4.699779,0.671397,0.054810,-0.075074,0.987198
271,-8.056764,-3.723201,0.488289,0.072877,-0.010742,0.989517
272,-7.629511,-2.685588,1.098650,0.041260,0.014771,1.038468
273,-8.239872,-1.647974,0.915541,0.058839,-0.028321,0.977188
274,-7.812619,-1.281758,1.525902,0.048219,0.019165,1.026871
275,-8.056764,-0.366217,1.342794,0.061158,-0.045045,0.943252
276,-11.352712,-0.732433,0.976577,0.060182,-0.012451,0.985977
277,-13.305867,-0.549325,0.488289,0.052491,-0.015625,1.014176
278,-10.376135,0.061036,-0.488289,0.053834,-0.062745,0.943252
279,-11.596857,-0.305180,-0.427253,0.069215,-0.036133,0.972305
280,-15.564202,-0.427253,-0.122072,0.047364,-0.025513,0.990982
281,-13.916228,-0.366217,0.000000,0.044800,-0.015747,0.979385
282,-14.953841,-0.854505,0.244144,0.047486,-0.007568,0.983658
283,-18.005646,-1.220722,0.488289,0.050782,-0.037110,0.996963
284,-14.770733,-0.915541,0.732433,0.033570,-0.034668,1.008072
285,-13.855192,-1.281758,1.098650,0.050050,-0.035645,1.007218
286,-12.695506,-1.403830,1.098650,0.045167,-0.045533,1.000015
287,-11.413748,-1.770047,1.037613,0.041627,-0.014405,0.970352
288,-16.418708,-2.319371,1.037613,0.063355,-0.033692,0.994644
289,-16.845960,-2.136263,1.098650,0.053956,-0.063478,1.008316
290,-10.437171,-1.892119,1.464866,0.062745,-0.051514,1.021500
291,-14.709697,-1.464866,1.831083,0.062745,-0.043824,1.010269
292,-13.794156,-1.159686,2.075227,0.046021,-0.060914,1.003555
293,-10.742351,0.000000,1.770047,0.063966,-0.049195,0.979995
294,-15.503166,-0.061036,1.709010,0.041260,-0.035889,0.996597
295,-16.113527,-0.671397,1.098650,0.038575,-0.044434,0.987930
296,-17.395285,0.000000,1.220722,0.085695,0.084108,0.998062
297,-19.836728,-2.319371,-0.305180,0.035523,-0.052613,1.039689
298,-12.939651,-2.624552,-1.709010,0.029664,-0.042237,0.948989
299,-19.470512,-3.845274,-2.990768,0.046021,-0.030640,0.995987
300,-22.095064,-3.601129,-4.272526,0.053346,-0.036378,1.013565
301,-24.353399,-3.784237,-5.737392,0.049683,-0.034913,0.976089
302,-31.311513,-1.647974,-7.385367,0.053101,-0.077638,1.018204
303,-36.682689,-2.441444,-4.394598,0.067506,-0.088258,0.984024
304,-36.072328,-0.732433,-2.746624,0.034180,-0.051026,1.073503
305,-34.302281,1.709010,1.586938,0.103883,-0.040894,0.994400
306,-48.340581,2.929732,2.990768,0.030274,-0.057252,1.014908
307,-46.875715,2.380407,2.075227,0.045777,-0.092531,1.018692
308,-43.091478,2.685588,-0.976577,0.014771,-0.096315,0.998550
309,-40.650034,1.831083,-5.127031,0.034180,-0.050538,0.996963
310,-42.053864,3.173877,-8.972305,0.010864,0.023194,0.978653
311,-43.091478,-0.366217,-18.249790,-0.040162,-0.169070,1.037003
312,-47.730220,0.122072,-27.893492,-0.039429,-0.070924,1.054337
313,-45.532921,0.793469,-42.359045,0.082521,-0.301640,0.987686
314,-24.048219,0.854505,-32.776379,0.262211,-0.329595,1.080705
315,-1.953155,3.479057,-2.746624,0.322881,-0.312016,1.131487
316,-11.718929,17.334249,26.245518,0.121340,0.083375,1.021744
317,-51.270314,24.658579,16.662852,-0.044678,0.319219,0.924819
318,-115.785458,29.846647,-1.464866,0.093141,0.146853,0.951308
319,-150.942245,29.175250,1.709010,-0.114504,0.376837,0.708019
320,-200.381476,2.380407,-9.704738,-0.308354,0.324712,0.353521
321,-188.479438,-43.945983,3.234913,-0.256352,0.732921,0.803357
322,-256.900893,-82.337682,-38.635843,-0.257328,0.268437,1.636988
323,-446.906233,-136.354620,-31.921874,-0.226322,0.388922,1.089982
324,-634.897383,-224.002441,26.672770,-0.307988,-0.016236,1.673243
325,-745.738918,-281.742580,60.791943,-0.017334,0.125246,1.423484
326,-817.639429,-253.604944,80.445563,0.360845,-0.235843,0.514412
327,-1011.612116,-240.054932,148.561837,1.999969,-2.000031,1.999969
328,-631.357290,-13.488975,175.478752,0.109010,0.147341,1.999969
329,129.213397,69.398032,-131.654841,0.379767,0.273686,1.999969
330,336.919203,78.309300,-132.204166,-0.195438,1.428000,1.999969
331,157.900359,42.847333,-150.209812,-0.677745,0.681773,1.999969
332,27.588312,-26.062409,-34.973678,-0.866346,0.691295,1.067887
333,5.310140,-32.715343,-0.427253,-0.485237,0.100587,0.886000
334,114.869917,16.662852,-11.902037,-0.558358,0.006836,0.916762
335,177.126726,47.608148,-5.432212,-0.440192,0.248783,0.531258
336,131.715877,53.772793,11.718929,-0.490242,0.192020,0.550301
337,113.221942,43.152514,31.372549,-0.500862,0.018799,0.796033
338,154.238193,36.865797,44.617380,-0.386236,0.048219,0.964004
339,177.920195,26.733806,55.298695,-0.212772,0.192996,1.056413
340,183.108263,21.423667,58.960861,-0.048585,0.211429,1.226093
341,207.217517,33.325704,53.101396,0.131838,0.233280,1.329854
342,229.373617,55.115587,39.002060,0.248051,0.213993,1.316670
343,240.238041,71.107042,26.794842,0.250736,0.120485,1.256977
344,253.849088,75.074388,17.090105,0.274296,0.035889,1.254658
345,269.108110,69.459068,10.193027,0.270146,0.005249,1.271626
346,282.658122,58.716716,4.882887,0.297002,0.038453,1.390646
347,292.973220,50.110628,-2.868696,0.380743,-0.062623,1.337789
348,301.701381,45.532921,-12.268254,0.436896,-0.129152,1.359884
349,305.668727,48.950942,-23.620966,0.423102,-0.166140,1.417868
350,303.959716,63.233387,-37.232013,0.421271,-0.414801,1.059464
351,292.668040,81.300069,-45.716030,0.463630,-0.493538,0.800427
352,264.103151,75.989929,-48.401617,0.466926,-0.392584,0.862562
353,240.482185,45.410849,-55.786984,0.562387,-0.332891,1.182879
354,232.364385,28.320745,-69.336996,0.636973,-0.234257,1.598413
355,224.185550,34.668498,-86.732280,0.547494,-0.235233,1.999969
356,215.152209,51.636530,-97.596704,0.299199,-0.419074,1.999969
357,229.617762,65.613794,-101.136797,0.024292,-0.666148,1.999969
358,256.961929,73.914702,-91.248951,-0.181155,-0.796033,1.999969
359,263.370718,69.764248,-72.571908,-0.260380,-0.831067,1.999969
360,268.925002,63.721675,-51.575494,-0.202518,-0.884413,1.999969
361,288.090333,69.825284,-35.034714,-0.029786,-0.920790,1.999969
362,287.296864,81.116960,-23.376822,0.126467,-1.031022,1.591333
363,262.088960,85.999847,-13.000687,0.193851,-1.099626,1.468894
364,239.566644,81.666285,-3.479057,0.236210,-1.231586,1.565332
365,229.800870,75.989929,3.723201,0.227787,-1.394064,1.527123
366,218.814374,69.214923,11.047532,0.205814,-1.660548,1.241474
367,196.780346,65.857939,18.188754,0.298344,-1.967071,0.919692
368,158.937972,67.200732,17.578393,0.560067,-2.000031,0.664317
369,121.766995,82.642863,6.042573,0.761364,-2.000031,0.360601
370,94.544900,101.014725,-8.117800,0.664683,-2.000031,0.012207
371,60.975052,89.417868,-1.403830,0.433600,-2.000031,-0.421637
372,7.141222,31.860838,23.071641,0.246098,-1.972198,-0.397955
373,-41.199359,-42.114900,53.040360,0.240726,-1.548241,0.388067
374,-54.322118,-79.102770,71.656367,0.352178,-1.111955,0.188602
375,-181.399252,-38.147555,28.870069,1.136614,-1.772488,0.067140
376,-250.919356,-32.776379,26.794842,0.190677,-1.234150,0.001709
377,-110.048066,-64.820325,6.286717,0.286259,0.515511,1.768826
378,-117.616541,-61.036088,-18.860151,0.116701,1.071672,1.999969
379,-203.982605,-24.780652,1.770047,-0.550912,0.341314,0.187015
380,-279.789426,-64.209964,23.865110,-0.750011,-0.470222,0.241337
381,-276.066224,-68.604562,43.945983,-0.213016,-0.400275,1.999969
382,-253.482872,-41.504540,53.589685,0.346319,-0.332769,1.999969
383,-174.380102,-49.011978,39.795529,0.887709,-0.226322,1.999969
384,-117.555505,-27.161059,12.939651,0.592538,0.027466,1.589746
385,-135.500114,-22.827497,7.263294,-0.008545,-0.010986,1.304707
386,-123.720150,-16.601816,15.320058,-0.780285,-0.087160,1.129412
387,-153.688869,-63.599603,44.495308,-0.230350,-0.066163,1.999969
388,-116.884108,-86.671244,34.302281,0.849256,-0.228519,1.999969
389,-10.131991,-32.837415,6.591897,0.404913,0.126223,1.468894
390,-58.655680,-21.728847,6.897078,-0.165164,0.059815,1.129046
391,-85.877775,-34.119173,14.831769,0.054078,-0.065309,1.248188
392,-37.964446,-17.761501,-1.770047,0.342535,-0.111208,1.501122
393,-33.569848,-3.051804,1.098650,0.006226,-0.054078,1.179095
394,-20.813306,-1.525902,1.220722,0.005982,-0.064820,1.079728
395,-13.855192,2.136263,-0.244144,0.067018,-0.011353,1.110613
396,-14.526589,4.516670,0.915541,0.022705,-0.034302,1.072892
397,-6.897078,7.446403,-1.831083,0.032227,-0.237797,0.792126
398,-7.690547,6.286717,0.122072,0.052125,0.004028,1.012711
399,-15.259022,6.408789,3.356985,-0.004639,-0.027466,1.016129
400,-6.530861,5.065995,3.601129,-0.004639,0.004761,0.988785
401,-10.193027,2.014191,4.150454,-0.011353,0.015747,0.965591
402,-11.413748,-0.976577,2.929732,-0.020264,-0.031861,0.976089
403,-9.094377,-3.723201,1.831083,-0.005737,-0.006592,0.972305
404,-10.437171,-5.310140,1.342794,0.005615,-0.006104,0.986343
405,-11.779965,-5.676356,1.709010,0.017212,-0.032715,1.002701
406,-7.934691,-5.310140,0.366217,-0.015747,0.061402,1.018570
407,-9.582666,-4.943923,2.014191,0.008545,0.048096,1.015763
408,-12.146181,-5.676356,3.051804,0.019165,0.001587,1.029313
409,-7.995727,-5.859464,1.770047,-0.036255,-0.025147,0.951308
410,-10.376135,-9.216449,1.037613,-0.002564,-0.045655,0.955703
411,-10.315099,-10.620279,-0.305180,0.006226,-0.057130,0.982193
412,-8.361944,-11.413748,-0.976577,-0.000977,-0.022950,1.008194
413,-7.263294,-12.573434,-0.976577,-0.000488,-0.027955,0.972549
414,-8.178836,-12.573434,-1.281758,0.015869,-0.030274,1.014664
415,-7.873655,-11.963073,-1.159686,0.001343,-0.027588,0.996231
416,-8.545052,-12.085145,-0.854505,0.022339,-0.010864,0.999039
417,-11.596857,-11.413748,-0.671397,0.031373,-0.022217,0.990494
418,-11.596857,-10.925460,-0.488289,0.023560,-0.021241,0.995987
419,-12.939651,-10.742351,-0.305180,0.034302,-0.012451,1.005997
420,-15.747311,-10.437171,-0.488289,0.027832,-0.038575,0.984024
421,-16.113527,-10.193027,-0.549325,0.025635,-0.035157,0.974380
422,-18.066682,-10.193027,-0.671397,0.027466,-0.017700,0.979507
423,-20.874342,-10.070954,-0.976577,0.032471,-0.043946,1.006851
424,-18.921187,-9.460594,-0.976577,0.040650,-0.062867,1.042008
425,-15.625238,-8.422980,-1.159686,0.050294,-0.073976,1.002579
426,-13.977264,-7.446403,-0.610361,0.047974,-0.051759,0.976333
427,-15.930419,-7.446403,0.976577,0.043214,-0.064454,1.039322
428,-15.381094,-4.821851,1.709010,0.052979,-0.056153,0.973770
429,-19.653620,-4.394598,3.112840,0.045289,-0.042359,0.977432
430,-23.132677,-1.281758,2.563516,0.036500,-0.048829,0.975601
431,-24.353399,-1.525902,2.868696,0.030030,-0.025269,1.020157
432,-26.001373,-1.342794,2.319371,0.050660,-0.042237,0.972793
433,-35.584039,0.610361,1.403830,-0.045411,-0.083253,0.940810
434,-33.325704,-1.892119,0.549325,0.015625,-0.075441,1.063005
435,-29.968719,-2.685588,-0.183108,0.037598,-0.030518,1.018692
436,-37.781338,-1.464866,0.000000,0.051637,-0.039063,0.946792
437,-46.936751,3.173877,3.356985,0.074708,-0.100221,1.013687
438,-56.824598,3.540093,8.178836,0.074464,-0.150759,1.016373
439,-39.612421,4.699779,10.498207,0.030152,-0.087770,1.011002
440,-46.570535,4.394598,9.948882,0.025269,-0.094606,1.047745
441,-43.518730,3.356985,6.164645,-0.006226,-0.129763,0.988663
442,-30.640116,1.098650,1.525902,-0.011841,-0.102419,0.980728
443,-31.860838,-1.709010,-6.530861,-0.040162,-0.123171,1.058244
444,-39.124132,2.685588,-19.165332,-0.016602,-0.136110,0.987076
445,-41.626612,4.211490,-28.503853,0.008057,-0.130983,1.014542
446,-37.354086,3.418021,-33.630884,0.101930,-0.185306,1.002457
447,-17.090105,-0.732433,-30.640116,0.131106,-0.279301,0.996841
448,-12.573434,-2.563516,-10.131991,0.105715,-0.106813,1.092790
449,-31.555657,0.366217,-4.394598,0.029664,0.141604,0.989395
450,-86.610208,13.916228,-23.071641,0.110353,0.200076,1.017472
451,-129.396506,24.780652,-35.156786,0.117067,0.140871,0.990860
452,-163.637751,27.100023,-32.532235,-0.173709,0.448249,0.815930
453,-169.680324,-24.963760,-16.052491,-0.355352,-0.012818,1.053605
454,-239.444572,-36.438544,1.037613,-0.039673,0.996719,1.564599
455,-476.081483,-60.303655,-61.097124,-0.229862,0.221317,1.167132
456,-703.501946,-159.731441,6.591897,-0.813855,0.016724,1.860502
457,-865.369650,-260.135805,84.962234,-0.268559,0.317388,1.646021
458,-987.197681,-278.934920,114.991989,0.812757,-2.000031,1.999969
459,-1086.747540,-243.289845,255.802243,-0.846326,-2.000031,1.999969
460,45.716030,-9.216449,18.738079,-0.119265,-0.609018,1.999969
461,515.327688,68.665599,-76.539254,-0.353399,0.866957,1.999969
462,313.115129,66.468299,-50.171664,-0.419562,1.541039,0.068849
463,10.193027,-21.972992,16.235599,-0.794324,0.299931,-0.317266
464,-119.752804,-82.337682,91.493095,-0.275639,0.475471,0.078370
465,-11.474784,-43.518730,46.692607,0.042359,0.074830,0.764782
466,133.302815,5.798428,6.042573,0.051759,0.635142,0.637461
467,88.319219,18.005646,3.784237,0.161868,0.751965,0.729747
468,50.415808,15.075914,0.305180,0.080568,0.521614,0.922499
469,111.879149,13.427939,-10.925460,0.146975,0.531502,1.138811
470,153.017472,8.239872,-20.813306,0.197269,0.642832,1.208392
471,159.914549,2.014191,-27.466239,0.236210,0.533333,1.382223
472,199.282826,9.948882,-38.452735,0.228397,0.412116,1.370504
473,235.294118,20.752270,-49.683375,0.211185,0.334844,1.180926
474,245.304036,26.367590,-55.542840,0.177493,0.198734,0.982193
475,257.694362,29.419394,-59.998474,0.162600,0.096193,0.885389
476,268.863966,26.672770,-63.904784,0.126345,0.045411,0.819471
477,268.436713,22.278172,-64.820325,0.080079,0.000977,0.876600
478,266.422522,23.987182,-65.918975,0.024903,-0.102296,0.873793
479,259.647517,36.011292,-66.346227,0.009766,-0.205203,0.958511
480,249.820707,52.857252,-64.759289,-0.015137,-0.271733,1.118547
481,242.618448,63.172351,-62.623026,0.017578,-0.299077,1.295552
482,243.656062,72.022583,-62.073701,0.051637,-0.324102,1.390036
483,237.491417,86.427100,-60.242618,-0.046754,-0.411017,1.409079
484,222.720684,99.488823,-51.636530,-0.076295,-0.453986,1.569482
485,210.147250,99.061570,-40.650034,-0.128664,-0.515633,1.999908
486,215.457389,94.544900,-28.992142,-0.110597,-0.626596,1.999969
487,233.707179,95.094224,-19.775692,-0.103029,-0.784436,1.999969
488,240.726329,104.432746,-12.756542,-0.030030,-0.883925,1.958038
489,226.565957,112.245365,-6.408789,-0.000977,-0.921279,1.999969
490,220.767529,109.620813,0.183108,0.003418,-0.903456,1.999969
491,236.026551,96.986343,6.469825,0.078248,-0.861707,1.999969
492,272.953384,81.116960,8.850233,0.257084,-0.870253,1.999969
493,300.907912,78.370336,1.831083,0.692149,-0.751110,1.767483
494,284.367132,83.253223,-18.310826,0.927749,-0.687022,1.585718
495,264.774548,78.919661,-34.668498,0.788098,-0.759655,1.584741
496,266.666667,65.247578,-45.349813,0.485725,-0.879164,1.600610
497,259.586481,44.251164,-43.945983,0.158694,-1.035660,1.447532
498,249.698634,24.414435,-38.330663,-0.022461,-1.232685,1.253559
499,231.082628,21.911955,-35.828183,-0.023438,-1.463279,1.004776
500,194.705119,39.124132,-37.537194,0.123049,-1.768948,0.728771
501,144.594492,70.984970,-45.288777,0.269780,-2.000031,0.573739
502,96.253910,109.559777,-52.918288,0.257206,-2.000031,0.445563
503,69.520104,135.561151,-48.035401,0.067384,-2.000031,0.276249
504,44.678416,118.471046,-15.625238,-0.135500,-2.000031,-0.025635
505,5.798428,52.674144,30.762188,-0.134035,-2.000031,-0.158938
506,-27.893492,-37.720302,71.229114,0.150149,-1.632715,0.301518
507,-93.812467,-117.677577,72.327764,0.336187,-2.000031,-1.411643
508,-232.974746,-157.839323,96.803235,0.952041,-0.998428,0.047364
509,-150.087739,-101.075761,62.378882,0.477913,-0.476814,1.479881
510,-99.549859,-65.430686,30.518044,0.250370,1.097429,1.999969
511,-133.119707,-77.576867,43.701839,0.630747,0.584482,0.345953
512,-270.206760,-81.177996,40.344854,0.557259,0.108400,-0.168582
513,-319.829099,-51.697566,58.167391,0.655283,-0.297612,1.773831
514,-289.921416,-26.123445,42.481117,1.204242,-0.297612,1.999969
515,-164.736400,24.658579,-4.272526,0.778698,-0.196780,1.999969
516,-131.288624,36.621653,-23.804074,-0.100587,-0.026246,1.366598
517,-163.088426,34.180209,-3.845274,-1.339376,-0.231937,1.931914
518,-140.749218,-28.015564,37.170977,-1.613184,-0.668467,1.881743
519,-64.271000,-85.267414,47.058824,-0.028077,-0.276616,1.163714
520,-46.875715,-101.991302,39.307240,1.093034,0.502815,1.760159
521,-62.500954,-60.914015,21.301595,0.690806,0.092042,1.485496
522,-40.039673,-42.420081,15.503166,-0.590463,-0.034913,1.029068
523,-53.711757,-71.412222,21.545739,0.067262,0.160647,1.316426
524,-45.471885,-57.007706,7.507439,0.654185,0.109621,1.447166
525,-44.068055,-25.879301,4.211490,-0.059815,-0.101076,1.140642
526,-36.987869,-31.494621,4.028382,-0.101320,0.048219,1.095109
527,-32.898451,-29.419394,1.647974,0.251102,0.121584,1.213642
528,-35.095750,-12.268254,2.136263,0.117311,0.021851,1.194476
529,-24.597543,-6.042573,2.075227,0.011719,0.055787,1.059098
530,-28.686961,-3.356985,1.831083,0.074220,0.049561,1.086564
531,-26.306554,-0.793469,4.150454,-0.021973,0.043336,1.017472
532,-25.940337,-3.051804,4.882887,0.026490,0.031861,1.021744
533,-26.001373,-1.770047,4.760815,-0.052003,0.111208,1.284443
534,-20.752270,-3.051804,6.713970,0.004761,0.042725,0.983047
535,-22.095064,-4.638743,5.615320,0.001343,0.032593,0.949477
536,-22.827497,-5.920500,4.333562,-0.015747,0.025391,0.989151
537,-24.597543,-8.056764,4.333562,-0.020264,-0.008911,1.026505
538,-21.118486,-11.291676,3.112840,0.004639,0.038209,0.998550
539,-20.569162,-11.413748,2.868696,0.001709,0.009400,0.987076
540,-24.170291,-14.953841,3.601129,-0.017823,-0.005493,1.041276
541,-18.738079,-16.540780,2.075227,0.031983,-0.017212,1.043229
542,-17.212177,-14.282444,0.854505,0.029053,-0.050782,1.063249
543,-11.779965,-12.207218,1.403830,0.040894,-0.037964,1.033463
544,-8.117800,-10.254063,0.976577,0.020996,-0.004517,1.018082
545,-10.620279,-9.765774,1.464866,0.011353,0.022339,0.972793
546,-12.573434,-10.559243,1.831083,0.013794,0.048951,1.016495
547,-14.892805,-10.864424,1.831083,0.048585,-0.063844,0.982315
548,-12.695506,-9.582666,1.709010,0.026978,0.001099,1.054826
549,-11.230640,-8.606088,1.647974,0.033326,0.003540,0.974136
550,-12.512398,-8.728161,1.831083,0.039551,-0.043580,0.954360
551,-12.146181,-9.887846,1.342794,0.019532,-0.045289,0.954360
552,-14.770733,-11.413748,0.854505,0.031861,-0.024781,0.976699
553,-15.869383,-11.841001,0.427253,0.034302,-0.019287,0.996597
554,-13.977264,-11.718929,0.305180,0.050416,-0.006836,1.010269
555,-15.197986,-11.230640,0.305180,0.050172,-0.032837,1.006363
556,-14.343481,-9.887846,0.122072,0.070314,-0.050172,1.028214
557,-10.986496,-7.812619,1.342794,0.064088,-0.048219,1.002945
558,-8.911269,-6.652934,1.831083,0.075685,-0.066773,0.954116
559,-12.024109,-6.225681,2.807660,0.070924,-0.059571,0.933852
560,-9.765774,-5.737392,2.380407,0.061646,-0.015137,0.954238
561,-21.057450,-6.836042,2.136263,0.046387,-0.005005,0.961685
562,-25.635157,-7.324331,2.502480,0.054932,-0.038209,0.972549
563,-26.428626,-6.530861,2.136263,0.057496,-0.036500,1.019547
564,-29.541466,-3.540093,1.586938,0.083253,-0.027710,1.014542
565,-30.945296,-1.709010,2.014191,0.052003,-0.038453,0.994888
566,-33.569848,-1.037613,2.014191,0.043580,-0.069825,0.972915
567,-31.677729,-0.366217,1.403830,0.054566,-0.063111,0.985000
568,-36.438544,1.342794,2.929732,0.105592,0.147341,0.912367
569,-45.044633,4.089418,2.563516,0.105348,-0.074464,1.065446
570,-53.894865,5.554284,7.690547,0.065309,-0.112306,1.029068
571,-43.640803,7.995727,8.606088,0.043702,-0.119631,0.985855
572,-37.781338,6.103609,8.911269,0.017945,-0.078370,0.997330
573,-39.734493,4.821851,2.929732,-0.040162,-0.056031,1.001724
574,-42.175937,2.136263,-7.141222,-0.006714,-0.090211,0.901625
575,-48.462654,2.624552,-15.991455,0.026123,-0.111086,0.970230
576,-44.068055,1.098650,-26.611734,-0.033082,-0.074708,0.999649
577,-53.284504,-5.798428,-35.400931,0.050904,-0.283574,1.024552
578,-30.518044,-7.263294,-22.095064,0.202396,-0.150027,1.008560
579,-25.085832,-5.371176,-9.033341,0.108156,-0.128542,1.078508
580,-52.429999,2.014191,-6.713970,0.119387,0.021607,1.069963
581,-78.004120,16.296635,-15.320058,0.199344,0.052247,1.018204
582,-104.493782,27.771420,-14.160372,0.042847,0.210941,0.932631
583,-165.712978,34.302281,-20.386053,-0.013794,0.449470,0.807507
584,-207.400626,-2.075227,-23.804074,-0.355108,0.020508,0.492195
585,-209.475853,-41.870756,13.183795,-0.204349,0.919570,1.531029
586,-362.554360,-67.994202,-58.899825,-0.223880,0.582773,1.714870
587,-531.013962,-152.529183,-31.311513,-0.557504,-0.130129,1.082536
588,-688.670176,-237.308309,32.532235,-0.022950,-0.015869,0.955337
589,-788.708324,-236.148623,70.191501,0.324834,0.032349,1.053361
590,-876.173037,-214.297704,70.130465,0.457404,-1.083513,1.316793
591,-1091.630427,-178.286412,216.800183,-0.477790,-1.787015,1.999969
592,-371.160449,-65.003433,34.546426,-0.771008,-1.740383,1.999969
593,234.500649,-1.464866,-59.021897,-0.350469,0.890150,1.999969
594,212.039368,46.692607,-60.181582,-0.232914,1.480735,1.999969
595,35.400931,30.945296,-16.235599,-0.844251,0.479500,1.909697
596,-29.480430,-32.532235,56.458381,-0.558724,0.237675,1.536645
597,70.191501,-10.254063,60.181582,-0.325933,0.148684,1.165911
598,178.286412,9.033341,49.866484,-0.211795,0.337774,0.776745
599,152.590219,15.869383,54.810407,-0.026734,0.376226,0.617075
600,122.987716,20.263981,56.580453,-0.022583,0.233890,0.793225
601,156.740673,26.062409,50.843061,0.088136,0.212528,0.846693
602,186.892500,24.170291,42.236973,0.184085,0.299687,0.828992
603,189.150835,15.075914,33.142596,0.306523,0.302495,0.867933
604,203.006027,17.212177,17.883574,0.350958,0.272343,0.975235
605,222.537575,27.527276,-0.549325,0.361944,0.248661,1.004532
606,230.838483,36.438544,-15.869383,0.320195,0.197147,1.019791
607,239.383536,38.086519,-27.466239,0.258549,0.110597,1.109880
608,253.177691,34.607462,-34.912642,0.191409,0.027832,1.243671
609,268.925002,30.395972,-39.490349,0.171267,-0.064576,1.280415
610,283.146410,28.870069,-43.823911,0.141238,-0.111086,1.405905
611,298.527504,30.701152,-46.265354,0.166018,-0.125002,1.445823
612,308.049134,36.255436,-49.622339,0.182498,-0.196902,1.451316
613,314.885176,44.861524,-53.833829,0.180911,-0.295781,1.361715
614,313.481346,62.073701,-58.899825,0.166262,-0.517830,0.975479
615,297.245747,90.577554,-59.449149,0.194217,-0.660044,0.641978
616,264.957656,104.676890,-53.894865,0.216678,-0.557382,0.658579
617,230.289158,83.558404,-50.232700,0.288457,-0.426520,1.043717
618,221.194781,59.021897,-52.918288,0.338018,-0.298589,1.727077
619,215.701534,53.772793,-57.801175,0.383795,-0.286259,1.999969
620,234.134432,69.886320,-63.355459,0.322637,-0.492683,1.999969
621,269.413291,86.793317,-71.290150,0.193362,-0.644541,1.999969
622,268.497749,87.647822,-66.956588,0.064820,-0.712047,1.999969
623,260.379950,73.365377,-56.763561,0.043580,-0.843763,1.999969
624,269.840543,70.191501,-51.270314,0.220584,-0.876234,1.935576
625,260.868238,79.468986,-50.659953,0.386725,-0.816785,1.999969
626,251.407645,82.948043,-51.575494,0.493660,-0.870008,1.918975
627,256.717784,81.116960,-58.411536,0.497078,-0.911025,1.718532
628,244.449531,71.595331,-60.852979,0.352422,-1.006851,1.645289
629,233.707179,60.791943,-58.838788,0.167239,-1.193256,1.583032
630,228.274968,56.092164,-53.589685,0.052613,-1.356222,1.457542
631,213.626307,57.557031,-43.762875,0.034546,-1.555322,1.206439
632,191.165026,61.158160,-33.264668,0.130983,-1.804227,0.926040
633,155.642023,66.041047,-26.428626,0.247440,-2.000031,0.685313
634,117.494469,77.698940,-23.987182,0.250736,-2.000031,0.427741
635,88.441291,87.342641,-12.451362,0.192874,-2.000031,0.023926
636,54.505226,69.764248,8.056764,0.034302,-2.000031,-1.536889
637,-43.152514,-38.452735,52.857252,0.269535,-2.000031,-1.004166
638,-141.420615,-133.424887,84.290837,0.712657,-2.000031,-0.432624
639,-198.916609,-135.866331,82.398718,0.977798,-1.736110,0.669810
640,-247.013046,-92.530709,66.224155,0.505501,-1.680201,0.449104
641,-114.198520,-82.032502,39.673457,0.441657,0.157229,1.819486
642,-112.367437,-69.153887,19.958801,0.448615,1.183856,1.999969
643,-216.739147,-46.082246,29.724575,0.099611,0.394171,0.598398
644,-254.398413,-47.302968,36.621653,-0.120241,-0.395148,0.745251
645,-238.651102,-41.565576,46.936751,0.340093,-0.305913,1.818021
646,-221.194781,-13.550011,38.208591,0.844617,-0.040894,1.999969
647,-166.872663,18.493935,10.742351,0.336309,-0.256840,1.999969
648,-144.167239,9.643702,14.099336,-0.712779,-0.016602,1.999969
649,-133.791104,-49.927520,33.630884,-0.961929,-0.713756,1.999969
650,-36.499580,-101.136797,31.677729,0.231083,0.151492,1.862821
651,-53.833829,-89.356832,23.682002,1.236713,0.368902,1.872465
652,-52.674144,-28.320745,6.713970,0.251957,0.159792,1.433738
653,-53.040360,-25.513085,9.826810,-0.499519,-0.024170,1.085466
654,-52.613108,-47.730220,6.225681,0.333257,0.045655,1.332052
655,-42.175937,-23.926146,0.122072,0.268559,-0.006226,1.224750
656,-40.833143,-15.136950,2.746624,-0.187137,-0.026123,1.304952
657,-22.034028,-21.362631,0.305180,0.134279,0.039185,1.137346
658,-16.784924,-12.634470,-2.197299,0.090578,0.077638,1.048112
659,-26.306554,-8.178836,2.441444,-0.014405,-0.003662,1.042985
660,-18.371862,-7.751583,1.831083,0.025513,0.049683,1.030411
661,-22.705425,-4.821851,2.014191,0.066285,0.033936,0.982925
662,-26.794842,-1.831083,4.028382,-0.012940,0.021607,1.008072
663,-25.268940,-1.709010,3.784237,0.046632,0.035035,0.996109
664,-29.114214,0.427253,4.272526,0.022339,0.010254,1.029923
665,-28.870069,3.356985,1.647974,0.155154,-0.190311,0.688853
666,-23.315785,2.502480,3.601129,0.033326,-0.026612,1.099626
667,-21.728847,1.953155,4.577707,-0.002930,-0.018799,1.029801
668,-16.662852,1.342794,3.356985,0.008667,-0.019654,1.021012
669,-14.648661,1.403830,3.051804,0.005737,-0.025147,1.028580
670,-13.061723,1.037613,2.685588,0.000732,-0.020508,1.015763
671,-11.657893,0.671397,2.075227,0.008301,-0.025757,1.022965
672,-9.155413,1.281758,1.586938,-0.107057,0.084718,1.234516
673,-6.897078,1.342794,2.685588,0.047120,0.009277,0.946426
674,-11.230640,1.342794,2.136263,0.002197,-0.031373,0.963027
675,-10.009918,1.403830,1.709010,0.005005,-0.037842,1.003799
676,-9.887846,1.281758,1.525902,0.002075,-0.031617,1.015763
677,-9.643702,1.037613,2.014191,0.010742,-0.051759,1.025772
678,-5.493248,1.525902,2.014191,0.004150,-0.048707,1.021134
679,-3.906310,1.281758,2.258335,-0.011353,-0.046021,0.985733
680,-0.488289,-0.183108,1.709010,-0.024414,-0.009277,0.947158
681,-4.943923,-4.028382,1.403830,-0.033692,-0.021363,0.941543
682,-8.300908,-7.019150,0.854505,-0.003296,-0.030640,0.973526
683,-9.704738,-7.995727,0.305180,0.008667,-0.020630,0.984146
684,-12.817578,-8.789197,0.671397,0.013916,-0.035889,1.008927
685,-9.643702,-6.836042,-1.770047,-0.008667,-0.226932,0.969863
686,-8.728161,-6.897078,-0.610361,0.050538,-0.091554,0.963882
687,-12.939651,-7.263294,1.464866,0.018799,-0.055421,0.987198
688,-13.427939,-6.775006,2.136263,0.000855,-0.000855,1.006241
689,-15.564202,-7.080186,1.892119,0.005493,-0.020630,0.974136
690,-18.616007,-7.507439,2.319371,0.026734,-0.035035,0.965103
691,-21.423667,-7.446403,2.258335,0.017945,-0.034668,0.988663
692,-21.240558,-7.568475,2.441444,0.021729,-0.033082,0.971328
693,-23.437858,-7.385367,2.075227,0.039429,-0.032471,0.973648
694,-26.977951,-7.446403,1.892119,0.016480,-0.035157,0.995254
695,-27.649348,-7.202258,1.586938,0.032349,-0.036011,0.966323
696,-32.043946,-7.690547,1.709010,0.018067,-0.029175,0.990616
697,-33.447776,-9.643702,2.258335,-0.003784,-0.039796,1.055802
698,-31.189441,-7.690547,0.549325,0.053346,-0.070314,0.941665
699,-35.889220,-4.943923,2.746624,0.058839,-0.022095,1.042618
700,-47.180896,-0.366217,6.469825,0.075074,-0.093996,1.039322
701,-45.716030,2.624552,9.033341,0.023926,-0.128542,0.968643
702,-40.833143,4.394598,11.413748,0.064088,-0.059449,0.998062
703,-54.077974,5.859464,11.047532,-0.020874,-0.100099,0.997208
704,-55.909056,4.089418,11.413748,-0.011475,-0.095949,0.994644
705,-50.232700,2.624552,6.164645,-0.029297,-0.106813,0.972427
706,-48.462654,-2.441444,0.427253,-0.069947,-0.095094,1.045060
707,-42.114900,-4.882887,-15.686275,-0.017212,-0.161013,0.960464
708,-34.363317,-3.479057,-23.254749,-0.030884,-0.069581,1.034684
709,-60.914015,3.967346,-42.664225,0.043702,-0.180423,1.026017
710,-39.551385,7.446403,-30.090791,0.143557,-0.435187,1.111467
711,-0.366217,-0.183108,-6.713970,0.044190,-0.230472,0.834974
712,-9.338521,-11.047532,-12.878614,0.004150,0.096681,0.990372
713,-55.481804,-8.056764,-25.024796,0.047242,0.251591,0.997574
714,-128.114748,2.624552,-32.043946,0.131228,0.309819,1.020768
715,-168.093385,16.723888,-34.851606,-0.008911,0.547982,0.845106
716,-191.470207,-24.963760,-28.320745,-0.437751,0.412238,1.079118
717,-308.781567,-50.476844,-23.743038,-0.069459,1.022721,1.618311
718,-600.656138,-83.497368,-47.608148,-0.557748,0.568612,1.087175
719,-757.885100,-197.085527,60.486763,-0.361212,-0.204715,1.349020
720,-888.624399,-309.330892,110.841535,0.054444,-0.023682,1.469017
721,-1115.556573,-333.867399,178.408484,1.005753,-0.568978,1.999969
722,-346.257725,-88.685435,223.208972,0.336919,1.259419,1.999969
723,320.439460,27.710384,-133.546960,-0.300175,0.718517,1.999969
724,473.334859,22.949569,-93.446250,-0.837659,0.962173,0.558968
725,125.246052,-7.507439,-89.600977,-0.925551,0.499641,-0.234257
726,-45.288777,-76.661326,55.664912,-0.847425,0.125124,-0.126833
727,-58.594644,-82.764935,80.262455,-0.406378,0.122194,0.648569
728,57.190814,-33.813993,38.941024,-0.359747,0.140871,0.905165
729,138.307774,10.742351,25.452049,-0.250004,0.537850,0.658213
730,104.066529,28.931106,30.823224,-0.247929,0.589975,0.553964
731,80.201419,28.198672,34.729534,-0.218875,0.453742,0.705455
732,123.659113,30.395972,31.494621,-0.135012,0.435554,0.812146
733,153.078508,26.916915,27.527276,-0.009277,0.511116,0.849866
734,156.862745,22.644388,23.315785,0.095338,0.478279,1.019303
735,182.497902,25.452049,13.855192,0.188602,0.419806,1.092790
736,212.710765,29.114214,2.014191,0.219730,0.395392,1.066545
737,228.580148,23.254749,-7.202258,0.242313,0.330938,1.013565
738,243.595026,18.554971,-16.601816,0.253422,0.272709,0.944228
739,255.558099,18.554971,-27.649348,0.241703,0.199466,0.910414
740,256.046387,26.794842,-37.293050,0.216312,0.093263,0.810315
741,250.919356,39.185168,-44.495308,0.170779,-0.028199,0.708751
742,241.031510,47.119860,-49.011978,0.219608,-0.076051,0.773693
743,229.312581,49.317159,-54.261082,0.339605,-0.072023,0.862562
744,223.086900,47.241932,-65.064469,0.415167,0.001587,1.113787
745,215.274281,46.875715,-77.393759,0.388190,0.023804,1.601953
746,214.541848,53.650721,-86.854353,0.338384,-0.056275,1.999969
747,232.059205,66.468299,-94.850080,0.234012,-0.160403,1.999969
748,255.008774,73.731594,-99.732967,0.040040,-0.391608,1.994049
749,259.403372,73.609522,-92.652781,-0.063478,-0.484016,1.954376
750,252.933547,70.313573,-81.483177,-0.156497,-0.508064,1.999969
751,257.511254,64.698253,-69.886320,-0.191653,-0.659556,1.999969
752,269.169146,77.882048,-62.745098,-0.168338,-0.823621,1.696559
753,253.421836,101.075761,-49.744411,-0.260990,-0.752331,1.739406
754,225.162127,104.127565,-30.029755,-0.255375,-0.752087,1.999969
755,235.660334,96.559091,-12.512398,-0.170535,-0.716320,1.999969
756,247.867552,93.080034,0.793469,0.173465,-0.624643,1.999969
757,252.323186,102.113375,4.943923,0.553964,-0.611215,1.999969
758,254.398413,108.644236,-1.953155,0.659800,-0.681041,1.787625
759,248.355840,98.451209,-10.681315,0.633310,-0.757458,1.482567
760,229.129473,84.412909,-18.493935,0.502815,-0.933242,1.349264
761,207.644770,77.821012,-25.146868,0.423468,-1.157855,1.299214
762,181.338216,75.989929,-31.677729,0.458381,-1.481590,1.310933
763,156.252384,81.055924,-36.133364,0.659312,-1.947417,1.145159
764,117.494469,96.498054,-55.054551,0.839979,-2.000031,0.783581
765,94.483864,126.405737,-72.816052,0.641611,-2.000031,0.305547
766,73.426413,129.274434,-70.069429,0.340337,-2.000031,-0.264408
767,20.508125,69.275959,-37.598230,-0.018555,-2.000031,-0.401007
768,-31.921874,-26.184482,6.286717,-0.145266,-1.827298,0.104128
769,-48.401617,-88.380255,36.804761,-0.252567,-1.794705,-1.415793
770,-157.351034,-164.492256,57.984283,0.110475,-1.477317,-0.556649
771,-267.826352,-188.418402,75.318532,0.195804,-1.486839,0.602792
772,-150.026703,-106.019684,64.454108,-0.206912,-0.005615,1.999969
773,-117.799649,-73.304341,56.702525,-0.374151,0.993790,1.947539
774,-185.427634,-84.657053,82.215610,0.069337,0.656870,0.371832
775,-286.198215,-109.803922,89.539940,0.693614,-0.234989,0.261967
776,-279.789426,-89.967193,81.055924,1.092912,-0.112184,1.999969
777,-255.863279,-60.425727,60.975052,1.403098,-0.084230,1.999969
778,-163.881895,-30.029755,24.719615,1.224384,-0.179812,1.999969
779,-130.434119,-10.559243,-2.746624,0.088746,0.058473,1.601831
780,-155.825132,-11.718929,9.521630,-1.041764,-0.357794,1.518700
781,-143.984131,-53.955901,43.701839,-1.172015,-0.405890,1.574975
782,-112.428473,-101.686122,53.833829,0.412360,0.161013,1.999969
783,-96.314946,-88.441291,18.799115,1.714137,0.132937,1.999969
784,-52.674144,-16.968032,-4.882887,0.152224,0.062013,1.363668
785,-76.661326,-27.038987,-1.342794,-0.711681,-0.259403,1.499901
786,-42.969406,-59.998474,5.920500,0.401862,-0.054688,1.287984
787,-22.644388,-26.428626,-6.836042,0.535164,0.110597,1.346456
788,-42.603189,-5.798428,4.821851,-0.076417,-0.029908,1.138689
789,-11.108568,-12.329290,-0.427253,-0.030396,0.012940,1.126848
790,-9.582666,-11.657893,-0.610361,0.189334,0.199222,1.004654
791,-20.935378,-4.394598,3.356985,0.037842,0.007324,1.112932
792,-10.803388,-1.953155,2.685588,0.006470,0.017700,1.037491
793,-8.361944,-1.586938,5.371176,0.102052,0.075196,1.004776
794,-14.953841,3.723201,6.347753,0.053590,0.043091,1.023087
795,-14.648661,4.272526,6.469825,0.011353,0.034302,0.978653
796,-15.197986,4.089418,5.798428,0.038331,0.084962,0.931044
797,-26.245518,3.295949,5.493248,0.004150,0.029297,0.914076
798,-31.860838,1.281758,5.249104,0.005859,0.068360,0.995987
799,-30.334936,1.098650,2.929732,0.023438,0.100832,0.959976
800,-37.964446,-1.281758,2.685588,-0.056397,0.152224,0.949233
801,-42.175937,-3.601129,4.821851,0.029908,0.044068,0.990372
802,-30.945296,-0.671397,2.075227,0.023438,0.008667,1.009659
803,-36.926833,-2.014191,2.502480,0.014282,0.003418,0.968276
804,-38.208591,-2.258335,2.868696,0.045777,-0.026123,1.088762
805,-33.020523,-1.770047,2.685588,0.007935,-0.040894,1.023331
806,-27.649348,-3.051804,1.709010,0.012451,-0.019898,0.968521
807,-33.325704,-5.004959,1.098650,0.013306,-0.020996,1.007218
808,-31.982910,-6.164645,0.000000,0.007446,-0.057130,0.991958
809,-30.212863,-7.019150,-1.159686,0.023682,-0.045533,1.001724
810,-30.334936,-7.568475,-1.159686,0.037476,-0.062257,1.008316
811,-28.870069,-7.934691,-0.854505,0.027100,-0.049439,1.006119
812,-29.175250,-8.178836,-1.647974,0.035401,-0.073365,0.992447
813,-27.283131,-8.117800,-1.770047,0.030396,-0.075563,1.012100
814,-26.184482,-8.606088,-1.525902,0.044190,-0.076051,1.007218
815,-26.428626,-7.995727,-1.159686,0.068727,-0.095583,0.985367
816,-25.329976,-6.836042,-1.159686,0.031983,-0.111452,1.016739
817,-22.278172,-4.577707,-1.098650,0.069703,-0.114015,1.053605
818,-20.202945,-2.319371,-1.770047,0.004639,-0.186648,1.210101
819,-24.780652,-1.586938,0.000000,0.050172,-0.113283,0.992447
820,-21.667811,-0.854505,0.366217,0.046632,-0.100465,0.987076
821,-18.738079,-0.366217,0.671397,0.039429,-0.087526,1.024308
822,-20.691234,-0.793469,0.427253,0.023804,-0.099855,0.983291
823,-21.728847,-0.793469,-0.244144,0.039796,-0.091310,0.971328
824,-24.414435,-2.014191,-1.586938,0.010254,-0.095827,0.970474
825,-27.771420,-2.502480,-2.014191,0.042359,-0.068360,0.941421
826,-38.269627,-1.709010,-1.220722,0.059571,-0.078370,1.015640
827,-41.382467,-0.549325,-2.319371,0.037354,-0.106203,1.018936
828,-38.330663,-0.061036,-1.831083,0.039063,-0.129763,0.962295
829,-40.772107,0.610361,0.976577,0.063966,-0.166018,1.047013
830,-32.166018,2.685588,2.197299,0.025879,-0.152956,1.006241
831,-29.419394,2.197299,3.906310,0.065797,-0.160403,0.998917
832,-30.579080,3.845274,4.699779,0.041382,-0.166873,0.931655
833,-27.771420,3.967346,4.577707,0.014038,-0.113527,0.999893
834,-28.320745,3.723201,-2.380407,-0.014405,-0.149905,1.021134
835,-19.958801,-0.183108,-7.873655,-0.029664,-0.191287,0.992935
836,-21.667811,-1.586938,-18.432898,-0.065064,-0.090455,1.084611
837,-32.288090,-1.831083,-34.546426,-0.071534,-0.170901,1.046159
838,-44.312200,-2.563516,-39.002060,0.123537,-0.233036,0.995987
839,-22.949569,-3.845274,-26.428626,0.184329,-0.327764,1.061173
840,-6.286717,-3.051804,-10.193027,0.156985,-0.126955,1.085710
841,-21.545739,8.239872,-14.831769,0.130495,0.057496,0.978775
842,-54.077974,19.409476,-28.442817,0.178836,0.114504,0.938491
843,-93.690394,30.823224,-27.954528,0.009033,0.322881,0.870497
844,-174.380102,23.804074,-49.683375,-0.104616,0.216068,0.228031
845,-146.974899,-15.197986,-18.554971,-0.065797,0.394415,0.811414
846,-253.788052,-19.775692,-41.565576,0.176761,1.113664,0.794934
847,-427.435721,-58.472572,-87.159533,-0.377569,0.016114,1.025650
848,-611.825742,-184.206912,0.732433,-0.782605,-0.216922,1.682033
849,-764.599069,-299.748226,95.155261,-0.225589,0.039429,1.275166
850,-871.107042,-303.410391,126.771954,0.323857,0.059205,1.056657
851,-1115.495537,-301.335164,196.658274,1.588525,-2.000031,1.999969
852,-544.930190,-87.220569,187.502861,-0.142092,-0.102296,1.999969
853,276.554513,47.669184,-120.668345,0.394171,0.775158,1.999969
854,421.210040,85.999847,-121.339742,-0.410040,1.349142,1.983551
855,182.314794,63.965820,-119.813840,-0.790661,1.315572,1.084733
856,-10.131991,-5.127031,-14.709697,-0.847181,0.191409,-0.005127
857,-65.552758,-40.588998,33.447776,-0.584482,-0.011963,0.324224
858,32.227054,-15.808347,30.701152,-0.547738,0.012696,0.533455
859,121.950103,0.732433,26.672770,-0.385870,0.293339,0.562997
860,91.432059,2.014191,37.232013,-0.247318,0.411872,0.710582
861,68.116274,0.671397,44.068055,-0.111208,0.359747,1.075944
862,115.236133,12.390326,36.011292,0.012696,0.387335,1.268696
863,153.994049,23.437858,25.940337,0.072755,0.483894,1.302022
864,162.539101,24.963760,19.531548,0.121706,0.446662,1.397726
865,190.920882,28.015564,11.047532,0.181888,0.318730,1.433371
866,226.688029,34.302281,-0.732433,0.194095,0.256474,1.459983
867,249.576562,37.537194,-8.484016,0.189822,0.186282,1.421042
868,271.732662,42.542153,-15.259022,0.148440,0.065309,1.385397
869,292.301823,46.387427,-20.202945,0.119875,-0.057740,1.270527
870,306.340124,48.279545,-22.888533,0.124758,-0.144045,1.076188
871,310.185397,45.838102,-24.902724,0.180789,-0.134768,1.066789
872,307.133593,41.565576,-28.809033,0.226444,-0.157473,1.150774
873,304.692149,46.143282,-35.706111,0.229252,-0.259403,1.176043
874,295.109483,69.336996,-43.823911,0.312139,-0.486702,0.942519
875,284.061952,84.779126,-49.622339,0.304326,-0.472663,0.858045
876,261.539635,74.952316,-54.566262,0.302373,-0.440803,0.788586
877,244.022278,67.689021,-63.233387,0.322759,-0.387579,0.990249
878,214.419776,68.726635,-67.322805,0.226688,-0.271000,1.631006
879,190.615702,66.163119,-68.116274,0.202029,-0.327398,1.999969
880,218.753338,66.956588,-74.830243,0.163577,-0.492805,1.999969
881,271.671626,82.887007,-82.764935,0.137819,-0.615000,1.999969
882,274.296178,99.000534,-85.023270,0.065797,-0.729870,1.999969
883,258.304723,107.057298,-81.849393,0.034424,-0.881971,1.798367
884,252.323186,116.456855,-79.713130,0.070924,-0.959976,1.565454
885,232.425422,124.147402,-74.525063,0.121584,-0.872694,1.681422
886,212.039368,129.579614,-68.238346,0.190311,-0.847181,1.907622
887,214.297704,138.918135,-63.111315,0.219852,-0.822400,1.998688
888,211.673152,134.889754,-54.322118,0.165530,-0.895766,1.937530
889,214.908064,117.006180,-41.626612,0.093629,-1.052262,1.801175
890,216.189822,87.953002,-27.710384,0.105226,-1.227070,1.674952
891,213.687343,64.759289,-15.197986,0.135378,-1.432151,1.531273
892,207.644770,55.542840,-8.117800,0.084230,-1.705104,1.257099
893,190.798810,58.045319,-1.037613,0.049683,-2.000031,1.010636
894,156.801709,65.491722,10.742351,0.094606,-2.000031,0.838514
895,122.377356,70.435645,26.367590,0.234745,-2.000031,0.514656
896,96.681163,71.290150,37.659266,0.363165,-2.000031,0.027955
897,70.313573,63.599603,39.856565,0.345098,-2.000031,-0.443610
898,11.963073,26.611734,62.989242,0.286625,-2.000031,-0.495003
899,-93.934539,-60.730907,80.384527,0.273075,-2.000031,-2.000031
900,-259.891661,-178.652628,117.128252,1.167987,-1.320821,-0.340826
901,-156.740673,-134.279393,74.097810,1.163836,-0.233280,1.942290
902,-60.791943,-72.510872,29.846647,0.372198,1.531395,1.999969
903,-105.470359,-79.468986,28.503853,0.157107,1.153948,0.295293
904,-293.949798,-95.155261,42.175937,0.122316,-0.099245,-0.562142
905,-325.017166,-72.999161,57.495995,0.050172,-0.631601,1.538109
906,-284.245060,-51.209277,59.754330,0.634409,-0.267582,1.999969
907,-186.160067,-7.324331,37.842374,0.980728,-0.250126,1.999969
908,-138.368811,22.400244,13.427939,0.757214,0.213016,1.601831
909,-178.713664,23.315785,22.400244,-0.499153,0.215213,1.999969
910,-136.964981,-9.399557,31.799802,-1.145159,-0.991104,1.794461
911,-29.846647,-54.993515,30.518044,-0.550790,-0.044190,0.817151
912,-77.943084,-88.258183,36.255436,0.860487,0.325933,1.642969
913,-55.054551,-57.312886,18.554971,0.686290,-0.007080,1.645411
914,-35.950256,-34.302281,10.254063,-0.351324,-0.012573,1.375509
915,-36.316472,-54.077974,12.756542,-0.046143,0.029541,0.948379
916,-30.884260,-47.669184,4.272526,0.370123,0.226566,1.299825
917,-44.068055,-29.968719,5.798428,0.064088,0.026978,1.179828
918,-31.616693,-25.757229,2.319371,-0.045411,-0.006714,1.111345
919,-27.588312,-25.452049,2.014191,0.104250,0.022827,1.072160
920,-23.498894,-18.249790,1.098650,0.078981,0.073610,1.048722
921,-26.001373,-13.183795,2.319371,0.081178,0.044068,1.098283
922,-21.179522,-7.324331,2.258335,0.024781,0.079469,1.043351
923,-24.841688,-5.554284,3.234913,0.023560,0.071534,0.948989
924,-28.686961,-4.394598,4.211490,0.012696,0.040650,0.992325
925,-27.771420,-4.028382,3.662165,-0.042481,0.107790,1.142718
926,-24.109255,-5.310140,4.821851,0.012573,0.058228,1.004532
927,-25.207904,-5.676356,4.150454,-0.001099,0.032959,1.010880
928,-23.498894,-5.615320,3.479057,0.003418,0.019043,1.050431
929,-21.667811,-3.418021,-0.122072,0.045533,-0.199344,0.825940
930,-16.662852,-3.662165,1.464866,0.019165,0.021729,1.068864
931,-19.287404,-2.319371,3.051804,0.025513,0.014160,1.041642
932,-16.784924,0.122072,3.356985,0.018677,0.000366,1.027237
933,-14.587625,1.281758,3.356985,0.009522,0.015991,1.013565
934,-16.174563,1.464866,3.234913,0.000732,0.022217,1.014054
935,-15.075914,1.403830,2.990768,-0.021729,0.004639,0.996719
936,-12.390326,0.427253,2.563516,0.000366,-0.006470,1.015885
937,-9.216449,-0.549325,1.525902,-0.023926,0.038575,1.061784
938,-7.690547,-0.549325,2.197299,-0.005249,0.001343,0.991714
939,-5.676356,-1.464866,1.647974,-0.012207,-0.015747,0.946670
940,-4.882887,-4.211490,1.586938,-0.044678,0.079103,0.975235
941,-8.300908,-9.155413,1.525902,-0.045533,0.038087,0.922133
942,-11.535821,-12.512398,-0.244144,-0.031006,0.018799,0.965835
943,-12.512398,-14.282444,-0.427253,-0.001343,-0.026856,1.018692
944,-12.451362,-13.916228,-0.488289,0.016236,-0.014038,0.997818
945,-13.122759,-12.512398,-2.868696,0.036622,-0.131472,0.831189
946,-15.320058,-13.183795,-0.793469,0.051514,0.015015,1.002090
947,-18.066682,-13.122759,-0.122072,0.022827,-0.025025,0.966445
948,-21.118486,-12.695506,0.305180,0.036744,-0.004273,1.008804
949,-24.658579,-11.169604,1.159686,0.022339,-0.015381,1.001968
950,-25.696193,-10.254063,2.380407,0.024048,0.005859,0.959609
951,-32.593271,-9.826810,3.540093,0.041505,0.008301,0.986709
952,-36.377508,-9.094377,3.662165,0.014405,-0.023316,0.979019
953,-33.997101,-9.216449,4.089418,0.037110,-0.015747,1.013321
954,-36.926833,-8.667124,4.150454,0.033692,-0.032471,0.962783
955,-34.973678,-8.484016,3.723201,0.029786,-0.010376,0.972183
956,-41.748684,-8.789197,3.662165,0.036622,0.000977,0.966567
957,-47.852293,-5.493248,1.770047,0.055543,-0.096071,1.067155
958,-40.344854,-1.342794,0.915541,-0.048341,-0.112551,1.005264
959,-38.574807,-3.906310,2.014191,0.084962,-0.015747,1.017838
960,-49.378195,1.953155,5.798428,0.040406,-0.054688,0.995621
961,-62.378882,1.953155,9.033341,0.048463,-0.125978,1.052873
962,-49.378195,5.188067,9.155413,0.013184,-0.067628,0.969497
963,-58.838788,4.394598,8.178836,0.028809,-0.053223,1.003799
964,-64.454108,3.967346,6.591897,-0.014893,-0.138552,1.040299
965,-46.082246,3.418021,0.671397,-0.044678,-0.099245,1.023819
966,-37.476158,0.793469,-10.803388,-0.035035,-0.123293,0.963638
967,-35.156786,-3.723201,-15.930419,-0.020874,-0.117189,1.075212
968,-56.824598,7.324331,-36.865797,0.017090,-0.068849,0.987930
969,-54.200046,9.216449,-40.772107,0.131838,-0.344488,1.021866
970,-30.212863,-1.403830,-20.202945,0.147951,-0.365850,1.031266
971,-9.338521,-3.234913,0.732433,0.066773,-0.074220,1.060441
972,-41.931792,4.150454,-9.338521,0.031373,0.114382,1.040177
973,-91.676204,12.695506,-17.761501,0.166140,0.066529,0.979751
974,-109.498741,23.254749,-10.070954,-0.002808,0.432990,0.817151
975,-177.126726,17.334249,-37.598230,-0.116335,0.917250,0.219608
976,-189.761196,-35.645075,-1.159686,-0.229007,0.848768,1.216815
977,-343.266957,-61.036088,-16.662852,-0.083009,1.220966,1.670680
978,-613.839933,-124.208438,-37.415122,-0.794202,-0.121828,1.397848
979,-754.955367,-230.411231,71.656367,-0.462898,0.085939,1.120378
980,-867.811093,-302.433814,102.052338,0.025147,0.086061,0.971206
981,-1007.400626,-312.687877,144.655528,1.999969,-2.000031,1.999969
982,-716.441596,-181.643397,226.138705,0.798108,-0.723522,1.999969
983,136.232548,-21.972992,-123.170825,0.478401,-0.146975,1.999969
984,427.985046,42.053864,-139.284352,-0.355840,1.008194,1.999969
985,221.072709,58.838788,-161.684596,-0.430671,1.152728,0.968154
986,3.418021,-3.234913,-72.388800,-0.954971,0.347051,0.290043
987,-65.918975,-54.139010,-13.122759,-0.743664,0.225834,0.619760
988,39.978637,-35.950256,2.319371,-0.811292,0.226444,0.663340
989,132.265202,-22.278172,4.028382,-0.632334,0.344121,0.693004
990,108.461128,-14.892805,21.484703,-0.492439,0.445441,0.756725
991,78.492409,-9.338521,37.109941,-0.423957,0.370001,1.240131
992,123.170825,4.699779,40.955215,-0.297368,0.351812,1.466819
993,177.553979,19.958801,38.269627,-0.134646,0.447639,1.430442
994,190.371557,30.212863,35.523003,0.014160,0.461189,1.463767
995,211.856260,41.870756,28.381781,0.102541,0.352789,1.525170
996,248.844129,56.275273,16.845960,0.173587,0.268681,1.448386
997,273.685817,68.177310,5.920500,0.198734,0.167849,1.307149
998,287.663081,77.088579,-2.441444,0.238651,0.075563,1.226825
999,301.029984,85.084306,-11.108568,0.271000,-0.018555,1.130755
1000,312.748913,89.417868,-18.493935,0.254398,-0.120607,0.892103
1001,313.298238,85.572595,-23.071641,0.220462,-0.233280,0.541268
1002,297.001602,77.698940,-24.780652,0.256474,-0.374151,0.198367
1003,267.032883,72.816052,-25.024796,0.424201,-0.342779,0.211551
1004,230.777447,62.745098,-32.471199,0.566903,-0.229129,0.611337
1005,213.992523,52.918288,-50.110628,0.654795,-0.116457,0.967300
1006,210.513466,59.632258,-68.665599,0.609995,-0.029786,1.466453
1007,194.216831,72.327764,-83.924620,0.536385,-0.070680,1.999969
1008,200.198367,71.595331,-94.239719,0.417365,-0.231205,1.999969
1009,239.383536,72.755016,-103.578241,0.276371,-0.404913,1.999969
1010,263.126574,78.797589,-107.606622,0.083497,-0.671641,1.839750
1011,246.768902,91.309987,-99.794003,-0.016480,-0.786389,1.636622
1012,219.424735,93.018997,-87.891966,-0.124269,-0.851942,1.937285
1013,218.448157,88.746471,-73.853666,-0.207034,-0.875990,1.999969
1014,239.932860,87.220569,-57.801175,-0.254887,-0.829480,1.999969
1015,265.629053,85.084306,-42.359045,-0.222904,-0.845716,1.999969
1016,282.047761,86.549172,-29.724575,-0.135988,-0.846326,1.849149
1017,273.197528,92.469673,-19.409476,0.122072,-0.800061,1.604273
1018,256.595712,102.357519,-14.770733,0.322637,-0.792248,1.598901
1019,244.815747,102.296483,-13.672084,0.366094,-0.884657,1.602930
1020,236.881056,93.446250,-11.474784,0.339117,-1.044205,1.495262
1021,224.673838,83.375296,-6.103609,0.269657,-1.271138,1.265400
1022,201.358053,72.755016,-0.915541,0.271733,-1.535790,1.096574
1023,169.497215,67.261769,2.441444,0.352422,-2.000031,0.906142
1024,127.016098,70.740826,0.732433,0.482307,-2.000031,0.710948
1025,85.633631,90.272374,-10.498207,0.514534,-2.000031,0.512947
1026,67.627985,112.184329,-15.075914,0.360479,-2.000031,0.141115
1027,37.964446,101.686122,4.821851,-0.139162,-2.000031,-0.274052
1028,-81.116960,-7.629511,50.049592,-0.158328,-2.000031,-1.838407
1029,-254.459449,-162.844282,112.977798,0.738537,-2.000031,-0.878431
1030,-282.719158,-171.511406,113.649195,1.258808,-1.026383,1.192889
1031,-128.114748,-91.554131,49.317159,0.436286,0.406744,1.999969
1032,-96.131838,-68.482490,39.368276,-0.096559,1.275898,1.850004
1033,-214.175631,-105.531395,63.599603,0.253422,0.391485,-0.080568
1034,-314.579995,-96.192874,77.393759,0.402350,-0.495857,0.695567
1035,-297.856107,-85.816739,76.050965,0.994156,-0.200565,1.999969
1036,-224.246586,-46.509499,53.101396,1.418845,-0.117556,1.999969
1037,-134.279393,-1.098650,14.831769,0.927504,-0.119997,1.157122
1038,-156.069276,10.315099,2.136263,-0.318486,0.092409,1.009537
1039,-211.673152,-25.513085,35.706111,-1.563012,-0.508309,1.940948
1040,-133.485924,-96.498054,48.950942,-0.546639,-0.507576,1.999969
1041,-68.360418,-120.302129,19.897765,1.634791,0.198123,1.999969
1042,-30.518044,-38.513771,3.601129,0.850111,0.172244,1.381491
1043,-72.571908,-14.953841,-3.601129,-0.754650,-0.130373,1.039933
1044,-63.050278,-60.914015,15.014878,-0.066163,0.023438,1.230365
1045,-34.790570,-38.452735,-1.525902,0.740856,0.000977,1.425559
1046,-42.298009,-10.681315,-1.403830,-0.173465,-0.025025,1.031632
1047,-27.954528,-26.001373,1.159686,-0.134035,0.018067,0.935439
1048,-28.931106,-25.329976,-1.403830,0.249027,0.039551,1.081682
1049,-40.588998,-14.892805,-0.366217,0.030396,-0.043580,1.088518
1050,-25.329976,-12.207218,1.586938,0.096681,-0.002441,1.077775
1051,-26.367590,-5.920500,1.037613,0.062623,0.036622,0.986465
1052,-33.691920,-3.967346,3.723201,0.007080,0.043214,0.936049
1053,-39.063096,-4.760815,4.150454,0.051392,0.016602,1.079850
1054,-40.344854,-5.493248,4.394598,0.057618,-0.035401,1.072038
1055,-29.968719,-5.432212,3.662165,0.020752,-0.028687,1.022599
1056,-28.564889,-4.455634,2.929732,0.073487,-0.022339,1.040177
1057,-29.602502,-3.051804,1.098650,-0.017945,-0.036866,1.015396
1058,-23.498894,-4.455634,1.220722,0.027100,-0.045899,1.011612
1059,-25.024796,-3.601129,0.671397,0.053101,-0.027832,1.031022
1060,-26.062409,-2.746624,1.159686,0.008911,-0.010010,1.035660
1061,-21.606775,-3.601129,1.525902,0.026734,-0.045411,1.015030
1062,-20.325017,-3.356985,0.976577,0.046998,-0.057496,0.961074
1063,-23.376822,-2.807660,0.671397,0.042237,-0.057618,1.027604
1064,-23.010605,-2.807660,0.061036,0.034058,-0.052491,1.013321
1065,-20.202945,-2.258335,-0.854505,0.058473,-0.075685,0.988174
1066,-20.508125,-1.647974,-0.427253,0.037476,-0.065675,0.996841
1067,-18.371862,-1.647974,0.183108,0.041505,-0.057252,1.008927
1068,-17.334249,-1.586938,0.244144,0.015625,-0.049805,0.982681
1069,-19.409476,-2.563516,0.000000,0.044434,-0.044068,0.981704
1070,-21.118486,-2.258335,-0.610361,0.035889,-0.082521,0.993790
1071,-17.029068,-2.563516,0.732433,0.067872,-0.050172,1.020279
1072,-19.836728,0.061036,-0.549325,0.058595,-0.105837,1.003799
1073,-16.845960,0.732433,0.061036,0.050538,-0.118532,1.037247
1074,-14.343481,1.464866,0.854505,0.062257,-0.088502,0.923354
1075,-9.399557,1.770047,0.671397,0.039185,-0.080568,0.983536
1076,-9.643702,0.915541,0.549325,0.044923,-0.055909,1.007340
1077,-14.282444,0.915541,0.122072,0.026123,-0.080568,0.983169
1078,-12.817578,0.305180,0.244144,0.042237,-0.082033,0.998428
1079,-14.526589,0.610361,0.549325,0.027955,-0.099489,0.996719
1080,-12.817578,-0.061036,1.220722,0.039673,-0.095460,0.979629
1081,-15.381094,0.244144,1.159686,0.037598,-0.061524,0.964492
1082,-22.278172,-0.061036,0.427253,0.000610,-0.082033,0.955459
1083,-26.062409,-0.671397,-0.671397,0.038697,-0.080323,0.983413
1084,-28.076600,-0.488289,-0.183108,0.039185,-0.078004,0.993545
1085,-33.325704,0.915541,2.258335,0.051881,-0.108766,1.009537
1086,-36.316472,1.953155,3.906310,0.019043,-0.111086,0.974624
1087,-36.072328,2.746624,5.920500,0.065309,-0.159426,1.032242
1088,-35.767147,4.516670,9.155413,0.049195,-0.190433,1.030411
1089,-23.437858,6.530861,12.634470,0.062013,-0.166018,1.033829
1090,-22.522316,8.117800,16.113527,0.024414,-0.126345,1.014908
1091,-23.926146,7.629511,14.404517,-0.012573,-0.130739,1.014908
1092,-16.418708,5.188067,10.620279,-0.039185,-0.118288,0.962661
1093,-12.085145,0.122072,2.563516,-0.052247,-0.044068,1.006119
1094,-10.803388,-1.403830,-10.131991,-0.039918,-0.137575,0.922255
1095,-25.696193,1.281758,-24.292363,-0.094362,0.081056,1.015885
1096,-44.739452,1.770047,-41.748684,0.011841,-0.143435,1.058976
1097,-28.809033,-2.807660,-35.095750,0.080934,-0.260380,1.087175
1098,-14.343481,-6.408789,-26.794842,0.103273,-0.245975,1.016617
1099,-10.376135,-7.873655,-13.855192,0.072633,-0.067628,1.085710
1100,-46.082246,0.915541,-17.273213,0.128176,0.145632,1.061173
1101,-94.361791,14.160372,-32.837415,0.193240,0.129274,1.016861
1102,-120.057984,26.916915,-33.386740,0.075074,0.235477,0.758679
1103,-159.304189,19.897765,-41.931792,-0.043702,0.446784,0.425666
1104,-154.848554,-23.010605,-9.277485,-0.266972,0.519417,1.036881
1105,-263.370718,-38.879988,-32.593271,-0.154299,1.358785,1.421775
1106,-522.652018,-78.065156,-76.539254,-0.591440,-0.011353,1.027604
1107,-665.110246,-201.907378,89.539940,-0.260868,-0.052369,1.026017
1108,-783.337148,-358.342870,149.965667,-0.074586,-0.330327,0.913710
1109,-886.305028,-362.798505,234.195468,1.312886,-0.349615,1.999969
1110,-832.349126,-265.751125,233.829252,1.819364,-2.000031,1.999969
1111,-278.202487,-7.385367,-4.638743,0.196292,0.297856,1.999969
1112,225.894560,52.857252,-143.068589,-0.272953,0.911757,1.999969
1113,170.473793,98.939498,-208.072023,-0.148928,0.588754,1.561791
1114,34.058137,62.195773,-78.797589,-1.024186,0.543832,0.784070
1115,-70.618753,-24.109255,-14.465553,-0.723888,0.188602,1.021622
1116,2.014191,-15.136950,23.193713,-0.710216,0.247562,0.964004
1117,100.038148,-4.943923,15.747311,-0.497932,0.152590,0.888197
1118,113.588159,1.098650,29.236286,-0.334722,0.333013,0.749035
1119,88.441291,0.122072,42.236973,-0.210452,0.314702,0.938247
1120,116.334783,5.127031,43.213550,-0.043458,0.339971,1.125505
1121,155.947204,10.376135,35.461967,0.105104,0.448981,1.212299
1122,171.877623,13.183795,26.062409,0.227787,0.490242,1.313619
1123,192.324712,21.423667,12.390326,0.291752,0.420905,1.397116
1124,224.002441,34.912642,-4.394598,0.277348,0.312749,1.295796
1125,248.722057,45.410849,-17.944610,0.221683,0.213748,1.193500
1126,262.088960,49.195087,-25.940337,0.133059,0.098268,1.162371
1127,275.089647,50.293736,-28.992142,0.065919,-0.006836,1.274922
1128,291.081102,48.767834,-28.870069,0.046509,-0.105470,1.271748
1129,308.720531,46.326390,-28.198672,0.075319,-0.149538,1.137713
1130,316.289006,41.748684,-29.236286,0.153933,-0.177005,1.011612
1131,311.161975,39.856565,-33.142596,0.194339,-0.217533,0.848890
1132,294.926375,47.180896,-40.527962,0.248661,-0.357671,0.746960
1133,273.380636,62.500954,-47.913329,0.293339,-0.390265,0.839979
1134,258.548867,69.092851,-55.054551,0.292851,-0.331792,1.055314
1135,246.585794,64.515145,-62.989242,0.289921,-0.281987,1.203143
1136,236.453803,66.102083,-70.191501,0.223758,-0.226200,1.411643
1137,223.208972,70.862898,-73.182269,0.132448,-0.309575,1.811307
1138,216.311894,75.867857,-71.046006,0.072267,-0.438239,1.999969
1139,230.838483,77.454795,-71.595331,0.056153,-0.460090,1.999969
1140,234.744793,78.492409,-69.153887,-0.001099,-0.522347,1.999969
1141,236.575875,80.079347,-64.271000,-0.012207,-0.594858,1.999969
1142,247.074083,84.168765,-60.303655,-0.028931,-0.660410,1.999969
1143,259.647517,91.371023,-57.007706,0.005859,-0.701183,1.999969
1144,266.239414,100.404364,-55.542840,0.075196,-0.746105,1.956573
1145,261.417563,109.437705,-55.237659,0.230472,-0.748425,1.769436
1146,251.590753,120.363165,-58.411536,0.376593,-0.753796,1.622950
1147,236.575875,130.800336,-63.599603,0.384771,-0.804456,1.577783
1148,220.828565,135.927367,-64.820325,0.330571,-0.889906,1.664210
1149,211.184863,136.354620,-61.890593,0.215946,-1.075090,1.618921
1150,202.822919,133.119707,-54.383154,0.146365,-1.312764,1.457786
1151,185.183490,129.091325,-43.701839,0.141115,-1.641016,1.365866
1152,161.989776,123.292897,-27.344167,0.208499,-2.000031,1.154681
1153,136.415656,118.776226,-14.465553,0.385260,-2.000031,0.805188
1154,106.569009,117.006180,-19.287404,0.462776,-2.000031,0.381842
1155,93.629358,113.344015,-15.014878,0.429328,-2.000031,-0.338262
1156,52.368963,82.642863,-10.620279,0.176638,-2.000031,-0.682994
1157,-23.987182,7.202258,18.310826,0.008423,-1.948638,-0.422614
1158,-75.989929,-54.566262,47.852293,-0.537240,-2.000031,-2.000031
1159,-203.006027,-193.118181,100.892653,0.020264,-1.949126,-1.213031
1160,-210.391394,-278.263523,125.123980,0.727306,-0.314092,1.432883
1161,-134.828717,-135.927367,78.492409,0.474006,1.042130,1.999969
1162,-172.732128,-63.477531,82.398718,-0.098390,0.811536,1.882109
1163,-269.169146,-136.720836,119.447623,1.039078,0.002686,0.964736
1164,-236.514839,-84.596017,112.855726,1.842679,0.067628,0.265995
1165,-242.435340,-52.002747,47.486076,1.968292,0.293217,1.442527
1166,-272.770275,-46.082246,15.503166,1.999969,0.235966,1.999969
1167,-216.983291,14.465553,-22.400244,0.358160,-0.359991,1.971344
1168,-177.676051,18.982223,-28.686961,-1.473533,-0.403204,1.738918
1169,-205.203326,-8.422980,29.663539,-2.000031,-0.720226,1.999969
1170,-138.857099,-115.724422,74.036774,-0.747570,-0.782238,1.328145
1171,-53.711757,-141.176471,64.148928,1.717067,0.657725,1.999969
1172,-81.788357,-69.153887,24.475471,1.732937,0.164797,1.999969
1173,-45.716030,-8.667124,-0.610361,-0.833387,-0.042115,1.256977
1174,-41.016251,-55.542840,10.376135,-0.398444,0.099367,1.151507
1175,-38.879988,-56.092164,9.948882,0.922622,0.222660,1.379904
1176,-46.265354,-10.193027,-4.150454,0.019043,-0.053956,1.427878
1177,-28.198672,-12.085145,-1.953155,-0.211063,-0.088136,1.106462
1178,-6.164645,-10.803388,-8.789197,0.295781,0.145998,1.138567
1179,-28.747997,4.760815,-4.882887,0.011231,-0.031495,1.126360
1180,-8.789197,8.789197,-5.371176,0.028565,-0.021241,1.099138
1181,-8.117800,13.794156,-3.784237,0.090700,0.033692,1.032120
1182,-13.305867,18.493935,-0.305180,-0.005371,-0.048341,1.039200
1183,-4.577707,16.357671,2.014191,-0.027344,-0.018433,1.033951
1184,-2.990768,15.014878,3.418021,0.018677,0.006836,1.018814
1185,-0.061036,13.672084,2.868696,-0.040162,0.022827,0.963149
1186,-2.197299,10.009918,2.746624,-0.046143,0.041749,0.941787
1187,-5.493248,5.981537,2.319371,-0.067628,0.031006,0.955703
1188,-7.019150,2.197299,2.075227,-0.038087,0.016236,0.999161
1189,-6.286717,1.098650,1.770047,-0.024903,0.009644,0.978408
1190,-6.042573,0.244144,2.197299,-0.023560,0.003784,0.994644
1191,-5.249104,-0.366217,2.807660,-0.029419,0.014038,0.977554
1192,-4.577707,-1.525902,2.563516,-0.029419,0.039918,0.957412
1193,-8.911269,-3.479057,2.746624,-0.034913,0.013916,0.978531
1194,-7.385367,-5.127031,2.746624,-0.012818,0.014160,0.981094
1195,-8.239872,-6.347753,2.258335,-0.032227,0.027100,0.968154
1196,-12.512398,-9.277485,2.380407,-0.024048,0.019654,0.942153
1197,-15.014878,-11.596857,2.014191,-0.016968,0.018311,0.962539
1198,-18.982223,-13.244831,1.709010,-0.035645,-0.018921,0.976333
1199,-18.249790,-14.709697,1.342794,-0.007691,-0.005249,1.024552
1200,-19.226368,-14.526589,1.403830,-0.014405,-0.006470,1.033097
1201,-16.357671,-12.756542,0.549325,0.010742,-0.105470,0.913954
1202,-15.136950,-13.977264,1.342794,-0.004761,-0.018311,1.043717
1203,-15.991455,-13.977264,1.220722,-0.011963,-0.006226,1.023941
1204,-15.381094,-14.160372,0.976577,0.013062,-0.002808,1.046281
1205,-14.648661,-13.000687,0.671397,0.028321,0.011109,1.033341
1206,-14.343481,-12.146181,0.366217,0.003052,0.030152,1.001724
1207,-16.784924,-11.841001,0.488289,0.010742,0.050782,0.988418
1208,-20.813306,-11.718929,0.915541,0.014160,0.012451,0.931167
1209,-25.879301,-12.939651,0.671397,0.002075,0.017090,0.991226
1210,-28.259709,-12.451362,1.342794,0.046876,-0.051759,1.005875
1211,-26.794842,-10.376135,1.464866,0.023194,-0.024414,0.985245
1212,-30.457008,-9.460594,2.380407,0.038697,-0.020508,1.007095
1213,-31.860838,-8.056764,2.014191,0.032471,-0.052857,1.023941
1214,-29.175250,-6.591897,2.685588,0.031373,-0.038087,1.003433
1215,-28.076600,-7.263294,3.112840,-0.000732,-0.053346,1.037369
1216,-29.968719,-6.042573,2.929732,0.025147,-0.049805,0.972183
1217,-33.630884,-6.652934,3.356985,-0.009766,-0.061036,0.990127
1218,-30.762188,-8.361944,3.234913,0.004150,-0.065675,0.976455
1219,-37.293050,-6.225681,2.319371,0.028077,-0.104250,0.964858
1220,-33.020523,-5.798428,2.319371,0.026734,-0.070436,0.987442
1221,-37.598230,-2.563516,3.601129,-0.013794,-0.052613,0.954971
1222,-55.970092,-0.732433,7.507439,0.070069,-0.068482,1.059098
1223,-59.205005,1.281758,9.399557,0.032471,-0.140017,1.037125
1224,-47.852293,2.441444,9.948882,0.039429,-0.116579,0.977066
1225,-51.819638,2.990768,11.718929,0.009033,-0.129763,1.027604
1226,-50.476844,2.624552,6.836042,-0.015259,-0.122683,1.036149
1227,-33.752956,1.525902,-2.319371,-0.040894,-0.119142,0.996841
1228,-26.489662,-0.976577,-7.385367,-0.053346,-0.242191,0.973037
1229,-33.386740,-1.586938,-16.418708,-0.130739,0.053346,1.173968
1230,-60.303655,7.995727,-48.096437,0.028077,-0.244877,1.069963
1231,-45.654994,13.000687,-33.813993,0.206058,-0.426642,1.072282
1232,-5.859464,5.981537,-7.446403,0.146487,-0.332891,0.994522
1233,8.239872,0.427253,2.929732,0.018311,0.031739,1.028702
1234,-32.837415,6.652934,-10.315099,0.036622,0.207034,0.986709
1235,-84.840162,13.672084,-17.273213,0.140139,0.127932,0.997086
1236,-109.132525,16.601816,-13.427939,-0.090333,0.473030,0.797986
1237,-174.990463,7.080186,-36.682689,-0.041382,0.773449,0.791760
1238,-232.486458,-20.141909,-23.315785,-0.147951,0.572641,1.392844
1239,-405.462730,-37.354086,-19.043259,0.109743,0.966567,1.737697
1240,-664.316777,-57.679103,-4.699779,-0.628794,0.443244,1.989899
1241,-798.107881,-132.692454,56.519417,-0.388678,-0.027955,1.472679
1242,-872.022583,-163.759823,71.595331,-0.024781,0.026490,0.908095
1243,-1001.480125,-195.193408,96.437018,1.391257,-2.000031,1.999969
1244,-771.801328,-119.630732,190.920882,-0.049805,-1.506249,1.999969
1245,89.356832,-22.644388,-88.075074,0.082521,-0.467414,1.999969
1246,401.312276,40.650034,-91.126879,-0.229374,0.873915,1.999969
1247,202.090486,45.227741,-112.733654,-0.223758,1.078141,1.002457
1248,4.882887,-11.108568,-26.794842,-0.811170,0.605478,0.683238
1249,-75.440604,-60.975052,23.010605,-0.479988,0.380865,0.728893
1250,31.677729,-36.438544,3.723201,-0.477790,-0.040772,0.832898
1251,147.463188,-24.597543,-0.793469,-0.365850,0.365362,0.743542
1252,115.480278,-29.846647,14.526589,-0.282963,0.554940,1.000137
1253,100.709545,-38.025483,20.508125,-0.216312,0.406622,1.359884
1254,167.421988,-28.747997,13.733120,-0.106081,0.418341,1.416037
1255,210.452430,-20.325017,4.089418,-0.019532,0.476326,1.219501
1256,213.809415,-14.038300,-3.662165,0.051759,0.413947,1.109636
1257,231.082628,2.258335,-15.686275,0.067384,0.303105,1.067887
1258,251.224537,21.118486,-28.320745,0.066163,0.239994,1.084611
1259,260.318914,34.058137,-36.743725,0.047730,0.143557,1.061906
1260,273.319600,39.917601,-41.992828,0.054932,0.059815,1.105852
1261,288.273442,38.208591,-45.471885,0.065187,0.015259,1.105730
1262,300.724804,30.762188,-47.974365,0.080446,0.003052,1.240620
1263,309.025711,25.268940,-51.453422,0.114260,-0.038331,1.348409
1264,318.242161,30.212863,-58.289464,0.115114,-0.182010,1.160174
1265,310.246433,52.979324,-67.750057,0.087526,-0.440681,0.848890
1266,290.287633,86.488136,-68.726635,0.087404,-0.525887,0.657847
1267,258.121614,101.991302,-66.407263,0.161135,-0.414801,0.689708
1268,229.434653,94.239719,-67.017624,0.211551,-0.308843,1.157610
1269,213.443198,83.375296,-67.872129,0.175051,-0.237186,1.808377
1270,208.010987,80.933852,-66.834516,0.129519,-0.269413,1.999969
1271,224.185550,89.356832,-63.843748,0.017700,-0.481941,1.999969
1272,262.088960,104.005493,-58.838788,-0.032471,-0.764416,1.999969
1273,276.798657,112.123293,-47.486076,-0.078614,-0.808728,1.999969
1274,263.065538,100.892653,-32.227054,-0.074098,-0.860853,1.999969
1275,271.305409,89.784085,-18.005646,-0.035157,-0.917739,1.999969
1276,297.306783,86.060884,-8.239872,-0.022095,-0.940932,1.999969
1277,311.894408,86.060884,1.770047,0.071534,-0.949722,1.999969
1278,310.612650,87.098497,7.568475,0.392584,-0.910658,1.823636
1279,294.438087,90.150301,4.821851,0.488411,-0.926528,1.735988
1280,278.202487,82.032502,3.479057,0.430426,-1.072526,1.678981
1281,269.291218,67.444877,4.821851,0.258183,-1.330465,1.571435
1282,251.407645,53.650721,14.648661,0.125490,-1.728664,1.284077
1283,219.241627,52.491035,22.583352,0.233036,-2.000031,0.849134
1284,170.473793,65.064469,18.188754,0.680186,-2.000031,0.459968
1285,107.545586,92.103456,-7.629511,1.063859,-2.000031,0.088869
1286,67.078660,120.180056,-26.977951,0.881117,-2.000031,-0.140139
1287,27.100023,105.226215,-22.522316,0.409796,-2.000031,-0.349371
1288,-61.341268,16.968032,12.207218,0.149783,-2.000031,-1.287984
1289,-196.597238,-123.292897,70.313573,0.639170,-2.000031,-0.389654
1290,-248.905165,-149.965667,68.116274,1.068009,-2.000031,0.536751
1291,-141.542687,-87.281605,30.701152,0.174441,-0.326055,1.999969
1292,-85.511559,-69.886320,5.065995,-0.435554,0.977066,1.999969
1293,-117.250324,-71.656367,26.855879,-0.746838,0.626719,0.419318
1294,-300.663767,-100.221256,72.999161,-0.858289,-0.120119,-0.369879
1295,-353.643091,-83.863584,113.160906,-0.132692,-0.375738,1.723049
1296,-317.509728,-47.486076,119.020371,1.380148,-0.356085,1.999969
1297,-168.642710,-13.855192,71.046006,1.999969,-0.049073,1.999969
1298,-98.878462,23.743038,9.704738,1.669825,0.420783,1.127092
1299,-187.014572,52.429999,-12.512398,0.439460,0.157351,1.443992
1300,-176.028077,69.642176,-10.376135,-1.073747,-0.180789,1.980133
1301,-158.999008,6.225681,16.662852,-1.702541,-0.917739,1.999969
1302,-35.034714,-58.472572,29.114214,-0.218509,-0.390753,1.999969
1303,14.587625,-64.209964,12.634470,1.253925,0.403326,1.575219
1304,-24.231327,-14.648661,0.244144,0.245609,0.191775,1.169818
1305,-37.598230,-18.554971,4.028382,-0.636606,-0.153323,1.187640
1306,-11.108568,-46.570535,4.028382,0.154055,0.107546,1.082292
1307,-21.972992,-32.654307,-1.098650,0.424445,0.169802,1.275410
1308,-24.780652,-15.136950,-1.403830,-0.180911,-0.054444,1.059220
1309,-19.653620,-21.911955,-0.488289,-0.034668,0.004028,1.149676
1310,-13.855192,-16.784924,-1.037613,0.190311,0.034913,1.133318
1311,-12.634470,-6.225681,0.244144,-0.015259,0.023804,1.020645
1312,-13.183795,-5.310140,3.051804,0.031495,0.043458,1.055558
1313,-12.817578,-2.197299,4.089418,0.061036,0.045899,1.004532
1314,-15.564202,0.610361,4.943923,-0.007446,0.038819,1.003067
1315,-15.564202,-0.549325,4.760815,0.006226,0.049928,0.989517
1316,-17.456321,-0.305180,4.333562,0.030274,0.024781,1.009293
1317,-16.052491,0.305180,3.601129,-0.017212,0.036744,0.978897
1318,-17.273213,-1.098650,2.990768,-0.010742,0.058350,0.952041
1319,-18.249790,-1.586938,2.197299,-0.042115,0.040650,0.967178
1320,-18.921187,-1.892119,1.586938,0.046021,0.020630,1.060563
1321,-17.029068,0.915541,2.319371,0.007324,0.016724,1.000381
1322,-16.296635,1.586938,2.136263,-0.005371,0.045533,0.993545
1323,-19.226368,1.098650,2.563516,0.001465,0.009400,1.021500
1324,-16.784924,1.403830,2.685588,-0.001831,-0.001953,1.044816
1325,-13.427939,1.281758,2.258335,-0.008423,0.004761,1.028214
1326,-11.841001,0.915541,2.136263,-0.008057,0.002686,1.021134
1327,-9.338521,0.488289,0.854505,-0.021363,0.010132,0.997452
1328,-9.277485,0.122072,1.464866,-0.027100,0.026856,0.983047
1329,-11.535821,-1.403830,1.709010,-0.026856,0.027955,0.967056
1330,-14.343481,-2.624552,1.525902,-0.007813,0.002319,0.984146
1331,-14.709697,-2.258335,1.892119,0.005371,-0.012573,1.026749
1332,-12.512398,-1.770047,1.709010,-0.009522,0.002197,0.988052
1333,-13.916228,-4.028382,2.136263,-0.006348,0.054566,0.985977
1334,-14.282444,-3.295949,2.014191,0.000855,-0.009033,1.002579
1335,-13.855192,-2.563516,1.647974,0.003418,-0.021241,1.018326
1336,-13.611048,-2.624552,2.380407,0.005737,-0.011109,0.974990
1337,-14.099336,-2.075227,2.075227,-0.029175,-0.024048,0.939956
1338,-16.601816,-4.333562,2.929732,-0.016724,0.000977,0.948989
1339,-20.752270,-6.042573,3.234913,-0.009644,-0.013306,0.974380
1340,-23.315785,-6.408789,3.723201,0.002441,-0.002564,1.009781
1341,-20.935378,-6.469825,3.540093,-0.008545,-0.013428,0.939223
1342,-25.818265,-8.178836,3.906310,-0.012329,0.008545,0.967666
1343,-32.104982,-9.033341,4.089418,-0.010498,-0.014405,1.005509
1344,-32.043946,-9.338521,3.723201,0.004273,-0.056153,1.037736
1345,-27.832456,-7.690547,3.601129,0.024659,-0.057130,1.041032
1346,-25.452049,-5.676356,3.601129,0.013916,-0.051392,0.998184
1347,-27.954528,-4.211490,4.577707,-0.011597,-0.037964,0.970962
1348,-29.541466,-5.981537,4.699779,0.004395,-0.057740,0.986954
1349,-28.198672,-6.469825,4.394598,-0.003540,-0.031617,0.980728
1350,-33.875029,-9.338521,3.784237,-0.040772,-0.057984,0.964614
1351,-33.081559,-12.634470,3.234913,-0.002319,-0.114260,0.933242
1352,-32.654307,-11.291676,3.112840,0.045533,-0.042603,0.900282
1353,-52.429999,-8.606088,6.713970,0.051514,-0.049928,1.165057
1354,-44.190127,-3.662165,7.263294,0.008789,-0.100099,0.972305
1355,-46.509499,-1.464866,8.361944,0.053956,-0.070192,1.027237
1356,-56.153201,-0.854505,8.178836,-0.004150,-0.136965,1.050065
1357,-47.913329,1.037613,6.347753,0.010376,-0.143313,1.023331
1358,-41.443503,0.000000,3.784237,-0.030152,-0.110719,1.039200
1359,-36.194400,-1.159686,-0.976577,-0.031983,-0.130129,1.088884
1360,-31.006332,-2.380407,-9.399557,-0.050294,-0.151003,1.040787
1361,-15.197986,-0.793469,-17.944610,-0.052979,-0.175784,1.057755
1362,-31.738766,6.652934,-32.898451,0.006104,0.018311,0.919936
1363,-49.622339,17.029068,-44.129091,0.096071,-0.281254,1.075578
1364,-19.653620,16.601816,-13.977264,0.141238,-0.310430,1.141863
1365,-0.854505,6.652934,0.915541,-0.131472,-0.070069,1.019547
1366,-28.259709,-5.554284,-12.634470,-0.064698,0.043580,0.974136
1367,-59.082933,-8.545052,-19.531548,0.039796,0.065675,0.926040
1368,-91.432059,1.342794,-17.029068,0.049073,0.061280,0.922744
1369,-139.528496,3.723201,-14.221408,-0.010010,0.320684,0.820569
1370,-133.241779,-13.061723,-15.442130,0.004273,0.173220,0.748425
1371,-176.028077,-22.034028,-34.302281,-0.095338,0.659800,1.291402
1372,-370.183871,-27.100023,-35.034714,-0.097414,0.650645,1.788479
1373,-615.671016,-28.320745,8.606088,-0.495613,0.516854,1.997345
1374,-715.220874,-78.492409,42.847333,-0.090211,-0.074464,1.065446
1375,-798.352026,-81.300069,37.537194,0.060914,-0.096559,1.099504
1376,-842.786297,-94.911116,29.358358,0.048585,-0.650034,1.247944
1377,-1083.268483,-126.344701,158.022431,-0.962417,-0.554452,1.999969
1378,-367.009995,-104.859998,45.105669,-1.181292,-1.110002,1.999969
1379,262.394141,-54.077974,-54.200046,-0.533211,0.877455,1.999969
1380,323.308156,-17.273213,-33.569848,-0.527596,1.408957,1.999969
1381,124.879835,1.525902,-26.550698,-0.500618,0.627329,1.269429
1382,5.737392,-30.518044,41.077287,-0.444831,0.459236,0.252079
1383,2.319371,-19.714656,43.701839,-0.151369,0.228275,0.212528
1384,94.178683,9.399557,23.987182,-0.239017,0.267948,0.350835
1385,103.273060,10.376135,23.559930,-0.122438,0.441047,0.303471
1386,66.590372,-1.403830,27.283131,-0.089235,0.385748,0.660777
1387,88.685435,-7.080186,24.963760,-0.090822,0.324956,1.045426
1388,135.072862,-10.009918,19.836728,-0.013062,0.419562,1.199969
1389,157.412070,-15.808347,14.404517,0.054444,0.424445,1.243305
1390,180.422675,-14.831769,6.347753,0.108888,0.364263,1.305928
1391,209.475853,-6.836042,-4.943923,0.114260,0.297246,1.256001
1392,230.167086,1.831083,-15.014878,0.078370,0.223392,1.251606
1393,241.886015,7.385367,-20.630198,0.014527,0.121584,1.376486
1394,262.394141,12.634470,-24.048219,-0.054688,-0.035401,1.480980
1395,289.005875,19.043259,-23.315785,-0.090822,-0.108766,1.498314
1396,308.903639,24.780652,-20.569162,-0.093874,-0.176883,1.449363
1397,322.026398,29.968719,-16.784924,-0.046754,-0.253300,1.381125
1398,328.801404,32.959487,-13.916228,0.028931,-0.319829,1.401389
1399,334.294652,36.255436,-14.343481,0.095338,-0.472663,1.113420
1400,328.740368,42.969406,-19.897765,0.197513,-0.713268,0.578866
1401,296.208133,57.618067,-24.109255,0.326177,-0.722301,0.386969
1402,245.243000,53.589685,-29.358358,0.330938,-0.571054,0.618662
1403,216.617075,40.711070,-39.917601,0.388922,-0.433845,1.128923
1404,200.015259,37.659266,-52.613108,0.264164,-0.314580,1.990143
1405,186.099031,42.969406,-58.838788,0.120363,-0.422248,1.999969
1406,223.941405,54.322118,-64.332036,-0.027344,-0.633066,1.999969
1407,278.141451,68.238346,-69.642176,-0.133669,-0.880140,1.999969
1408,270.572976,78.065156,-62.317845,-0.237919,-0.852308,1.941192
1409,244.022278,66.163119,-49.073014,-0.224979,-0.911513,1.999969
1410,268.680858,58.228428,-40.955215,-0.124758,-0.899184,1.999969
1411,295.414664,64.087892,-38.635843,0.074586,-0.849744,1.999969
1412,290.959030,77.515831,-40.344854,0.265873,-0.810559,1.751858
1413,277.897307,83.436332,-45.471885,0.388556,-0.837903,1.529808
1414,267.460136,78.187228,-52.613108,0.445319,-0.861707,1.458274
1415,253.238727,71.351186,-58.167391,0.436652,-0.966079,1.428122
1416,240.238041,66.407263,-60.914015,0.376104,-1.142229,1.329244
1417,223.758297,63.111315,-60.242618,0.270024,-1.365255,1.162005
1418,198.794537,59.571221,-54.810407,0.160403,-1.688014,0.928725
1419,168.520638,57.801175,-44.800488,0.126711,-2.000031,0.691539
1420,130.128939,58.411536,-36.194400,0.249271,-2.000031,0.417609
1421,86.549172,64.087892,-29.480430,0.331670,-2.000031,0.284306
1422,53.223468,70.679789,-21.118486,0.269413,-2.000031,0.112917
1423,23.926146,53.406577,0.915541,0.131106,-2.000031,-0.024537
1424,-17.334249,6.286717,30.945296,-0.121828,-1.947662,0.023682
1425,-121.034562,-101.441978,54.566262,0.123171,-2.000031,-1.419333
1426,-271.366445,-190.127413,79.652094,0.875380,-1.396017,-0.008423
1427,-142.214084,-109.010452,49.805447,0.365484,-0.118410,1.889311
1428,-103.028916,-64.148928,32.471199,-0.214847,1.423728,1.962066
1429,-200.747692,-93.446250,53.772793,-0.109621,0.836561,0.344976
1430,-334.721904,-115.358206,65.186542,0.435920,-0.366949,0.447639
1431,-305.607691,-75.684749,63.782712,0.731945,-0.514534,1.897490
1432,-247.684443,-48.950942,43.823911,1.140154,-0.090455,1.999969
1433,-182.314794,2.258335,14.648661,0.772107,-0.180301,1.999969
1434,-145.082780,28.870069,1.586938,-0.044556,-0.117067,1.508690
1435,-167.177844,12.207218,26.550698,-1.226581,0.095094,1.999969
1436,-150.576028,-51.880674,42.236973,-0.783581,-0.654551,1.518456
1437,-71.107042,-95.826658,29.663539,0.868666,0.028809,1.999969
1438,-61.890593,-61.280232,18.677043,1.208026,0.145022,1.999969
1439,-40.833143,-3.723201,9.033341,-0.199954,0.072999,1.066300
1440,-58.899825,-20.447089,12.390326,-0.400885,0.057374,1.083757
1441,-49.500267,-34.119173,5.065995,0.414923,0.083742,1.294820
1442,-44.678416,-10.803388,-1.892119,0.122438,-0.005249,1.415671
1443,-31.799802,-8.239872,0.671397,-0.156252,-0.079103,1.118425
1444,-16.784924,-11.291676,-1.953155,0.097536,0.034913,1.130022
1445,-19.714656,-3.906310,0.732433,0.027222,0.008911,1.087541
1446,-14.160372,-3.479057,1.098650,-0.086061,-0.001465,1.008438
1447,-10.742351,-5.127031,0.427253,0.034913,0.016236,1.069108
1448,-11.963073,-0.061036,2.075227,0.015869,0.022095,1.027115
1449,-10.864424,0.915541,2.258335,-0.045167,-0.000366,1.031754
1450,-9.887846,0.610361,2.746624,0.028443,0.015503,1.051286
1451,-7.690547,2.197299,2.563516,-0.013672,0.004028,1.022110
1452,-5.493248,1.281758,2.563516,-0.002075,0.016480,1.008560
1453,-5.310140,1.342794,2.380407,-0.021607,0.026001,0.985611
1454,-7.263294,-0.488289,2.685588,-0.033936,0.022339,0.983413
1455,-6.897078,-1.403830,2.441444,-0.020508,0.019043,0.984146
1456,-8.300908,-1.831083,2.380407,-0.039185,0.029419,0.972183
1457,-10.070954,-4.089418,2.380407,-0.051637,0.025757,0.961318
1458,-11.535821,-5.065995,0.427253,0.020142,0.093141,0.987198
1459,-9.643702,-7.934691,0.976577,-0.021607,-0.005005,0.945937
1460,-16.174563,-10.254063,1.342794,-0.014405,0.005493,0.943252
1461,-17.090105,-9.826810,0.671397,-0.001343,0.002808,1.025650
1462,-15.747311,-7.751583,0.305180,-0.005859,0.004883,1.019669
1463,-16.784924,-5.615320,0.915541,0.022827,0.015137,1.011856
1464,-19.043259,-1.098650,0.122072,0.045045,0.091798,1.076432
1465,-14.770733,0.488289,0.793469,-0.016968,-0.045777,1.100969
1466,-18.493935,0.061036,2.380407,0.005737,-0.033082,0.979873
1467,-15.442130,1.159686,2.136263,-0.005615,-0.025147,0.995987
1468,-15.625238,0.610361,2.258335,-0.020996,-0.011841,0.975357
1469,-17.212177,-0.793469,2.319371,-0.027710,-0.022217,1.007340
1470,-14.831769,-2.136263,1.586938,-0.019532,-0.040284,1.018082
1471,-12.695506,-2.624552,1.037613,-0.007935,-0.030518,1.020890
1472,-12.207218,-3.112840,0.732433,-0.016968,-0.041627,1.012467
1473,-8.789197,-3.418021,0.366217,-0.011109,-0.024903,0.978775
1474,-10.254063,-4.699779,0.000000,-0.027588,-0.020142,0.960098
1475,-11.841001,-6.164645,-0.305180,-0.021485,-0.016236,0.978653
1476,-13.244831,-8.178836,0.732433,0.057008,0.081910,0.904677
1477,-14.038300,-5.432212,1.159686,0.003662,-0.028321,1.009293
1478,-14.282444,-3.540093,1.464866,0.026368,-0.046876,1.039689
1479,-13.061723,-1.953155,2.319371,-0.000610,-0.022217,1.022599
1480,-12.756542,-1.464866,2.868696,-0.003662,-0.045777,0.988907
1481,-13.366903,-1.220722,2.807660,-0.002564,-0.052491,0.996719
1482,-11.963073,-1.525902,2.929732,-0.009522,-0.036988,0.986465
1483,-14.587625,-2.624552,2.441444,-0.027466,-0.020752,0.943496
1484,-20.508125,-5.493248,2.075227,-0.028687,-0.026490,0.953384
1485,-23.376822,-7.751583,1.342794,-0.013184,-0.040894,0.979019
1486,-23.865110,-8.239872,0.671397,0.006958,-0.051392,1.002579
1487,-25.329976,-7.141222,0.427253,0.026612,-0.075929,1.019059
1488,-24.597543,-4.882887,0.366217,0.026490,-0.079103,1.022721
1489,-22.339208,-2.075227,1.342794,0.028443,-0.071778,0.995987
1490,-22.461280,-0.366217,2.197299,0.005371,-0.070558,0.986709
1491,-24.414435,-0.244144,3.051804,0.013306,-0.087160,1.015640
1492,-23.010605,0.488289,3.784237,-0.005249,-0.074342,1.007218
1493,-20.080873,1.281758,5.249104,0.004150,-0.053834,1.004898
1494,-25.574121,-0.061036,5.371176,-0.069093,-0.060182,0.960342
1495,-23.987182,-3.479057,4.699779,0.020874,-0.030274,0.975357
1496,-31.311513,-3.723201,3.356985,-0.014405,-0.061158,1.005142
1497,-38.574807,-3.295949,2.746624,0.016724,-0.085451,1.070573
1498,-35.767147,-0.183108,1.403830,0.015015,-0.095338,1.018814
1499,-35.095750,1.403830,0.793469,0.022950,-0.097780,1.036881
1500,-36.621653,4.943923,-0.488289,0.003418,-0.094118,1.039811
1501,-33.752956,6.836042,-1.770047,0.000977,-0.100587,1.038224
1502,-35.889220,8.300908,-5.737392,-0.033570,-0.107424,1.059709
1503,-37.415122,8.789197,-10.254063,-0.186770,0.175784,1.337423
1504,-36.987869,7.202258,-27.649348,-0.022705,-0.209110,0.903456
1505,-27.161059,12.207218,-26.672770,0.076661,-0.220462,1.023819
1506,-17.334249,9.887846,-10.559243,0.014405,-0.096437,0.862074
1507,-58.655680,2.624552,-8.117800,-0.079225,0.256352,0.872084
1508,-95.033188,-10.315099,-17.395285,-0.050538,0.364874,0.773816
1509,-135.927367,-18.677043,-19.775692,-0.008911,0.231693,0.780529
1510,-196.108949,-13.916228,-5.737392,0.229496,-0.105592,1.114275
1511,-169.863432,1.342794,-9.216449,-0.103151,0.373785,1.060807
1512,-282.963302,-18.554971,-30.029755,-0.063478,0.111818,1.505272
1513,-432.440681,-20.874342,21.057450,-0.039063,0.171145,1.226703
1514,-502.265965,-36.255436,23.620966,-0.157839,-0.072511,0.983536
1515,-566.353857,-66.407263,27.100023,-0.083497,-0.288823,1.220233
1516,-612.680247,-101.441978,44.129091,-0.189212,-0.197391,0.918349
1517,-628.854810,-142.702373,59.754330,0.278080,-1.046769,1.999969
1518,-568.917372,-112.489509,116.029603,-0.958755,0.127932,1.999969
1519,-86.305028,-106.080720,6.836042,-0.257328,-0.229984,1.999969
1520,249.637598,-32.166018,-11.413748,-0.372564,0.863416,1.999969
1521,170.534829,18.554971,-28.381781,-0.208011,0.594125,1.325826
1522,23.620966,8.239872,23.926146,-0.374517,0.551644,0.434577
1523,-6.897078,3.967346,34.790570,-0.167849,0.152590,0.248295
1524,90.272374,24.475471,19.104295,-0.175174,0.158328,0.205325
1525,85.572595,16.113527,17.212177,-0.040894,0.308476,0.090944
1526,44.190127,1.464866,21.362631,0.001221,0.263310,0.505989
1527,74.586099,-4.882887,13.733120,0.045411,0.288945,0.812634
1528,104.676890,-8.300908,4.577707,0.077638,0.405768,0.971817
1529,113.771267,-11.108568,-2.075227,0.081178,0.387579,1.234516
1530,140.383001,-6.042573,-10.742351,0.035523,0.325322,1.452659
1531,172.610056,-0.671397,-18.310826,-0.021485,0.214725,1.521630
1532,200.564584,3.784237,-25.207904,0.058595,0.058595,1.418235
1533,223.086900,12.634470,-34.302281,0.030274,-0.116823,1.309834
1534,243.350881,24.719615,-41.565576,-0.034302,-0.235233,1.079606
1535,245.731289,30.457008,-44.068055,-0.083375,-0.347173,0.921645
1536,241.275654,34.790570,-42.542153,-0.140383,-0.448859,0.889784
1537,235.049973,34.180209,-37.964446,-0.170047,-0.504036,0.964981
1538,229.861906,32.349126,-32.349126,-0.122560,-0.521859,1.143816
1539,226.260777,32.959487,-28.503853,-0.044190,-0.566781,1.295674
1540,226.077668,37.293050,-27.405203,-0.002686,-0.653696,1.328756
1541,223.636225,42.481117,-27.893492,-0.092042,-0.703258,1.471824
1542,227.725643,46.326390,-23.193713,-0.206302,-0.757458,1.481956
1543,231.021592,46.448463,-14.404517,-0.307378,-0.788586,1.436057
1544,229.861906,46.448463,-0.976577,-0.297002,-0.818738,1.297261
1545,224.246586,49.500267,10.742351,-0.157229,-0.826429,1.200214
1546,207.644770,55.237659,17.639429,-0.019409,-0.891859,1.089128
1547,188.967727,63.843748,19.714656,0.088991,-0.943008,1.006241
1548,166.872663,70.496681,19.165332,0.170779,-0.945815,1.056046
1549,146.364538,69.825284,18.799115,0.263188,-0.888808,1.300191
1550,138.551919,60.608835,16.174563,0.385016,-0.796277,1.594629
1551,149.538415,51.087205,7.629511,0.509895,-0.705211,1.580835
1552,159.975586,46.387427,-5.798428,0.565682,-0.619150,1.369284
1553,150.698100,46.021210,-17.639429,0.483528,-0.620981,1.195941
1554,138.368811,45.166705,-25.513085,0.314946,-0.693492,1.124651
1555,129.335470,42.114900,-28.503853,0.158694,-0.753063,1.086931
1556,118.165866,39.246204,-25.513085,0.033936,-0.799084,1.098650
1557,107.545586,35.339895,-18.005646,-0.054444,-0.836805,1.150042
1558,105.531395,31.738766,-8.667124,-0.066041,-0.868666,1.103166
1559,98.451209,29.785611,1.098650,-0.071168,-0.928481,0.993790
1560,89.539940,28.503853,11.596857,-0.072145,-0.996719,0.910903
1561,76.722362,23.193713,21.972992,0.002564,-1.049088,1.038590
1562,69.764248,13.611048,28.686961,0.174441,-1.120012,1.144305
1563,79.530022,6.836042,25.818265,0.381476,-1.177996,0.960098
1564,71.961547,7.934691,15.197986,0.400763,-1.591211,-0.837171
1565,-8.484016,-52.857252,19.104295,0.552132,-1.477440,-0.762097
1566,-69.520104,-91.065843,12.878614,0.704967,-1.840848,-0.661021
1567,-155.031662,-47.669184,3.662165,0.564706,-0.946059,-0.122438
1568,-53.040360,-3.112840,-29.236286,-0.085328,0.275517,1.368551
1569,-89.295796,-8.300908,-9.155413,-0.360723,1.047745,1.797879
1570,-151.308461,-41.870756,-2.563516,-0.581430,0.263554,0.898085
1571,-173.403525,-50.354772,10.742351,-0.746715,-0.409064,0.287602
1572,-163.149462,-64.148928,26.855879,-0.602304,-0.243656,1.370871
1573,-211.551080,-118.593118,74.464027,-0.476570,0.486091,1.999969
1574,-143.801022,-113.588159,50.782025,1.843656,-0.769177,1.999969
1575,123.598077,-12.268254,-15.930419,1.194110,0.140139,1.999969
1576,46.936751,51.880674,-31.250477,-0.264652,0.288212,0.517830
1577,-96.437018,7.995727,21.911955,-0.626596,-0.073854,0.718395
1578,-33.447776,-10.986496,14.282444,-0.058595,0.005005,1.335714
1579,5.371176,-4.760815,2.136263,0.225467,0.162356,1.015030
1580,-30.884260,-0.854505,5.798428,-0.126589,0.073243,0.912123
1581,-28.442817,-10.254063,6.347753,-0.175540,0.034546,0.992935
1582,-15.808347,-15.686275,2.197299,0.056275,0.065675,1.094499
1583,-19.104295,-11.535821,1.403830,0.081788,0.031983,1.143206
1584,-10.864424,-6.775006,0.366217,-0.084596,0.028321,1.047623
1585,-5.310140,-7.934691,0.671397,0.021973,0.058350,1.037980
1586,-6.286717,-2.746624,0.854505,0.034913,0.073243,0.943740
1587,-11.047532,0.610361,2.197299,-0.044068,0.107057,0.878920
1588,-24.597543,-0.488289,4.150454,0.010132,0.080568,0.954604
1589,-27.527276,2.075227,4.333562,0.017945,0.041993,1.082658
1590,-23.254749,3.845274,4.577707,-0.049073,0.009522,1.021500
1591,-17.029068,2.868696,3.784237,-0.038819,0.056397,0.992569
1592,-20.630198,1.159686,2.990768,-0.052003,0.041749,0.993668
1593,-20.447089,-1.037613,1.831083,-0.028565,0.000732,1.044205
1594,-14.038300,-0.793469,0.305180,-0.030640,0.013428,1.033707
1595,-11.535821,-1.098650,-0.976577,-0.039429,0.017334,1.023697
1596,-12.695506,-3.112840,-0.183108,-0.027832,0.008301,1.010636
1597,-11.230640,-3.662165,-0.122072,-0.025879,0.013428,0.991592
1598,-10.437171,-3.845274,-0.427253,-0.033082,0.029419,0.993668
1599,-12.878614,-5.065995,-0.244144,-0.032959,0.004150,1.005997
1600,-10.742351,-5.188067,-0.305180,-0.025391,0.001465,1.026871
1601,-8.911269,-5.249104,-0.488289,-0.027466,0.005249,1.000504
1602,-8.850233,-5.249104,-0.183108,-0.014527,0.005493,1.032731
1603,-6.591897,-3.540093,-0.183108,-0.005493,0.004883,1.031876
1604,-5.737392,-2.014191,0.488289,-0.024903,0.003052,1.010147
1605,-5.310140,-1.647974,0.061036,-0.016114,0.007813,1.012955
1606,-4.394598,-1.403830,0.000000,-0.015259,0.005982,0.994766
1607,-4.699779,-1.831083,0.000000,-0.026123,0.018189,0.977554
1608,-6.591897,-2.746624,-0.122072,-0.017700,0.006592,1.002579
1609,-5.432212,-2.990768,-0.366217,-0.022827,-0.002197,1.003922
1610,-4.821851,-3.295949,-0.427253,-0.016114,0.000732,1.008438
1611,-3.906310,-3.418021,-0.671397,-0.010010,0.006226,0.988907
1612,-4.333562,-3.662165,-0.854505,-0.014771,0.015991,0.978286
1613,-6.652934,-4.272526,-0.610361,-0.023682,0.010498,0.986831
1614,-7.446403,-4.272526,-0.488289,-0.004883,-0.000855,1.012955
1615,-6.897078,-3.601129,-0.366217,-0.007324,-0.003418,1.004166
1616,-6.591897,-3.418021,-0.427253,-0.021485,-0.017945,1.009659
1617,-5.676356,-2.990768,-0.671397,-0.072877,0.094850,1.219135
1618,-2.075227,-2.624552,-0.427253,-0.002686,-0.063233,0.990372
1619,-5.249104,-3.479057,-0.244144,-0.007691,-0.031739,0.978775
1620,-2.197299,-2.868696,-0.122072,-0.002930,0.000366,1.002090
1621,-3.418021,-2.624552,0.061036,-0.001465,0.001221,1.005264
1622,-3.906310,-2.380407,0.305180,-0.011719,-0.010254,0.994888
1623,-3.356985,-2.258335,0.305180,-0.014771,-0.013916,1.010025
1624,-2.929732,-1.831083,0.549325,-0.005371,-0.024048,1.033219
1625,-0.244144,-0.854505,0.549325,-0.006714,-0.022339,1.034440
1626,1.525902,0.061036,0.732433,-0.006592,-0.016846,1.018570
1627,2.380407,-0.183108,0.305180,-0.016724,-0.026734,1.022965
1628,3.540093,-0.732433,-0.305180,-0.015259,-0.022095,1.006851
1629,5.859464,-1.098650,-0.732433,-0.007446,-0.017578,1.005509
1630,7.751583,-1.953155,-1.220722,-0.040284,0.022217,0.918593
1631,2.075227,-4.272526,-1.342794,-0.009888,0.033082,0.940200
1632,-4.394598,-5.188067,-0.976577,-0.006470,-0.006714,1.012833
1633,0.610361,-3.723201,-1.159686,0.010864,0.001343,0.990738
1634,-3.601129,-2.624552,-0.305180,0.012940,-0.018555,1.021256
1635,0.000000,-0.549325,-0.122072,0.014771,-0.020264,1.036515
1636,0.366217,1.159686,0.427253,0.007080,-0.006470,1.016739
1637,0.793469,2.197299,0.671397,-0.010010,-0.010132,1.005264
1638,2.014191,2.258335,0.671397,-0.011109,0.003906,0.990738
1639,0.000000,1.586938,0.488289,-0.029053,-0.002564,0.993423
1640,0.671397,0.671397,0.183108,-0.019165,-0.002564,0.976333
1641,0.610361,-0.915541,-0.122072,-0.023316,0.001831,0.972305
1642,-1.098650,-2.624552,-0.427253,-0.022705,-0.002075,0.973892
1643,-1.831083,-3.784237,-0.732433,0.008301,0.007813,0.978531
1644,-2.807660,-4.089418,-1.098650,-0.035889,0.006592,0.977798
1645,-5.004959,-5.188067,-1.159686,0.008911,-0.002075,1.019181
1646,-5.004959,-4.211490,-1.098650,0.000732,-0.012818,1.004288
1647,-3.906310,-3.662165,-0.915541,0.004883,-0.008057,1.007706
1648,-4.150454,-3.234913,-0.915541,-0.000855,-0.012696,1.019547
1649,-2.441444,-2.990768,-0.976577,0.004273,-0.017090,1.024918
1650,-1.464866,-2.136263,-1.342794,-0.002075,-0.014649,1.021988
1651,0.000000,-1.709010,-1.220722,0.020142,-0.018799,1.023453
1652,1.831083,-0.305180,-1.281758,0.003296,-0.014038,1.017716
1653,2.014191,0.427253,-1.037613,0.018921,-0.014893,1.028946
1654,3.234913,2.136263,-0.610361,0.018311,-0.017334,1.021500
1655,4.089418,3.784237,-0.183108,0.001831,-0.015015,1.006119
1656,4.333562,4.699779,0.122072,0.001587,-0.018433,1.020401
1657,5.676356,5.249104,0.305180,0.012818,-0.013306,1.031022
1658,7.141222,5.920500,0.305180,0.007202,-0.018067,1.017350
1659,8.606088,6.591897,0.427253,0.011963,-0.021241,1.028214
1660,11.047532,7.568475,0.427253,0.000488,-0.012573,1.022599
1661,12.085145,7.812619,0.244144,-0.017578,0.007568,0.981338
1662,9.399557,6.958114,0.549325,-0.009033,-0.004273,1.006973
1663,11.413748,6.958114,0.427253,-0.015259,-0.008423,1.015030
1664,14.404517,6.347753,0.000000,-0.031617,0.026612,0.932876
1665,8.850233,4.394598,0.000000,-0.043458,0.046021,0.889906
1666,1.464866,1.770047,0.488289,-0.041016,0.036011,0.943984
1667,-1.709010,0.732433,0.671397,0.008789,0.019287,0.988907
1668,-1.831083,2.014191,0.488289,-0.018067,0.009277,0.999893
1669,-1.098650,1.342794,0.671397,-0.020386,-0.009155,1.000381
1670,1.220722,1.159686,0.671397,-0.020020,0.010254,0.990860
1671,0.183108,0.488289,0.549325,-0.036866,0.016114,0.973281
1672,0.610361,-0.793469,0.488289,-0.034791,0.041138,0.933852
1673,-7.568475,-2.685588,0.671397,-0.008057,0.005615,1.009781
1674,-4.455634,-1.770047,0.732433,0.000122,-0.023560,1.051896
1675,-1.220722,-0.610361,0.915541,0.007568,-0.016968,1.044694
1676,1.525902,0.793469,1.037613,-0.009522,-0.021241,1.033829
1677,5.798428,0.427253,1.037613,-0.057252,0.010254,0.949722
1678,1.953155,-3.540093,0.183108,-0.055665,0.029297,0.962661
1679,0.305180,-6.958114,-0.976577,-0.025269,0.006958,1.005631
1680,2.868696,-6.408789,-1.464866,0.034302,0.031617,0.994766
1681,-1.098650,-4.455634,-0.549325,0.005371,0.020996,0.965713
1682,-4.638743,-3.295949,0.427253,-0.011231,0.003662,0.996963
1683,-4.516670,-3.784237,0.732433,-0.028077,-0.050416,0.995010
1684,7.751583,-3.845274,-0.366217,-0.032959,0.052369,0.928359
1685,-4.150454,-5.493248,0.549325,0.014527,0.074708,0.958999
1686,-12.878614,-4.272526,0.915541,-0.018067,-0.005493,1.044938
1687,-2.563516,-3.784237,0.183108,-0.035035,0.032349,0.944594
1688,-11.841001,-6.530861,-0.488289,-0.017578,0.047852,0.947402
1689,-14.404517,-7.934691,-1.159686,-0.006104,0.025025,0.952895
1690,-21.301595,-9.155413,-1.281758,0.021607,-0.066407,1.101457
1691,-6.530861,-6.408789,-1.281758,0.030884,-0.064820,1.098283
1692,-0.061036,-3.723201,-1.342794,0.043580,-0.031739,1.077409
1693,2.746624,-1.770047,-0.610361,0.013794,-0.006470,0.998795
1694,2.990768,-0.915541,-1.342794,-0.004883,0.010254,0.985733
1695,-5.249104,-2.563516,-0.549325,0.007202,-0.053590,1.062516
1696,8.361944,0.732433,-1.098650,0.032105,0.013794,0.986221
1697,0.671397,1.525902,-0.183108,0.014649,0.039796,0.998428
1698,-2.258335,2.624552,0.488289,0.020630,0.001831,0.978897
1699,-2.502480,4.516670,0.427253,-0.012451,0.034302,0.958022
1700,-10.925460,1.831083,0.793469,-0.033326,-0.037354,1.019913
1701,-0.610361,0.305180,-0.183108,-0.020874,-0.066407,1.044572
1702,4.028382,-1.342794,-0.610361,-0.008179,-0.040406,1.039567
1703,10.437171,-0.915541,-0.976577,-0.009522,0.027588,0.962661
1704,1.464866,-3.418021,-1.098650,-0.046265,-0.013672,0.884779
1705,1.586938,-4.882887,-1.220722,-0.000732,0.058839,0.932509
1706,-8.300908,-5.127031,-0.854505,-0.013306,0.043946,0.941787
1707,-14.892805,-5.798428,-0.610361,-0.004150,-0.018311,1.022965
1708,-10.070954,-5.737392,-0.976577,-0.001099,-0.024170,1.010513
1709,-6.347753,-6.408789,-1.831083,-0.011597,0.052247,0.990860
1710,-12.756542,-8.972305,-2.380407,0.005005,-0.028199,0.983658
1711,-8.484016,-8.850233,-3.967346,0.020264,-0.025513,1.035538
1712,-9.277485,-8.545052,-2.502480,0.013916,-0.033692,1.051530
1713,-0.793469,-7.751583,-2.624552,-0.010986,-0.066773,1.032120
1714,4.333562,-7.263294,-1.709010,0.047608,0.023926,1.014542
1715,0.244144,-5.737392,-1.098650,-0.027222,-0.004150,0.988663
1716,-2.441444,-5.249104,-0.854505,0.051392,-0.035279,1.012467
1717,-1.037613,-3.845274,-0.732433,0.026490,0.005859,0.973159
1718,-4.333562,-4.455634,-1.220722,0.002197,0.010010,0.967300
1719,-8.972305,-5.554284,-1.709010,0.030640,-0.037964,1.042130
1720,-1.159686,-4.028382,-2.746624,0.034546,-0.041260,1.022843
1721,-1.770047,-3.051804,-2.685588,0.027222,-0.011841,0.998672
1722,-3.662165,-2.624552,-2.746624,0.026856,-0.047974,1.049577
1723,3.479057,-1.098650,-2.929732,0.016724,-0.039429,0.993912
1724,3.723201,-1.342794,-2.075227,0.025147,-0.006714,0.996353
1725,2.258335,-0.366217,-1.220722,-0.001221,0.024537,0.967056
1726,-1.403830,-1.403830,-0.854505,0.000366,0.027710,0.936416
1727,-8.300908,-2.868696,-0.976577,0.006592,-0.011963,0.997940
1728,-6.775006,-2.258335,-1.953155,0.028931,-0.009522,1.005631
1729,-9.216449,-2.014191,-1.525902,0.033692,-0.023926,1.015396
1730,-7.019150,-1.220722,-1.647974,0.018921,-0.049073,1.038712
1731,-1.709010,-0.671397,-2.014191,0.029053,-0.046509,1.052750
1732,1.525902,0.366217,-1.647974,0.020142,-0.036255,1.011612
1733,2.136263,0.427253,-1.220722,0.013306,-0.022217,0.978164
1734,0.793469,-0.305180,-1.464866,0.001831,-0.004150,0.968276
1735,-1.342794,-1.892119,-1.464866,0.009766,-0.004395,0.963882
1736,-3.967346,-2.807660,-1.525902,0.006592,-0.009033,0.918715
1737,-4.394598,-1.220722,-6.164645,0.047364,-0.006714,1.017227
1738,-9.887846,-4.272526,0.305180,-0.037720,-0.059693,1.024552
1739,-1.403830,-0.915541,-3.601129,0.010864,0.045045,1.020157
1740,-6.530861,2.502480,-14.526589,0.027710,-0.048951,1.026383
1741,-16.601816,-2.136263,-0.671397,0.012207,-0.046143,0.969253
1742,-5.493248,-0.671397,-0.732433,0.036500,-0.046387,1.033585
1743,-4.150454,-0.061036,-0.366217,0.019165,-0.037598,1.019303
1744,-3.540093,-0.244144,0.000000,0.017212,-0.048096,1.012833
1745,1.586938,-1.037613,0.122072,0.011353,-0.027100,0.991592
1746,0.366217,-2.014191,0.366217,0.052125,-0.006958,0.984878
1747,-0.305180,-1.464866,0.122072,0.000855,-0.020142,0.986831
1748,-2.563516,-2.014191,0.000000,0.041016,-0.021118,1.009903
1749,-3.540093,-0.854505,-0.427253,0.013306,-0.038453,0.980606
1750,-4.394598,-0.854505,-0.366217,0.024048,-0.038453,0.996963
1751,-4.943923,-0.488289,-0.549325,0.025025,-0.027100,0.988418
1752,-7.568475,-0.915541,-0.610361,0.018311,-0.013062,0.987686
1753,-10.437171,-1.159686,-1.464866,0.007446,-0.034302,1.011368
1754,-7.507439,-1.892119,-0.976577,-0.010742,-0.058350,1.036027
1755,-2.563516,-1.770047,-0.610361,0.030152,-0.025513,1.033097
1756,-5.188067,-1.037613,-0.122072,0.036011,-0.046143,1.019181
1757,-3.418021,0.000000,-0.183108,0.018189,-0.053101,1.018570
1758,-4.028382,-0.061036,-0.183108,0.032105,-0.032959,0.994522
1759,-2.563516,-0.061036,0.305180,0.019654,-0.055177,1.023453
1760,-0.183108,-0.305180,0.915541,0.025635,-0.041749,0.993668
1761,3.601129,0.366217,0.976577,0.015503,-0.045899,1.006485
1762,4.821851,0.854505,1.098650,0.033814,-0.031739,0.994278
1763,6.958114,1.098650,0.915541,-0.016236,-0.096925,1.034195
1764,16.601816,-0.122072,1.709010,0.079225,0.021851,1.004776
1765,8.300908,-2.563516,6.836042,0.033204,-0.017456,1.007340
1766,11.779965,-1.037613,3.784237,0.022461,-0.028565,1.008682
1767,9.887846,-1.586938,3.234913,0.022705,-0.019409,0.965103
1768,0.793469,-1.220722,3.356985,0.042725,-0.016358,1.011856
1769,2.014191,-0.244144,1.709010,0.030274,-0.030884,1.006729
1770,-0.976577,0.122072,0.732433,0.024537,-0.024170,0.990372
1771,-2.136263,0.061036,0.427253,0.023072,-0.034546,1.009659
1772,-1.220722,0.061036,0.488289,0.023316,-0.017212,0.987198
1773,-5.920500,-0.793469,0.671397,0.018189,-0.035645,1.000870
1774,-2.502480,-0.427253,-0.244144,0.026001,-0.041627,1.008072
1775,-0.427253,-0.244144,-0.610361,0.033082,-0.025391,0.999649
1776,-2.197299,0.000000,-0.610361,0.015625,-0.036255,1.010758
1777,2.075227,0.244144,-0.793469,0.023072,-0.031373,0.996719
1778,0.976577,0.122072,-0.427253,0.020874,-0.043458,1.020768
1779,0.915541,0.000000,-0.305180,0.029419,-0.039185,1.017227
1780,1.586938,0.061036,-0.366217,0.020752,-0.021118,1.006241
1781,0.976577,-0.244144,0.000000,0.022827,-0.024903,0.996231
1782,0.488289,-0.671397,-0.305180,0.012696,-0.021851,0.994888
1783,0.793469,-1.281758,-0.183108,0.027710,-0.017456,0.998550
1784,-0.366217,-1.464866,-0.244144,0.034791,-0.031128,1.000504
1785,0.610361,-0.671397,-0.427253,0.036866,-0.031983,1.012955
1786,1.770047,0.793469,-0.976577,0.031617,-0.033448,0.990005
1787,-0.488289,0.854505,-1.403830,0.014282,-0.035645,1.029435
1788,3.540093,1.342794,-1.342794,0.026246,-0.004517,0.992447
1789,0.793469,0.671397,-0.976577,0.001587,-0.029664,0.996963
1790,1.647974,0.549325,-0.122072,0.029053,-0.034180,0.999283
1791,2.563516,0.549325,-0.427253,0.023194,-0.025025,0.986465
1792,-0.427253,0.183108,-0.976577,0.019043,-0.027466,0.992569
1793,4.333562,-0.122072,-0.610361,0.053590,-0.015503,0.950088
1794,-5.127031,1.037613,-3.051804,0.017090,-0.027344,1.003799
1795,-5.554284,1.159686,-3.173877,0.028321,-0.028931,1.014420
1796,-2.441444,1.953155,-4.699779,0.031983,-0.027100,1.013077
1797,-5.249104,2.075227,-4.943923,0.031861,-0.028687,0.988296
1798,-5.493248,2.136263,-4.882887,0.026246,-0.035035,1.021622
1799,-2.380407,2.807660,-6.286717,0.022705,-0.036378,1.008072
