Packet number,Gyroscope X (deg/s),Gyroscope Y (deg/s),Gyroscope Z (deg/s),Accelerometer X (g),Accelerometer Y (g),Accelerometer Z (g)
0,0.0,0.122072,0.0,-0.002564,-0.001709,0.999283
4,0.0,0.0,0.0,0.0028079999999999997,-0.000122,0.999771
8,-0.183108,-0.183108,0.0,-0.000977,-0.003906,1.003067
12,-0.48828900000000003,-0.244144,0.0,0.0035399999999999997,-0.003418,1.001236
16,-0.244144,-0.30518,-0.183108,-0.012818000000000001,0.000244,1.000137
20,0.427253,0.0,0.0,0.000244,0.002686,1.000259
24,-0.061036,-0.183108,0.0,-0.0008550000000000001,-0.005982,1.00209
28,-0.122072,-0.183108,0.0,0.0021969999999999997,0.0008550000000000001,1.0008700000000001
32,0.122072,0.0,0.0,0.0015869999999999999,-0.0051270000000000005,0.9952540000000001
36,0.183108,0.0,-0.183108,0.00061,-0.005249,1.0040440000000002
40,-0.30518,-0.244144,0.0,0.0035399999999999997,-0.0031739999999999997,1.003311
44,0.0,-0.122072,-0.183108,-0.000244,0.000488,1.005997
48,-0.061036,-0.183108,-0.183108,0.00415,0.000977,1.0042879999999998
52,-0.183108,-0.183108,0.0,0.004761,0.0028079999999999997,0.9987950000000001
56,-0.48828900000000003,-0.366217,0.0,0.002441,-0.00293,1.0080719999999999
60,-0.061036,-0.122072,-0.122072,0.001099,-0.008667,0.9946440000000001
64,0.0,0.0,-0.122072,0.00293,-0.00415,0.999771
68,-0.061036,-0.244144,0.0,0.006104,-0.003296,1.002945
72,0.183108,0.48828900000000003,0.0,-0.0058590000000000005,-0.009033,0.996841
76,0.366217,1.037613,-0.122072,-0.012573,-0.004028,0.995132
80,0.732433,0.854505,0.183108,-0.006592,0.00061,0.996841
84,-0.061036,-0.366217,-0.244144,-0.0008550000000000001,0.000732,0.9990389999999999
88,-0.30518,0.122072,-0.427253,-0.002441,0.0015869999999999999,0.991714
92,-0.793469,0.793469,0.122072,-0.0037840000000000005,-0.0063479999999999995,1.005142
96,-0.122072,0.183108,0.0,-0.001465,-0.0037840000000000005,1.002579
100,-0.6103609999999999,-0.244144,-0.122072,0.004028,0.000488,0.992447
104,-0.30518,0.366217,0.061036,-0.000244,0.0008550000000000001,0.999649
108,-1.281758,-0.183108,0.061036,-0.002075,-0.0035399999999999997,0.9901270000000001
112,-1.40383,-0.732433,0.183108,-0.003418,-0.006714,1.0048979999999998
116,-1.037613,-1.586938,0.549325,-0.0028079999999999997,-0.012695999999999999,1.008804
120,-2.319371,-1.281758,1.342794,0.000244,0.019043,0.9602200000000001
124,-13.916228,-5.61532,0.427253,0.004517,0.0074459999999999995,0.9720610000000001
128,-26.733806,-7.751583,-1.8921189999999999,0.05139199999999999,0.086671,0.913832
132,-59.876402,-3.418021,-0.549325,0.003296,0.021851,1.011124
136,-87.281605,-7.629511,-12.756542,0.031006,0.076905,0.957046
140,-74.525063,43.701839,-1.647974,-0.743664,0.347906,1.9999689999999999
144,2.685588,22.888533,-1.525902,0.477058,0.764904,1.085832
148,72.3888,-16.784924,-25.391012,0.21155100000000002,0.5926600000000001,0.964736
152,96.25391,-12.512398,-33.142596000000005,-0.11840999999999999,0.415045,0.972305
156,105.89761200000001,12.63447,-16.479744,-0.164675,0.327398,1.074235
160,127.199207,15.747310999999998,-12.817578,0.12695499999999998,0.32422399999999996,1.326314
164,138.36881100000002,10.070953999999999,-35.156786,0.076539,0.231571,1.1338059999999999
168,138.36881100000002,19.226368,-43.640803000000005,-0.055787,-0.0023190000000000003,1.151995
172,113.09987,21.301595000000002,-43.51873,0.081544,-0.28931100000000004,0.8955209999999999
176,70.49668100000001,4.333562000000001,-53.406577,0.20947600000000002,-0.5352859999999999,0.613535
180,15.808347,-10.864424,-49.622339000000004,-0.127565,-0.628305,0.6731060000000001
184,-22.400244,-22.522316,-11.169604,-0.186893,-0.479988,0.715709
188,-60.303655000000006,-8.239872,6.591897,0.10901,0.8712290000000001,0.0271
192,-170.16861200000002,-37.048905,19.65362,-0.450446,-0.083864,1.0160069999999999
196,-95.216297,-3.784237,8.300908,0.658579,0.182254,1.6068360000000002
200,-73.487449,0.48828900000000003,6.042573,-0.490242,0.043824,0.793225
204,-68.726635,-34.424353,17.212177,-0.053346000000000005,-0.12976300000000002,1.430442
208,-46.021209999999996,-38.635843,13.000687,0.41724300000000003,0.010254000000000001,1.5517809999999999
212,-31.921874,-15.503166,3.723201,0.160403,0.025025,1.117815
216,-18.677042999999998,-10.681315,0.793469,0.002564,0.045045,1.016861
220,-18.066682,-11.779964999999999,0.061036,0.008667,0.04419,1.013321
224,-12.878614,-5.859464,0.30518,0.035644999999999996,-0.006592,1.0268709999999999
228,-9.399557000000001,-3.784237,0.976577,0.01001,-0.014405000000000001,1.0089270000000001
232,-8.1178,-5.371176,0.122072,0.020874,-0.003296,1.011978
236,-8.911269,-6.164645,0.122072,0.032958999999999995,-0.016236,1.010391
240,-9.399557000000001,-6.347753,0.244144,0.022461000000000002,-0.013916,0.9979399999999999
244,-15.869383,-8.239872,0.122072,0.057496000000000005,-0.048829000000000004,1.0080719999999999
248,-14.0383,-4.333562000000001,1.09865,0.032837,-0.012695999999999999,0.981216
252,-19.226368,-7.324331,-0.30518,0.045533,-0.059204999999999994,0.9990389999999999
256,-24.658579,-5.554284,0.30518,0.055421000000000005,-0.052735000000000004,0.992691
260,-24.597542999999998,-2.2583349999999998,2.197299,0.063111,-0.08191,1.021256
264,-30.701152,1.70901,1.8921189999999999,0.041016000000000004,-0.017945,1.007218
268,-53.223468000000004,7.873655,2.50248,0.056886,-0.11767799999999999,1.014298
272,-48.82887,11.535821,-7.507439,0.008911,-0.281621,1.0316319999999999
276,-98.57328100000001,8.789197,2.380407,-0.035767,0.094484,0.70399
280,-322.392615,-38.086519,-14.953841,-0.049683,-0.007935,1.4173799999999999
284,-662.8519110000001,-107.54558600000001,13.550010999999998,0.177127,-0.8222780000000001,1.9999689999999999
288,-5.9205,21.301595000000002,-33.081559000000006,-0.5039140000000001,0.548226,1.3866180000000001
292,2.2583349999999998,-16.052491,-11.047532,0.164797,0.256474,0.7306020000000001
296,91.73724,10.925460000000001,-51.453421999999996,-0.105104,0.395636,1.175677
300,186.343175,31.311513,-31.616692999999998,-0.259281,0.09485,1.1787290000000001
304,219.36369900000003,42.420081,11.169604,-0.059083000000000004,-0.049073,0.8723280000000001
308,238.52902999999998,62.378882,3.356985,0.376471,-0.018067,1.357809
312,248.783093,59.571220999999994,-12.939651,0.343999,-0.30933099999999997,1.4061489999999999
316,198.61142900000002,42.420081,-32.593271,0.188357,-0.339971,1.5724120000000001
320,234.68375699999999,63.660639,-28.198672,-0.23267,-0.6189060000000001,1.885527
324,197.085527,69.642176,13.305867000000001,0.063722,-0.678477,1.369162
328,148.25665700000002,64.332036,5.127031,0.185916,-1.030167,1.259541
332,93.018997,60.914015,-7.2022580000000005,0.579232,-2.0000310000000003,0.12903
336,-110.10910200000001,-95.338369,24.475471,0.269169,-2.0000310000000003,-1.244404
340,-200.44251200000002,-66.83451600000001,37.354085999999995,-0.397833,0.626108,1.522118
344,-177.737087,-42.603189,24.96376,1.151507,-0.028808999999999998,1.9999689999999999
348,-116.02960300000001,-52.368963,35.88922,-0.5886319999999999,-0.341314,1.354025
352,-49.988556,-20.447089000000002,7.629511,-0.28455,-0.036622,1.026017
356,-23.193713,5.188067,-0.671397,0.063722,-0.025147,1.1111010000000001
360,-10.742351,14.587625,3.6621650000000003,0.006958,0.020996,1.011124
364,-12.756542,11.474784,1.40383,-0.021241,0.006958,0.9911040000000001
368,-14.404517000000002,8.972305,1.7700470000000001,-0.020630000000000003,-0.014527000000000002,1.010391
372,-13.977264000000002,8.972305,1.159686,-0.042359,-0.002441,0.971817
376,-13.550010999999998,4.150454,0.9155409999999999,-0.057496000000000005,-0.029664,0.9712059999999999
380,-10.742351,-1.464866,0.48828900000000003,-0.094972,0.013062,1.127092
384,-8.484016,-5.7984279999999995,0.427253,-0.032715,-0.044923000000000005,1.00441
388,-7.2022580000000005,-4.760815,0.732433,-0.014282,-0.039918,1.005875
392,-7.141222,0.6103609999999999,2.319371,-0.029786,-0.044068,0.9984280000000001
396,-11.779964999999999,0.6103609999999999,4.150454,-0.021363,-0.047852,0.9869540000000001
400,-17.883574,-2.624552,4.089418,-0.043458,-0.027832,0.953262
404,-26.001373,-6.652933999999999,2.685588,-0.051514,-0.10009900000000001,0.9990389999999999
408,-26.001373,-7.385367,2.80766,-0.05285700000000001,-0.080201,0.9826809999999999
412,-32.593271,-14.343481,-5.065995,-0.028687,-0.10144199999999999,0.9945219999999999
416,-43.51873,-19.409476,-11.108568,0.03003,-0.16003699999999998,1.0564129999999998
420,-67.689021,-9.155413000000001,-13.305867000000001,0.023804,-0.075441,0.9973299999999999
424,-208.926528,-8.911269,-24.109254999999997,0.319585,-0.041382,0.8883190000000001
428,-610.788129,-53.101395999999994,-0.976577,-0.041138,-0.0813,1.263569
432,8.850233,-67.017624,4.028382,-0.716808,-0.21484699999999998,1.9999689999999999
436,54.261081999999995,12.085144999999999,33.875029,0.189578,0.435187,0.596201
440,56.153201,-13.427939000000002,-17.212177,0.13196,0.550423,1.044327
444,157.473106,-20.508125,-32.898451,-0.21704400000000001,0.328862,1.190326
448,246.70786600000002,1.7700470000000001,-3.90631,-0.44641800000000004,-0.024537,1.202899
452,278.080415,27.038987,27.283131,-0.111818,-0.24194699999999997,0.9549709999999999
456,219.119554,45.838102,1.7700470000000001,0.079347,-0.35425300000000004,1.0520180000000001
460,246.89097400000003,51.148241,-5.981537,-0.11645699999999999,-0.578134,1.9999689999999999
464,221.560998,62.439918000000006,-3.1128400000000003,-0.15552,-0.818128,1.9999689999999999
468,236.697948,75.928893,7.01915,-0.09472799999999999,-0.891249,1.52639
472,215.152209,53.528649,37.415122,-0.021729,-1.145159,1.289204
476,119.50866,53.589684999999996,12.756542,0.875868,-1.967193,0.782971
480,-27.893492,-32.349126,-11.657893,0.193118,-1.7401389999999999,0.084718
484,-119.996948,-37.659265999999995,15.197985999999998,-0.468513,0.8526739999999999,1.265034
488,-274.052033,-54.016938,52.368963,0.9309219999999999,-0.272953,1.9999689999999999
492,-129.518578,44.373236,0.671397,-1.226825,-0.048829000000000004,1.958282
496,-44.92256,-52.491035,20.874342000000002,0.39295,0.069093,1.618433
500,-25.696193,-34.607462,2.868696,0.105592,0.05774,1.231464
504,-20.752270000000003,-7.2022580000000005,2.868696,-0.022461000000000002,0.024048,1.016617
508,-12.451362,10.681315,1.70901,0.03772,0.008057,1.0515299999999999
512,-16.540779999999998,5.188067,1.342794,-0.035767,-0.007568000000000001,1.015518
516,-10.986496,2.4414439999999997,1.464866,-0.02417,-0.013428,1.0000149999999999
520,-9.643702000000001,1.464866,0.48828900000000003,-0.05127,0.17969000000000002,1.260029
524,-18.738079,-1.8310830000000002,1.159686,-0.014282,-0.025147,1.005142
528,-12.939651,-2.624552,0.061036,-0.060792,-0.072999,1.1540700000000002
532,-12.085144999999999,-5.61532,0.0,-0.010498,-0.046265,1.020035
536,-9.338521,-1.953155,0.854505,-0.000122,-0.044068,0.974258
540,-13.794156,-1.70901,1.70901,-0.019287000000000002,-0.038331,0.9749899999999999
544,-20.752270000000003,-5.981537,1.70901,-0.019532,-0.041749,0.9953770000000001
548,-26.977951,-1.8921189999999999,5.61532,-0.015015,-0.076295,1.008804
552,-33.081559000000006,-6.652933999999999,3.6621650000000003,-0.0028079999999999997,-0.049683,0.9980620000000001
556,-42.1149,-9.460594,-2.624552,0.0021969999999999997,-0.097902,0.948989
560,-46.082246000000005,-11.535821,-9.52163,0.003662,-0.19336199999999998,1.042985
564,-52.796216,-4.699779,-9.582666,-0.007812999999999999,-0.117067,0.9944
568,-181.58236100000002,-9.765774,-15.625238000000001,0.21924200000000002,0.12109600000000001,0.8750129999999999
572,-612.00885,-30.457008000000002,8.484016,-0.16199000000000002,-0.11230599999999999,1.169574
576,-198.42832099999998,-85.206378,12.63447,-0.850477,-1.263325,1.9999689999999999
580,41.382467,-10.070953999999999,49.011978000000006,0.039918,0.284794,1.383078
584,72.205692,6.836042,-11.596857,0.219852,0.531868,0.9159079999999999
588,159.97558600000002,-39.00206,-31.738766,-0.020263999999999997,0.299809,0.973648
592,224.734875,12.085144999999999,-35.461967,-0.26758200000000004,0.056031,1.248432
596,277.22591,20.630198,-8.361944,-0.10583699999999999,-0.132448,1.274556
600,261.53963500000003,70.923934,-21.484703,0.152834,-0.474861,0.659068
604,196.90241899999998,53.71175699999999,-40.40589,0.198489,-0.202396,1.9999689999999999
608,251.468681,68.48249,-29.236286,-0.087037,-0.725963,1.9999689999999999
612,280.33875,54.871443000000006,-20.569162,0.26160100000000003,-0.800671,1.6108639999999999
616,230.472267,55.420768,-37.964446,0.157351,-1.1032879999999998,1.381003
620,124.20843799999999,97.77981199999999,-57.06874200000001,0.659068,-2.0000310000000003,0.862562
624,-57.862211,-97.230488,-9.765774,0.192142,-1.5907229999999999,0.462654
628,-111.45189599999999,-23.132676999999997,11.963073,-0.758679,1.140032,1.505028
632,-333.745327,-83.25322299999999,83.37529599999999,0.749401,-0.390021,1.322286
636,-143.312734,43.274586,-21.850919,-0.468391,-0.042115,1.9957580000000001
640,-67.933165,-69.520104,34.79057,0.8169069999999999,0.068605,1.574975
644,-46.021209999999996,-50.843061,5.249104,0.43213599999999996,-0.018067,1.350729
648,-21.362631,-0.244144,3.356985,0.006592,0.042969,1.019303
652,-19.714656,2.50248,2.50248,-0.013184,0.014159999999999999,1.000504
656,-12.878614,-1.525902,1.159686,-0.025147,-0.027222000000000003,1.0466469999999999
660,-12.207218,-11.352712,0.549325,-0.038941,-0.029175,0.889418
664,-10.742351,-16.540779999999998,-0.183108,-0.002441,0.021606999999999998,1.093889
668,-9.765774,-10.803388,1.8310830000000002,0.007201999999999999,-0.025391,1.024674
672,-6.2867169999999994,-8.850233,1.09865,0.015137000000000001,-0.008911,1.051408
676,-7.6905470000000005,-8.361944,0.671397,0.027344,-0.039429,0.989273
680,-6.897078,-5.554284,1.342794,0.007935,-0.017334,0.980972
684,-15.686275,-9.643702000000001,0.244144,0.025635,-0.027710000000000002,0.985977
688,-23.010604999999998,-6.2867169999999994,1.342794,0.047242,-0.023681999999999998,0.991226
692,-33.997101,-2.624552,3.418021,0.041382,-0.080812,1.029679
696,-47.913329,-1.586938,6.469825,0.022705,-0.056152999999999995,0.9858549999999999
700,-50.904097,0.6103609999999999,0.9155409999999999,0.031617,-0.063233,1.0310219999999999
704,-41.565576,-0.9155409999999999,-5.0049589999999995,0.088869,-0.195071,1.086198
708,-63.355458999999996,11.352712,-6.103609,0.04773,0.13281500000000002,0.8767219999999999
712,-268.497749,-28.0766,-26.062409,-0.134279,0.8252079999999999,0.8372930000000001
716,-749.46212,-136.110475,54.505226,0.048096,-0.266972,0.98793
720,216.372931,18.799115,-52.552071,0.034546,1.348165,1.385397
724,36.072328000000006,-9.399557000000001,12.085144999999999,0.007935,0.417731,0.199344
728,91.126879,4.760815,-26.794842,-0.029175,0.390021,1.085832
732,189.70016,13.855192,-27.893492,-0.251713,0.20019800000000001,1.269184
736,257.57229,40.527962,6.347753,-0.12365899999999999,-0.092042,1.1297780000000002
740,274.296178,47.974365,2.4414439999999997,0.479133,-0.131838,1.257588
744,271.061265,60.975052000000005,-62.928206,0.344244,-0.485969,1.5364
748,219.668879,70.923934,-57.557031,-0.21692199999999998,-0.5815520000000001,1.8045930000000001
752,260.074769,92.59174499999999,-23.926146,0.039918,-0.707286,1.992462
756,217.044327,79.89623900000001,3.784237,0.30041999999999996,-0.944106,1.456443
760,160.769055,17.212177,-5.065995,0.7485470000000001,-2.0000310000000003,0.952773
764,-25.391012,-47.608148,-1.40383,-0.0043950000000000005,-1.829618,-0.32300300000000004
768,-173.464561,-74.769207,44.3122,-0.379278,-0.425177,0.9188370000000001
772,-277.836271,-65.613794,49.256122999999995,1.1158620000000001,-0.37903400000000004,1.594629
776,-125.12398,-36.072328000000006,31.006332,-1.059464,-0.41492299999999993,1.670924
780,-18.677042999999998,9.765774,7.507439,-0.540902,-0.10461600000000001,0.835096
784,-13.061722999999999,-8.667124000000001,0.183108,0.033692,0.037110000000000004,0.9908600000000001
788,-5.188067,-8.1178,0.0,0.018799,0.032958999999999995,0.96791
792,-9.52163,-2.4414439999999997,2.319371,0.009644,0.032593000000000004,0.961318
796,-14.404517000000002,-10.193027,0.549325,-0.033936,0.010498,1.0085600000000001
800,-12.085144999999999,-7.385367,0.244144,0.021851,-0.012573,1.034928
804,-8.850233,-1.159686,2.380407,0.008545,-0.017945,1.0199129999999998
808,-9.52163,-6.897078,1.525902,-0.005371,0.000977,0.996841
812,-12.024109,-10.315099,0.671397,0.022583000000000002,-0.034791,0.982559
816,-15.503166,-6.469825,1.159686,0.041138,-0.028808999999999998,1.007218
820,-20.874342000000002,-3.90631,1.70901,0.035401,-0.050172,1.004532
824,-21.972992,-0.549325,2.4414439999999997,0.042847,-0.057496000000000005,1.010636
828,-24.353399,1.159686,3.1128400000000003,0.027344,-0.028443,0.961807
832,-45.471885,1.40383,4.882887,0.004639,-0.145876,0.976333
836,-35.034714,6.530861,7.141222,-0.00647,-0.072633,1.03151
840,-38.330663,-0.427253,-3.784237,-0.13086099999999998,-0.21460300000000002,1.063493
844,-38.69688,-1.647974,-5.737392,0.054932,-0.198489,1.07863
848,-109.681849,5.554284,-16.052491,0.010131999999999999,0.262821,0.866957
852,-469.67269400000004,-32.166018,-29.297321999999998,0.061036,0.428962,1.202289
856,-787.853819,-117.860685,78.553445,-0.004883,-2.0000310000000003,1.9999689999999999
860,-6.103609,17.029068,-5.61532,-0.579599,0.882948,1.202899
864,28.0766,10.193027,-5.0049589999999995,0.022461000000000002,0.244633,0.591196
868,126.466773,0.9155409999999999,-30.151827,-0.034913,0.43628599999999995,1.148943
872,204.959182,30.334936,-23.804074,-0.249027,0.053712,1.027726
876,249.82070699999997,52.368963,14.282444,-0.062379,-0.19067699999999999,1.2018010000000001
880,255.802243,54.566262,-6.897078,0.44715,-0.295903,1.307515
884,264.22522299999997,55.237658999999994,-44.556344,0.190921,-0.446906,1.6793470000000001
888,246.829938,62.745098,-47.119859999999996,0.130129,-0.538216,1.631373
892,228.15289500000003,71.656367,-55.237658999999994,0.12414700000000001,-0.512459,1.818143
896,192.50782,77.02754300000001,-25.085832,-0.216678,-0.992081,1.7967799999999998
900,137.57534099999998,133.97421200000002,9.277485,0.47803500000000004,-2.0000310000000003,1.55227
904,-58.167391,-17.273213000000002,79.22484200000001,0.463142,-1.780301,-0.9956209999999999
908,-94.30075500000001,-138.490883,-8.42298,-0.19324000000000002,0.9506979999999999,1.973541
912,-341.557946,-111.94018500000001,54.44419,0.8653700000000001,-0.184817,1.9999689999999999
916,-142.27512,-48.584726,36.865797,-1.160906,-1.095232,1.778103
920,-34.302281,7.080186,9.704738,-0.976333,-0.202152,0.61915
924,-24.048219,-17.151141,-1.525902,-0.001343,-0.040162,1.1239190000000001
928,-6.958114,3.418021,2.685588,0.036988,0.034546,1.007218
932,-6.958114,1.281758,1.2207219999999999,-0.036133,-0.002686,0.997818
936,-7.080186,0.6103609999999999,1.09865,-0.0037840000000000005,-0.007201999999999999,1.018448
940,-7.385367,0.793469,0.671397,-0.024291999999999998,0.001831,0.979873
944,-11.047532,1.342794,1.586938,-0.01001,-0.024291999999999998,1.026383
948,-7.507439,3.967346,3.051804,-0.038209,-0.015503,0.976089
952,-4.272526,-4.760815,1.70901,-0.027955,-0.055542999999999995,0.952773
956,-7.934691,-7.629511,1.037613,-0.001709,-0.025147,0.9984280000000001
960,-7.507439,-8.728161,0.30518,-0.016968,-0.041627,1.0236969999999999
964,-16.296635000000002,-6.836042,0.48828900000000003,-0.053101,-0.011963,1.156634
968,-31.067369,-9.887846000000001,1.464866,-0.001831,-0.074464,1.021744
972,-20.508125,-5.065995,1.8921189999999999,0.014159999999999999,-0.07800399999999999,0.99855
976,-32.715343,-2.929732,1.525902,-0.033204000000000004,-0.03772,0.949966
980,-42.847333,-5.7984279999999995,1.09865,0.043946,-0.14331300000000002,0.9316549999999999
984,-54.016938,-10.864424,-11.23064,0.017212,-0.200931,1.064103
988,-76.78339799999999,-4.8218510000000006,-14.831769,0.005371,0.10925499999999999,0.8772110000000001
992,-205.081254,-18.921187,-21.789883,-0.11767799999999999,0.6735939999999999,1.2802930000000001
996,-733.9589530000001,-76.90547,35.767146999999994,-0.224369,-0.16552999999999998,0.8913709999999999
1000,294.132906,-49.378195,-21.728847000000002,-0.652964,0.7577020000000001,1.9999689999999999
1004,67.383841,0.793469,14.404517000000002,-0.075196,0.442267,-0.12195
1008,81.72732099999999,-12.451362,-9.82681,-0.010986,0.372442,0.996719
1012,193.667506,-1.647974,-26.428626,-0.173953,0.20740100000000003,1.276753
1016,248.53894900000003,24.902724,-5.981537,-0.293584,-0.14636500000000002,1.030167
1020,276.43244100000004,34.79057,11.413748,-0.01294,-0.20703400000000002,1.293599
1024,234.500649,79.285878,-4.8218510000000006,0.10779000000000001,-0.46619399999999994,0.984634
1028,222.23239500000003,61.951629000000004,-22.705425,0.16492,-0.406989,1.9999689999999999
1032,294.804303,59.388113,-24.475471,0.09362899999999999,-0.734142,1.969757
1036,251.895933,60.425727,-30.762188000000002,0.167483,-0.841932,1.637842
1040,165.10261699999998,106.69108100000001,-52.613108,0.413092,-2.0000310000000003,1.241352
1044,0.671397,54.993515,1.7700470000000001,0.11499200000000001,-2.0000310000000003,-1.206073
1048,-170.412757,-177.615015,25.940337,0.035401,0.124269,1.9900209999999998
1052,-271.976806,-103.212024,66.83451600000001,0.63331,-0.176516,0.830335
1056,-153.50576,17.822538,-21.05745,-0.6890970000000001,-0.316777,1.839384
1060,-34.912642,-12.512398,-2.868696,1.141497,-0.124025,1.487694
1064,-42.053864000000004,-4.943923000000001,0.061036,-0.133181,-0.100587,1.2213319999999999
1068,-7.568475,-12.207218,1.2207219999999999,-0.033569999999999996,-0.028443,1.03566
1072,-14.587625,-6.958114,2.746624,0.038697,0.019165,1.0053860000000001
1076,-16.906996,-4.943923000000001,1.586938,0.010986,-0.0177,0.997208
1080,-15.442129999999999,-2.624552,2.014191,0.018067,-0.027955,1.013931
1084,-15.747310999999998,-4.577707,1.8921189999999999,0.020386,-0.045167,1.0048979999999998
1088,-14.770732999999998,-5.676356,1.647974,0.015991,-0.031617,0.9902489999999999
1092,-13.977264000000002,-5.981537,0.366217,0.030396,-0.083742,1.009781
1096,-10.070953999999999,-4.089418,0.671397,0.032837,-0.064332,0.9941559999999999
1100,-13.855192,-1.525902,1.40383,0.022338999999999998,-0.056275,0.992813
1104,-20.752270000000003,-1.647974,1.8310830000000002,0.029541,-0.080568,1.004532
1108,-22.583351999999998,-0.6103609999999999,1.586938,0.01709,-0.09485,0.949722
1112,-28.442816999999998,5.0049589999999995,7.263294,0.037354000000000005,-0.107179,1.01149
1116,-40.466926,3.845274,3.356985,-0.017456,-0.105715,0.996353
1120,-53.833829,-3.295949,-10.193027,0.047852,-0.256352,1.001358
1124,-24.658579,-1.70901,-9.216449,0.025025,0.015503,0.996231
1128,-226.19974100000002,-3.173877,-46.814679,0.006104,0.1991,0.718761
1132,-746.8375679999999,-165.34676100000001,19.958801,0.09399600000000001,-0.40369299999999997,1.49575
1136,279.667353,-7.6905470000000005,4.8218510000000006,-0.445075,0.54725,1.9999689999999999
1140,84.16876500000001,-2.197299,54.932479,0.195071,0.581796,0.050782
1144,70.435645,-31.494621000000002,-13.794156,0.42761899999999997,0.572274,1.0199129999999998
1148,181.27718000000002,-23.071641,-55.970092,-0.096925,0.24890500000000002,1.0116120000000002
1152,231.021592,8.178836,-21.667811,-0.3888,-0.06421,1.066423
1156,275.27275499999996,27.649348,15.320058,-0.106081,-0.146731,1.310933
1160,280.76600299999996,60.730906999999995,-10.437171000000001,0.200076,-0.45215500000000003,1.235615
1164,203.311208,71.107042,-30.884259999999998,0.204959,-0.408698,1.960723
1168,261.78378,61.890593,-54.627297999999996,0.124758,-0.677623,1.9999689999999999
1172,266.17837799999995,69.642176,-48.462654,0.088502,-0.853773,1.6745860000000001
1176,208.377203,93.385214,-58.472572,0.28186500000000003,-1.3232620000000002,1.3652549999999999
1180,103.639277,162.478065,-67.811093,0.544198,-2.0000310000000003,0.033082
1184,-92.59174499999999,-100.770581,44.678416,0.012695999999999999,-1.257954,0.665049
1188,-131.77691299999998,-111.085679,47.852292999999996,-0.775158,0.839612,0.292973
1192,-207.217517,-54.016938,39.673457,1.99942,0.153201,1.9999689999999999
1196,-135.805295,18.616007,19.958801,-1.926177,-0.440558,1.939727
1200,-46.387427,-40.650034000000005,15.564201999999998,-0.132448,-0.017334,1.5987790000000002
1204,-21.179522,-23.071641,2.014191,-0.08105599999999999,-0.014282,1.115129
1208,-19.104295,-1.8310830000000002,4.577707,0.009766,0.005371,1.065324
1212,-20.630198,10.681315,1.647974,0.002564,0.0177,0.8798959999999999
1216,-26.001373,2.746624,0.48828900000000003,-0.016236,0.009033,1.043839
1220,-17.639429,4.21149,2.80766,-0.017578,-0.008667,1.025772
1224,-15.075914000000001,-1.2207219999999999,-0.244144,-0.039063,0.127565,1.251484
1228,-11.047532,-2.80766,1.464866,0.012573,-0.054322,1.0796059999999998
1232,-7.141222,-5.127031,0.549325,-0.020386,-0.045167,1.018936
1236,-5.981537,-4.8218510000000006,0.976577,0.0023190000000000003,-0.037232,0.97731
1240,-9.277485,-3.6011290000000002,1.09865,0.004517,-0.073976,1.0008700000000001
1244,-17.456321,-5.0049589999999995,2.80766,0.011597,-0.026489999999999996,0.986099
1248,-29.053178000000003,-2.563516,4.8218510000000006,0.019653999999999998,-0.045777,0.99379
1252,-35.461967,-0.48828900000000003,6.042573,-0.050782,-0.054688,0.9904940000000001
1256,-35.461967,-2.136263,3.051804,0.0074459999999999995,-0.072755,1.028214
1260,-45.777066,-12.817578,-10.376135000000001,-0.0542,-0.060548000000000005,1.06508
1264,-59.021896999999996,-10.437171000000001,-13.916228,0.03418,-0.11303900000000001,1.0118559999999999
1268,-179.018845,-11.169604,-24.048219,0.084352,0.075929,1.054582
1272,-622.995346,-6.225681,5.61532,-0.16211199999999998,0.059327,1.246967
1276,-361.943999,-59.75433,57.312886,-1.511131,-1.8178990000000002,1.9999689999999999
1280,-8.667124000000001,-35.400931,78.61448100000001,0.370977,0.139284,0.7528189999999999
1284,52.002747,-15.259022,-30.457008000000002,0.41358100000000003,0.548836,0.702281
1288,140.016785,-52.002747,-62.317845,-0.14868399999999998,0.373419,1.4023649999999999
1292,234.37857599999998,-9.216449,-34.912642,-0.530404,-0.082277,0.901503
1296,260.99031099999996,6.042573,11.413748,-0.23865100000000003,-0.10192999999999999,1.368917
1300,284.30609599999997,47.42504,-9.399557000000001,0.117556,-0.431159,0.8969860000000001
1304,215.39635299999998,57.618067,-26.428626,0.19861099999999998,-0.281254,1.773098
1308,244.632639,69.336996,-50.476844,0.105348,-0.589487,1.9999689999999999
1312,261.23445499999997,78.248264,-61.707485,0.195193,-0.827405,1.839261
1316,202.761883,98.023957,-64.51514499999999,0.189822,-1.066056,1.517479
1320,136.47669199999999,62.073701,-26.428626,0.648569,-2.0000310000000003,0.962173
1324,-49.378195,-17.212177,3.234913,-0.012451,-1.88687,-0.154421
1328,-105.53139499999999,-90.394446,40.772107,-0.208988,0.504158,1.702907
1332,-304.325933,-65.430686,54.44419,1.347677,-0.029786,1.9999689999999999
1336,-171.38933400000002,-20.813306,35.706111,-1.9436330000000002,-1.36965,1.553246
1340,-41.931792,-13.611048,11.413748,-1.003922,-0.12842,0.8576790000000001
1344,-34.058137,-27.283131,-1.586938,-0.026123,-0.02417,1.180926
1348,-16.906996,5.737392,1.7700470000000001,0.058227999999999995,0.01294,1.0512860000000002
1352,-12.146181,12.817578,2.685588,-0.038452999999999994,-0.005982,1.0053860000000001
1356,-5.493248,7.324331,2.563516,-0.04358,-0.029907999999999997,1.021988
1360,-0.6103609999999999,-3.234913,0.793469,-0.046754000000000004,-0.003296,0.965469
1364,-4.760815,-6.042573,1.2207219999999999,-0.024413999999999998,-0.001221,0.9867090000000001
1368,-10.986496,-11.413748,0.9155409999999999,-0.028199000000000002,-0.015381,0.954849
1372,-12.085144999999999,-14.282444,0.793469,-0.017578,-0.032105,1.035172
1376,-8.789197,-7.263294,-0.732433,0.172976,-0.255497,0.5886319999999999
1380,-6.530861,-7.385367,1.464866,0.0008550000000000001,-0.055665,0.972793
1384,-12.32929,-8.850233,0.0,0.033936,-0.055787,0.9754790000000001
1388,-23.254749,-8.728161,0.183108,0.026856,-0.053467999999999995,1.016983
1392,-17.94461,-2.990768,3.356985,0.033936,-0.052490999999999996,1.024308
1396,-36.621653,-6.591897,2.990768,0.034424,-0.024048,0.9752350000000001
1400,-48.096437,-5.3101400000000005,-0.122072,0.0023190000000000003,-0.06286699999999999,0.9897610000000001
1404,-45.288777,-6.958114,-8.789197,0.13196,-0.181399,1.120989
1408,-94.728008,12.451362,-7.263294,-0.001831,0.33557600000000004,0.811902
1412,-398.504616,-28.625925,-7.6905470000000005,-0.024537,0.393072,1.586938
1416,-802.258335,-127.38231499999999,103.334096,-0.132448,-2.0000310000000003,1.9999689999999999
1420,42.298009,19.409476,34.058137,-0.195926,0.910903,1.999542
1424,17.761501000000003,16.357671,29.419394,0.43799499999999997,0.41272600000000004,0.366827
1428,116.151675,-28.259709,-33.997101,0.12854200000000002,0.44214499999999995,0.979751
1432,210.45243,-12.451362,-53.589684999999996,-0.20325,0.182498,1.42678
1436,287.3579,7.141222,-25.696193,-0.278935,-0.14538800000000002,1.181781
1440,288.273442,15.503166,-19.409476,0.11718900000000002,-0.292363,0.743542
1444,217.288472,45.227740999999995,-41.504540000000006,0.038941,-0.188113,1.549584
1448,265.99527,78.248264,-30.518044,-0.023438,-0.553109,1.9999689999999999
1452,271.854734,71.046006,-46.448463000000004,0.585458,-0.8299690000000001,1.8492709999999999
1456,220.828565,79.59105799999999,-74.280919,0.178958,-1.345968,1.346334
1460,122.072175,43.396658,-22.46128,0.6687109999999999,-2.0000310000000003,0.56202
1464,-34.973678,2.136263,0.549325,-0.467659,-2.0000310000000003,0.006836
1468,-136.903944,-44.068055,48.340581,-0.805554,1.2133969999999998,0.778454
1472,-261.295491,-65.796902,42.298009,1.777249,-0.190921,1.9999689999999999
1476,-29.846646999999997,-99.000534,4.394598,1.179583,-0.08069,1.9999689999999999
1480,-32.410163,-32.959487,-4.272526,0.452399,-0.018799,1.293355
1484,-18.432898,-15.259022,-0.122072,0.06713999999999999,0.042237000000000004,1.097551
1488,-13.794156,6.225681,4.455634,0.035157,-0.009155,1.022721
1492,-11.841001,3.6011290000000002,3.479057,-0.0074459999999999995,0.043336,1.0129549999999998
1496,-9.216449,1.159686,2.563516,0.006836,-0.01355,1.010513
1500,-3.418021,0.732433,1.586938,0.004639,-0.03125,1.00148
1504,-10.131991000000001,-7.385367,0.0,-0.002564,-0.01294,0.977554
1508,-11.596857,-7.873655,-0.854505,0.028931000000000002,-0.031373000000000005,1.001236
1512,-13.305867000000001,-8.1178,-0.9155409999999999,0.020752,-0.036622,0.996719
1516,-13.183795000000002,-1.525902,0.854505,0.044312,-0.053101,1.038956
1520,-15.320058,0.671397,1.342794,0.026733999999999997,-0.045655,0.9741360000000001
1524,-21.728847000000002,-1.525902,0.671397,0.027710000000000002,-0.034302,0.961563
1528,-30.457008000000002,2.197299,4.577707,0.055299,-0.077638,1.105608
1532,-33.020523,5.859464,6.103609,-0.020142,-0.080568,1.006241
1536,-32.288090000000004,0.6103609999999999,-1.647974,-0.010620000000000001,-0.10803399999999999,1.036637
1540,-23.987182,0.9155409999999999,-3.6011290000000002,0.040162,-0.242069,1.068864
1544,-70.55771700000001,7.629511,-7.751583,0.0008550000000000001,0.179324,0.788708
1548,-311.589227,-25.26894,-34.607462,-0.064454,0.53138,1.046525
1552,-764.90425,-81.23903299999999,40.283818,-0.204227,-0.524788,1.874052
1556,96.864271,23.315785,-31.738766,-0.411627,1.152361,1.5323719999999998
1560,-2.014191,-46.875715,22.1561,0.287846,0.501106,0.541756
1564,84.596017,-18.127717999999998,-31.555657,-0.11523599999999999,0.409308,1.00441
1568,181.887541,-21.911955,-18.310826000000002,-0.295171,0.211429,1.218524
1572,240.238041,20.263981,4.333562000000001,-0.153079,-0.092653,0.991592
1576,261.84481600000004,19.043259,7.568475,0.11950899999999999,-0.190921,1.2992139999999999
1580,265.568017,35.278859000000004,-10.376135000000001,0.127199,-0.479988,1.324117
1584,210.635538,50.2327,-26.428626,0.124025,-0.526131,1.9999689999999999
1588,247.623407,52.857252,-65.857939,0.173342,-0.6890970000000001,1.9999689999999999
1592,224.18555,75.562676,-80.445563,0.175174,-0.766003,1.534081
1596,182.61997399999998,82.887007,-65.857939,0.021363,-1.319356,1.165545
1600,96.681163,98.939498,-8.1178,0.167849,-2.0000310000000003,0.458137
1604,-75.19646,-51.63653,83.863584,0.268925,-1.64065,-0.810437
1608,-137.75845,-108.827344,33.813992999999996,-0.113527,1.104387,0.08984500000000001
1612,-239.566644,-41.260395,22.705425,1.138323,-0.337407,1.9999689999999999
1616,-41.199359,-75.806821,42.969406,-0.387701,-0.26392,0.9002819999999999
1620,-43.945983,-49.256122999999995,10.376135000000001,-0.278202,0.025879000000000003,1.023331
1624,-28.137635999999997,-26.916915000000003,-3.845274,0.300908,-0.001831,1.169085
1628,-17.822538,4.638743,2.563516,0.031617,-0.008789,1.042741
1632,-11.963073,1.7700470000000001,1.2207219999999999,-0.011353,-0.0008550000000000001,0.988052
1636,-13.427939000000002,-0.671397,0.183108,0.030274000000000002,-0.031495,1.019303
1640,-12.817578,1.09865,2.197299,0.017823,-0.0043950000000000005,0.979751
1644,-15.747310999999998,1.953155,1.70901,0.001221,-0.028564999999999997,0.997208
1648,-14.221407999999998,4.21149,2.075227,-0.0070799999999999995,-0.048585,1.0188139999999999
1652,-8.850233,0.976577,1.342794,0.0,-0.052125,1.021012
1656,-10.131991000000001,2.136263,1.037613,0.01001,-0.051514,1.003067
1660,-10.254063,2.80766,2.80766,-0.00061,-0.067262,1.013443
1664,-11.352712,-2.685588,0.671397,0.008911,-0.056275,1.000381
1668,-16.418708,-4.272526,-0.122072,0.009522,-0.045899,0.9758450000000001
1672,-23.010604999999998,-0.48828900000000003,4.089418,0.000732,-0.10815599999999999,1.026505
1676,-31.738766,-5.981537,1.464866,-0.035279000000000005,-0.065187,0.95668
1680,-41.504540000000006,-6.2867169999999994,-4.455634,-0.005249,-0.11230599999999999,0.9902489999999999
1684,-43.21355,-5.188067,-3.1128400000000003,0.06286699999999999,-0.216678,1.0622719999999999
1688,-57.679103000000005,1.953155,-10.009917999999999,-0.003662,0.026001,0.932509
1692,-183.047227,-5.981537,-31.433584999999997,0.11609100000000001,0.409308,1.169818
1696,-661.570153,-49.317159000000004,31.311513,0.064088,-0.290898,1.309712
1700,90.089265,-126.71091799999999,-26.428626,-0.086671,0.7215689999999999,1.9999689999999999
1704,114.747845,38.269627,-36.865797,-0.204715,0.21814299999999998,0.436408
1708,93.934539,-17.578393,-8.42298,-0.124636,0.360113,0.62269
1712,178.591592,0.0,-22.095064,-0.017456,0.276738,1.241718
1716,251.895933,38.879988,-19.958801,-0.180545,-0.091066,1.1393
1720,293.52254500000004,32.837415,0.244144,0.085939,-0.424567,0.922866
1724,195.803769,41.870756,-12.695506,0.19555999999999998,-0.375128,1.3458459999999999
1728,245.243,54.871443000000006,-51.148241,0.167605,-0.645518,1.841825
1732,192.324712,75.562676,-38.941024,-0.158816,-0.9143209999999999,1.830716
1736,168.276493,135.19493400000002,-39.368276,0.171756,-0.860243,1.337667
1740,192.385748,62.56199,-18.493935,0.265873,-1.174456,1.565332
1744,123.10978899999999,39.429313,10.742351,0.243168,-2.0000310000000003,0.170657
1748,-166.567483,-106.32486499999999,57.129778,0.391241,-1.434348,-1.451804
1752,-238.52902999999998,-112.855726,38.269627,-0.269291,0.07128999999999999,-0.042237000000000004
1756,-158.571756,-10.376135000000001,4.577707,0.70753,-0.312871,1.9999689999999999
1760,-53.223468000000004,-39.124132,28.0766,0.7639279999999999,0.245243,1.636744
1764,-26.67277,-28.503853000000003,3.234913,0.273075,0.15613,1.209003
1768,-28.381781,-17.273213000000002,-1.8310830000000002,0.131838,-0.026856,1.184344
1772,-17.639429,1.037613,2.319371,-0.018189,0.009033,0.9969629999999999
1776,-15.197985999999998,-2.929732,2.685588,-0.042847,0.0,0.980728
1780,-12.817578,-9.704738,1.40383,-0.01709,-0.02356,0.999283
1784,-20.325017000000003,-22.034028,-0.427253,-0.001709,-0.060913999999999996,0.966934
1788,-18.616007,-15.197985999999998,0.0,0.025391,-0.022583000000000002,1.002457
1792,-21.179522,-9.52163,1.2207219999999999,0.018067,-0.053712,1.026139
1796,-20.752270000000003,-10.193027,-1.09865,0.041749,-0.08569500000000001,1.035782
1800,-14.892805,-6.103609,-0.244144,0.040284,-0.099733,1.04921
1804,-11.902037,-0.793469,1.037613,0.045655,-0.060913999999999996,0.979751
1808,-24.414435,0.244144,0.793469,0.03772,-0.095705,1.006485
1812,-22.034028,0.732433,1.09865,0.037354000000000005,-0.141604,1.0207680000000001
1816,-11.841001,-1.70901,-0.183108,0.027587999999999998,-0.157717,1.015274
1820,-10.131991000000001,-6.103609,-2.319371,0.05127,-0.135134,1.014054
1824,-14.831769,-0.793469,0.793469,0.033448,-0.134035,1.008682
1828,-23.071641,6.775005999999999,5.127031,0.051514,-0.166751,1.014054
1832,-16.296635000000002,7.751583,5.371176,0.037964,-0.194705,1.018082
1836,-8.911269,7.2022580000000005,1.647974,0.045167,-0.197269,1.023819
1840,-5.371176,5.981537,2.014191,0.019532,-0.20556999999999997,1.01442
1844,1.40383,8.056764,0.366217,0.013793999999999999,-0.212894,1.031144
1848,-4.8218510000000006,6.042573,-3.173877,-0.013793999999999999,-0.143557,0.918227
1852,-40.527962,-9.216449,-11.352712,0.033936,-0.19677999999999998,0.996231
1856,-54.016938,-6.897078,-10.620279,0.036378,-0.118898,0.9754790000000001
1860,-79.468986,2.624552,-9.82681,0.007201999999999999,-0.249516,0.995132
1864,-117.73861299999999,6.042573,-14.465553,0.050660000000000004,-0.21509099999999998,1.035416
1868,-145.693141,25.391012,-8.484016,-0.26392,0.313603,1.352071
1872,90.394446,-28.137635999999997,17.639429,-0.254643,0.284916,1.018326
1876,113.588159,-4.21149,8.850233,0.040284,0.146975,0.945693
1880,153.627832,4.577707,-7.141222,-0.12487999999999999,0.007691,0.714
1884,147.158007,12.939651,4.699779,-0.119387,-0.005737,1.02504
1888,158.14450300000001,29.236286,6.469825,-0.045411,-0.153079,1.265888
1892,137.94155800000001,49.134051,28.015564,-0.040772,-0.424567,0.831312
1896,-246.585794,-173.708705,39.673457,1.4431370000000001,-2.0000310000000003,0.9902489999999999
1900,218.75333799999999,18.127717999999998,-170.778973,0.687999,1.1899600000000001,-0.775036
1904,68.543526,-2.2583349999999998,-6.042573,0.191531,0.077882,0.9637600000000001
1908,-31.250477000000004,-12.390326,-1.464866,0.086793,-0.093385,1.1331959999999999
1912,-5.0049589999999995,-0.30518,0.30518,-0.022216999999999997,0.039429,0.9076069999999999
1916,-2.990768,1.037613,0.30518,0.006836,-0.005493,0.9741360000000001
1920,-5.432212,-0.793469,-0.244144,-0.001709,-0.025879000000000003,0.988418
1924,-13.733120000000001,-5.0049589999999995,-0.976577,0.020752,-0.032105,1.001358
1928,-5.127031,-2.014191,-0.732433,0.032349,-0.066285,1.061784
1932,-3.295949,-1.342794,-0.30518,0.009888,-0.026733999999999997,0.977798
1936,-3.723201,-0.427253,0.427253,0.012573,-0.040162,1.005509
1940,0.427253,-1.40383,-0.793469,0.017212,-0.037232,0.991592
1944,-2.563516,-1.40383,-0.366217,0.022583000000000002,-0.042602999999999995,1.0053860000000001
1948,-1.464866,0.48828900000000003,-0.183108,0.019776,-0.048463,1.0048979999999998
1952,0.366217,0.244144,-0.549325,0.017456,-0.046265,1.001358
1956,-1.2207219999999999,-0.671397,-0.427253,0.022705,-0.039673,0.993179
1960,-1.342794,-0.427253,-0.48828900000000003,0.023804,-0.048463,1.01149
1964,0.976577,0.9155409999999999,-0.183108,0.023194,-0.044556,1.005631
1968,0.366217,0.366217,-0.244144,0.016602000000000002,-0.041016000000000004,0.994034
1972,-1.09865,-0.976577,-0.244144,0.022216999999999997,-0.041993,0.9987950000000001
1976,-0.793469,0.122072,0.0,0.022583000000000002,-0.050416,1.0156399999999999
1980,1.159686,0.671397,0.0,0.013916,-0.041382,0.985489
1984,-2.014191,-0.48828900000000003,-0.183108,0.022338999999999998,-0.044556,1.00441
1988,-1.037613,0.366217,0.0,0.016236,-0.050294,1.0089270000000001
1992,1.342794,1.09865,-0.122072,0.016114,-0.043336,0.9946440000000001
1996,-0.732433,0.366217,0.122072,0.019898,-0.051026,0.997818
2000,-0.6103609999999999,0.6103609999999999,0.30518,0.026001,-0.045288999999999996,1.010758
2004,1.037613,1.09865,-0.122072,0.019165,-0.049073,1.002945
2008,0.244144,0.48828900000000003,0.0,0.014282,-0.04419,0.999649
2012,0.122072,0.48828900000000003,0.0,0.015137000000000001,-0.042969,1.001846
2016,0.9155409999999999,0.244144,-0.183108,0.014038,-0.0448,1.006729
2020,0.427253,0.122072,0.0,0.016846,-0.040527999999999995,0.994766
2024,-0.30518,-0.183108,0.0,0.019898,-0.044677999999999995,1.0037989999999999
2028,0.183108,-0.122072,-0.122072,0.013916,-0.042847,1.005875
2032,1.342794,0.122072,-0.244144,0.016724,-0.037232,0.993668
2036,-0.30518,0.244144,0.0,0.01294,-0.047242,1.004532
2040,-0.427253,-0.061036,-0.366217,0.014159999999999999,-0.051881,1.006241
2044,4.089418,0.183108,-0.671397,0.018433,-0.04773,1.007095
2048,1.8310830000000002,-0.549325,-0.366217,0.013916,-0.022216999999999997,0.9907379999999999
2052,0.366217,-0.793469,-0.48828900000000003,0.015137000000000001,-0.041016000000000004,1.0047760000000001
2056,1.281758,-0.48828900000000003,-0.549325,0.01648,-0.040284,1.010513
2060,2.50248,0.0,-0.732433,0.02002,-0.036988,1.0091709999999998
2064,4.882887,0.9155409999999999,-0.732433,0.024781,-0.040284,1.0213780000000001
2068,10.193027,2.563516,-0.732433,0.019776,-0.036255,1.012345
2072,-1.586938,-2.197299,-0.854505,0.014527000000000002,-0.032715,1.010391
2076,2.868696,0.9155409999999999,-0.427253,0.025757,-0.041382,1.028458
2080,5.9205,4.699779,-0.244144,0.025757,-0.027587999999999998,1.0236969999999999
2084,6.71397,6.469825,0.9155409999999999,-0.0063479999999999995,-0.008911,0.9826809999999999
2088,8.606088,2.868696,0.183108,-0.0070799999999999995,-0.021118,1.009903
2092,7.507439,0.183108,-0.30518,-0.015869,0.018067,0.960464
2096,0.183108,-2.868696,0.183108,0.012451,-0.031861,1.029313
2100,5.188067,-2.380407,0.0,-0.007201999999999999,0.013793999999999999,0.9758450000000001
2104,-10.070953999999999,-4.5166699999999995,-0.6103609999999999,0.00415,0.039063,0.943008
2108,2.868696,-1.953155,0.183108,-0.0051270000000000005,0.017456,0.968276
2112,1.037613,-0.793469,-0.366217,0.046143,0.0074459999999999995,0.9984280000000001
2116,-3.234913,0.48828900000000003,0.0,0.0008550000000000001,0.0031739999999999997,0.982193
2120,-3.173877,2.136263,-0.183108,0.015381,-0.025879000000000003,1.036759
2124,-6.225681,0.0,0.0,-0.054932,0.036866,0.879408
2128,-15.259022,-6.591897,-0.976577,0.046508999999999995,-0.047608,1.054582
2132,-2.380407,-0.183108,0.183108,-0.009644,-0.017212,0.98793
2136,0.0,-4.21149,-0.6103609999999999,0.003296,-0.019532,0.985367
2140,0.9155409999999999,-0.122072,0.549325,0.016846,-0.043458,1.040543
2144,10.559242999999999,-0.122072,-0.30518,0.038452999999999994,-0.035889,1.034562
2148,0.6103609999999999,-0.854505,-0.122072,0.032958999999999995,0.010254000000000001,0.9713280000000001
2152,0.793469,1.342794,-0.122072,0.005982,-0.0015869999999999999,0.9869540000000001
2156,1.2207219999999999,1.525902,-0.30518,0.019287000000000002,-0.010864,1.0089270000000001
2160,2.50248,2.136263,0.0,0.020142,-0.014527000000000002,1.0121
2164,8.728161,2.929732,0.30518,0.007812999999999999,-0.018921,1.01442
2168,11.291675999999999,1.8921189999999999,0.671397,0.003906,0.001831,0.975601
2172,0.732433,-1.525902,-0.366217,0.016846,0.019043,0.984268
2176,-1.159686,0.366217,-0.183108,0.019898,0.000488,0.996841
2180,-0.549325,-1.8310830000000002,-0.549325,0.01355,0.007935,0.978042
2184,-9.582666,-0.366217,-0.671397,0.008667,-0.0058590000000000005,0.999893
2188,-3.295949,1.953155,0.061036,0.008667,-0.010742,1.002701
2192,-0.6103609999999999,0.48828900000000003,-0.427253,0.010131999999999999,0.007935,0.960342
2196,-8.056764,-0.427253,0.122072,0.0074459999999999995,-0.016724,1.0118559999999999
2200,-2.929732,-0.6103609999999999,-0.122072,0.008911,-0.016968,1.006485
2204,-0.122072,-1.342794,-0.122072,0.008301000000000001,-0.0015869999999999999,0.9901270000000001
2208,-4.150454,-1.40383,-0.183108,0.008911,-0.032471,1.008682
2212,0.0,0.0,-0.244144,0.014038,-0.026612,1.008194
2216,0.793469,-0.244144,0.0,0.010376,-0.014771000000000001,0.9945219999999999
2220,-0.793469,-1.159686,-0.244144,0.043336,-0.07067999999999999,1.028824
2224,-2.319371,-0.244144,0.0,0.019898,-0.037110000000000004,1.013321
2228,0.122072,-0.549325,-0.30518,0.023072,-0.023804,1.004532
2232,-3.967346,-0.48828900000000003,0.061036,0.008423,-0.029419,1.023941
2236,0.6103609999999999,-0.30518,-0.30518,0.014527000000000002,-0.016358,1.021256
2240,0.6103609999999999,-0.183108,-0.366217,0.011475,-0.018921,1.016129
2244,2.014191,-0.244144,-0.244144,0.017578,-0.019165,1.001602
2248,-1.2207219999999999,-0.061036,-1.037613,0.0094,-0.022338999999999998,1.003922
2252,0.061036,0.122072,-0.854505,0.016358,-0.014527000000000002,1.006241
2256,0.061036,-0.6103609999999999,-0.9155409999999999,0.01648,-0.018799,1.001236
2260,-0.183108,-0.30518,-0.976577,0.018555000000000002,-0.017456,1.007218
2264,0.976577,0.061036,-0.6103609999999999,0.024413999999999998,-0.018433,1.005997
2268,0.793469,-0.366217,-0.6103609999999999,0.018311,-0.018311,0.9969629999999999
2272,0.976577,0.183108,-1.159686,0.015503,-0.013306,1.0008700000000001
2276,0.061036,0.0,-1.70901,0.006958,-0.02417,0.991714
2280,0.427253,0.0,-0.30518,0.018311,-0.021363,1.001724
2284,-0.48828900000000003,0.061036,-0.427253,0.020752,-0.021851,1.010025
2288,2.2583349999999998,0.366217,-0.793469,0.011597,-0.014159999999999999,0.995743
2292,-0.061036,0.366217,-2.563516,0.008179,-0.018311,1.002823
2296,-0.183108,-0.061036,-0.48828900000000003,0.011597,-0.018555000000000002,0.996597
