Packet number,Gyroscope X (deg/s),Gyroscope Y (deg/s),Gyroscope Z (deg/s),Accelerometer X (g),Accelerometer Y (g),Accelerometer Z (g)
0,0.427253,0.0,-0.183108,0.003906,-0.001343,0.997086
4,-0.6103609999999999,-0.366217,-0.122072,0.004883,-0.01001,0.995865
8,-0.244144,-0.061036,0.0,0.004273,-0.0037840000000000005,0.9973299999999999
12,0.0,0.0,-0.122072,0.00061,-0.001221,0.995865
16,0.671397,-0.6103609999999999,-0.183108,0.027222000000000003,0.0037840000000000005,1.002457
20,0.0,0.122072,-0.183108,0.013306,-0.005493,0.9941559999999999
24,0.366217,0.122072,-0.244144,0.005982,-0.006592,1.0011139999999998
28,0.122072,0.30518,0.0,0.0,-0.010254000000000001,1.006729
32,0.427253,0.30518,0.0,-0.000122,-0.008057,0.996353
36,-0.976577,-0.061036,-0.122072,0.003662,-0.01355,1.010636
40,0.30518,0.48828900000000003,0.061036,0.006104,-0.006958,1.005997
44,0.732433,0.366217,0.0,0.002441,-0.000977,0.991836
48,-0.30518,-0.061036,0.0,0.0023190000000000003,-0.005737,1.00502
52,0.549325,0.671397,0.122072,-0.001465,0.002075,1.006119
56,0.48828900000000003,0.122072,0.0,-0.002075,-0.004639,1.002335
60,1.281758,-0.427253,0.061036,-0.003906,-0.006104,0.987808
64,0.9155409999999999,-0.976577,-0.122072,0.002441,-0.008911,1.013321
68,5.7984279999999995,0.9155409999999999,0.183108,0.0035399999999999997,0.000488,0.997818
72,4.577707,0.183108,0.061036,0.005982,0.006226,0.9868309999999999
76,3.6621650000000003,0.793469,0.122072,-0.0021969999999999997,-0.000732,1.006485
80,3.356985,0.671397,0.183108,0.000366,0.008301000000000001,0.997452
84,2.50248,0.061036,0.061036,-0.004883,0.002075,1.014176
88,2.624552,-0.549325,-0.30518,0.000977,0.020508000000000002,0.9865870000000001
92,0.732433,-0.549325,-0.122072,0.002564,0.010742,0.9904940000000001
96,2.197299,0.671397,-0.244144,-0.002075,0.016236,0.9952540000000001
100,0.854505,0.549325,0.183108,-0.004883,0.012206999999999999,0.996109
104,0.9155409999999999,-0.671397,0.671397,-0.008911,0.014282,0.998184
108,1.953155,-1.464866,0.9155409999999999,0.003662,0.013916,1.005997
112,2.014191,-1.8921189999999999,0.48828900000000003,-0.011597,0.021851,0.9896389999999999
116,0.6103609999999999,-1.586938,0.183108,0.008057,0.004028,1.0129549999999998
120,1.7700470000000001,-0.366217,0.183108,-0.006104,0.03418,0.964614
124,0.061036,-0.366217,-0.427253,0.011475,0.027587999999999998,0.9987950000000001
128,-2.868696,0.427253,0.0,-0.0015869999999999999,0.020386,0.994766
132,-1.586938,0.0,-0.244144,0.014893,0.006104,1.01735
136,1.159686,1.70901,0.0,-0.004883,0.029297000000000004,0.9779200000000001
140,-0.732433,0.30518,0.061036,0.0,0.015869,0.9969629999999999
144,-0.061036,0.122072,0.0,-0.008789,0.025879000000000003,0.980606
148,-5.249104,-2.563516,-0.30518,-0.007691,0.028808999999999998,0.95375
152,-4.760815,-2.4414439999999997,-0.244144,0.007691,0.015991,0.9986719999999999
156,-9.338521,-2.2583349999999998,0.061036,-0.002564,0.017578,0.965957
160,-9.948882000000001,-0.976577,1.40383,0.015381,-0.008911,1.0057530000000001
164,-7.263294,0.732433,2.014191,0.0037840000000000005,-0.022216999999999997,0.969741
168,-12.268253999999999,-2.136263,1.70901,-0.017945,0.017823,0.972305
172,-20.813306,-7.507439,1.525902,0.016236,-0.006592,0.98793
176,-33.325703999999995,-5.676356,-0.854505,0.035035000000000004,0.080812,0.857191
180,-54.383154000000005,-3.295949,-2.868696,0.026612,-0.024291999999999998,0.996109
184,-72.877089,-5.432212,-7.934691,0.026246,-0.163333,1.0396889999999999
188,-119.020371,-1.8921189999999999,-2.075227,0.07422000000000001,0.06994700000000001,0.961318
192,-271.427482,-7.507439,-11.596857,0.223148,0.106813,1.460716
196,-565.743496,-28.442816999999998,2.136263,0.000732,-0.350225,1.151263
200,65.247578,37.90341,-32.227053999999995,-0.244022,0.558602,1.6662849999999998
204,3.967346,-49.256122999999995,-6.897078,0.27686,0.358648,0.5195390000000001
208,68.604562,8.300908,-41.931792,-0.284306,0.373541,1.162493
212,166.567483,2.868696,-4.21149,-0.257816,0.190555,1.003555
216,200.808728,20.691233999999998,4.943923000000001,-0.042237000000000004,0.06640700000000001,0.8360719999999999
220,221.92721400000002,45.166705,2.075227,0.058838999999999995,0.046021,1.515526
224,261.905852,52.368963,-18.677042999999998,0.429816,-0.250248,1.487816
228,245.85336099999998,31.799802000000003,-44.800488,0.155642,-0.38416100000000003,1.532738
232,229.007401,56.153201,-41.382467,-0.184695,-0.466316,1.79971
236,196.841382,73.731594,-10.803388,-0.018311,-0.660899,1.506615
240,159.67040500000002,59.266041,6.836042,0.334478,-1.319356,1.297017
244,49.988556,58.04531899999999,-47.669184,0.650278,-2.0000310000000003,0.033082
248,-152.651255,-147.280079,21.972992,0.573495,-0.9748680000000001,-0.033326
252,-195.193408,-85.389487,23.010604999999998,-0.6578470000000001,0.20630199999999999,0.448981
256,-130.55619099999998,-31.860838,20.813306,1.0477450000000001,-0.02417,1.9999689999999999
260,-86.793317,8.239872,23.682002,-0.6058439999999999,-0.0028079999999999997,1.3913790000000001
264,-33.752956,-3.90631,12.756542,-0.292485,-0.06579700000000001,1.052262
268,-22.46128,-15.381094000000001,9.155413000000001,-0.194705,0.073732,0.901503
272,-29.419394,-20.752270000000003,6.591897,0.018433,0.055421000000000005,1.057267
276,-27.100022999999997,-12.024109,0.671397,-0.032837,0.062989,0.919326
280,-27.771420000000003,-6.2867169999999994,0.0,-0.004639,-0.008545,1.119524
284,-14.892805,-2.4414439999999997,0.732433,-0.01355,-0.066651,1.029923
288,-9.948882000000001,-3.051804,0.732433,-0.009766,-0.000488,0.998917
292,-11.841001,-2.50248,1.70901,0.021851,-0.024781,0.944961
296,-6.2867169999999994,0.122072,1.037613,-0.003906,-0.033326,1.016983
300,-7.01915,-2.929732,0.671397,-0.020752,-0.024413999999999998,0.9781639999999999
304,-7.507439,-6.836042,0.366217,-0.014038,-0.031617,0.9790190000000001
308,-15.991454999999998,-7.751583,0.793469,0.006958,-0.020508000000000002,0.984878
312,-19.836728,-5.61532,2.2583349999999998,-0.012573,-0.053101,1.012833
316,-14.160372,-3.6011290000000002,3.234913,-0.001221,-0.05651900000000001,0.9826809999999999
320,-35.584039000000004,-4.760815,2.197299,-0.060303999999999996,-0.015259,0.970108
324,-52.613108,-3.967346,1.09865,0.043458,-0.121584,1.013565
328,-57.434957999999995,-9.399557000000001,-14.892805,0.022095,-0.261479,1.0095370000000001
332,-65.857939,0.122072,-13.305867000000001,-0.025635,0.14905,0.873426
336,-214.297704,-29.968719,-26.428626,-0.145754,0.722789,1.0717940000000001
340,-738.231479,-121.095598,16.662851999999997,-0.18115499999999998,-0.187137,0.9194479999999999
344,266.971847,9.155413000000001,8.911269,-0.38172,0.89723,1.36733
348,57.923246999999996,-51.392386,61.890593,0.352667,0.6307470000000001,0.135012
352,104.921035,-5.249104,-24.780652,0.02295,0.431403,1.1856870000000002
356,203.677424,-5.0049589999999995,-34.485389,-0.303838,0.116335,1.045792
360,244.937819,18.188754,-1.7700470000000001,-0.303105,-0.119387,1.163592
364,280.76600299999996,34.668498,-4.638743,0.117067,-0.21313800000000002,1.202045
368,222.110323,69.398032,-22.339208,0.15905999999999998,-0.403937,1.058366
372,236.942092,50.049592,-25.391012,0.256352,-0.40222800000000003,1.9999689999999999
376,273.25856400000004,46.143282,-41.138323,0.088136,-0.7149770000000001,1.784573
380,228.580148,67.750057,-57.190814,0.203983,-0.8216680000000001,1.5355459999999999
384,153.87197700000002,79.65209399999999,-61.097124,0.23022800000000002,-1.534325,1.056291
388,41.382467,54.016938,-11.841001,0.262577,-2.0000310000000003,-0.587778
392,-205.75265100000001,-152.16296599999998,58.228428,0.312749,-0.9045549999999999,0.7325550000000001
396,-228.27496800000003,-94.78904399999999,47.058824,0.655406,-0.155642,0.18457300000000001
400,-126.77195400000001,32.410163,-9.704738,0.375494,0.029053,1.6692150000000001
404,-48.584726,-38.025483,35.584039000000004,0.093751,0.278935,1.199725
408,-26.245518,-58.899825,15.564201999999998,0.070924,0.046508999999999995,1.153094
412,-24.597542999999998,-26.184482,9.277485,0.088502,0.079713,1.101213
416,-25.818265,-8.484016,2.929732,0.004883,0.034546,1.01442
420,-26.123445,-4.333562000000001,2.685588,-0.014893,-0.023926,1.078141
424,-15.259022,-1.7700470000000001,2.2583349999999998,-0.049073,0.000122,0.993301
428,-11.963073,-4.5166699999999995,1.8921189999999999,-0.009644,-0.05774,0.9078510000000001
432,-19.714656,-4.882887,2.685588,-0.042969,-0.016236,0.98146
436,-19.836728,-10.803388,1.70901,-0.018311,0.000366,0.985489
440,-20.080873,-4.943923000000001,0.793469,-0.014038,-0.053834,1.030411
444,-13.427939000000002,-1.525902,1.70901,-0.00647,-0.064088,1.034684
448,-13.977264000000002,-1.953155,3.051804,-0.028808999999999998,-0.029053,0.9747459999999999
452,-26.123445,0.48828900000000003,4.028382,-0.001099,-0.064332,1.000259
456,-36.560615999999996,-6.103609,3.1128400000000003,-0.029175,-0.08923500000000001,1.021988
460,-35.461967,-4.455634,3.723201,0.0058590000000000005,-0.10351700000000001,0.984634
464,-40.039673,-4.638743,4.028382,-0.013306,-0.125612,1.076066
468,-59.63225799999999,-14.770732999999998,-14.892805,-0.068727,-0.148318,1.0204010000000001
472,-51.514458000000005,-8.606088,-10.986496,-0.012695999999999999,-0.160403,0.9896389999999999
476,-132.387274,-6.469825,-2.563516,-0.095338,0.22693200000000002,0.81471
480,-673.960479,23.132676999999997,-3.6011290000000002,-0.13135,0.180179,1.183734
484,-185.793851,-71.473259,-30.640116,-1.137835,-2.0000310000000003,1.9999689999999999
488,44.861523999999996,-73.79263,77.759976,0.074464,0.225345,0.705699
492,84.657053,-26.245518,-4.21149,0.177981,0.624033,0.8768440000000001
496,186.648356,-40.344854,-39.368276,-0.165042,0.4159,1.4427709999999998
500,287.541009,-1.2207219999999999,-32.166018,-0.20691199999999998,-0.056886,0.783825
504,279.423209,-1.09865,-37.659265999999995,0.020263999999999997,-0.135378,0.9719389999999999
508,259.830625,49.805446999999994,-41.504540000000006,-0.135134,-0.368292,1.358541
512,238.83421099999998,101.747158,-8.056764,-0.330205,-0.6160979999999999,1.9999689999999999
516,304.325933,84.412909,14.404517000000002,0.111452,-0.809094,1.9869689999999998
520,266.788739,86.12191999999999,-4.028382,0.37903400000000004,-0.820081,1.7856720000000001
524,176.638437,99.24467800000001,-28.442816999999998,0.24756199999999998,-2.0000310000000003,1.01149
528,47.364004,139.650568,-43.030442,0.150637,-2.0000310000000003,-0.725353
532,-169.37514299999998,-171.816587,39.124132,-0.121218,-0.397345,1.9999689999999999
536,-264.46936800000003,-92.408637,83.98565699999999,1.014176,-0.05005,0.9871979999999999
540,-142.64133700000002,18.860151000000002,-8.300908,-0.554086,-0.028199000000000002,1.53225
544,-94.30075500000001,-112.24536499999999,29.114214,1.9131150000000001,0.060426,1.9999689999999999
548,-49.073014,-26.794842,-0.976577,0.131716,0.027222000000000003,1.069108
552,-37.109941,-25.452049,2.136263,-0.067384,-0.023681999999999998,1.081926
556,-18.799115,-13.122759,1.159686,0.082399,-0.056031,1.027726
560,-17.212177,-5.9205,1.647974,0.029907999999999997,-0.054565999999999996,1.016617
564,-16.174563,-3.784237,0.671397,0.060548000000000005,-0.034058,0.983658
568,-17.94461,-5.3101400000000005,0.183108,0.015991,-0.07055800000000001,1.022477
572,-17.639429,-8.056764,-1.159686,0.045045,-0.08447400000000001,1.0278479999999999
576,-8.667124000000001,-1.464866,0.0,0.059571000000000006,-0.0907,0.997818
580,-10.681315,-1.2207219999999999,-0.9155409999999999,0.043946,-0.07837000000000001,0.983902
584,-15.564201999999998,-1.09865,-1.09865,0.046508999999999995,-0.072145,0.974258
588,-26.062409,-0.427253,-1.342794,0.050294,-0.089479,0.988296
592,-34.302281,5.737392,6.591897,0.074952,-0.147829,0.98854
596,-25.818265,5.493248,4.150454,0.025147,-0.099977,0.98793
600,-22.46128,-7.324331,-17.395285,-0.022705,-0.366217,1.131609
604,-56.397344999999994,17.029068,-0.793469,0.100221,-0.007935,0.989273
608,-201.602197,-5.859464,7.385367,-0.419684,-0.216678,0.6892199999999999
612,-650.8278019999999,-199.22179,47.241932,0.156619,-0.194217,0.934951
616,-509.34615099999996,5.981537,95.033188,-0.45178900000000005,-0.813611,1.9999689999999999
620,21.972992,-38.147555,-1.464866,-0.22180500000000003,0.28833400000000003,1.8661169999999998
624,136.842908,27.161059,13.611048,-0.091432,-0.027832,0.220829
628,166.9337,-5.127031,-9.155413000000001,0.349615,0.296269,1.1074389999999998
632,240.115969,37.29305,-51.697565999999995,0.076173,-0.014527000000000002,1.255634
636,274.601358,52.73518000000001,-31.006332,0.19409500000000002,-0.21008600000000002,1.053117
640,266.361486,51.63653,-66.83451600000001,0.547982,-0.297978,1.509911
644,268.619821,68.055238,-96.55909100000001,0.271733,-0.663828,1.670436
648,212.03936800000002,69.947356,-84.107729,0.195682,-0.611093,1.7627220000000001
652,229.06843700000002,86.671244,-73.487449,0.10779000000000001,-0.76466,1.6556650000000002
656,164.919509,91.615167,-26.123445,0.12487999999999999,-1.215717,1.326436
660,102.296483,129.762722,-36.377508,0.46179899999999996,-2.0000310000000003,0.34729499999999996
664,-137.819486,-112.672618,57.434957999999995,0.21765500000000002,-1.9194630000000001,-1.32253
668,-201.785306,-94.17868299999999,53.894865,-0.25806100000000004,0.617319,1.1488209999999999
672,-222.354467,-36.377508,20.691233999999998,1.473899,-0.10852200000000001,1.9999689999999999
676,-52.368963,-85.816739,42.420081,-0.542,-0.252079,0.674327
680,-48.157472999999996,-56.275273,10.193027,-0.149172,-0.002075,1.055192
684,-18.371862,-27.466239,-4.8218510000000006,0.130129,0.047608,1.048234
688,-19.958801,-6.408789,2.136263,0.035523,-0.03418,1.079118
692,-8.667124000000001,-3.234913,1.8310830000000002,0.030518,-0.017578,0.982559
696,-11.657893,-4.333562000000001,2.075227,0.046387,-0.029297000000000004,1.037613
700,-5.859464,-2.2583349999999998,1.037613,0.059937,-0.09765800000000001,0.9633940000000001
704,-4.394598,-3.1128400000000003,1.09865,0.019409,0.059937,1.017105
708,-6.71397,-5.61532,-0.854505,0.038331,-0.0636,0.984024
712,-3.295949,-3.479057,0.0,0.059083000000000004,-0.004273,1.03859
716,-2.80766,-0.549325,1.037613,0.048829000000000004,-0.026978,0.987442
720,-8.361944,-0.671397,0.30518,0.034668,-0.022461000000000002,0.9514309999999999
724,-24.170291,-6.225681,-0.854505,0.071534,-0.013672,0.985367
728,-25.085832,-0.061036,3.356985,0.08996699999999999,-0.102174,0.9817040000000001
732,-34.79057,-0.854505,0.732433,-0.000244,-0.06836,0.929702
736,-66.04104699999999,5.0049589999999995,-2.2583349999999998,0.011840999999999999,-0.099245,1.054826
740,-26.245518,-7.01915,-7.568475,0.171756,-0.286015,1.08571
744,-84.962234,32.715343,-4.882887,-0.30041999999999996,0.632212,1.9999689999999999
748,-315.251392,-89.23476,-22.095064,-0.440925,0.20141900000000001,1.585718
752,-830.395972,-214.66392000000002,61.34126800000001,0.408942,-0.101564,0.802136
756,281.010147,82.398718,-105.470359,-0.31043000000000004,1.3716030000000001,1.910796
760,176.333257,0.48828900000000003,11.596857,-0.36597199999999996,0.318853,0.26038
764,172.365911,24.841688,20.630198,-0.162722,0.30554699999999996,1.141985
768,255.06981000000002,78.492409,-15.808347,0.25037,-0.120851,1.219379
772,272.22095099999996,52.307927,-18.799115,0.25977,-0.264286,1.022232
776,262.211032,76.722362,-45.899138,0.377081,-0.450446,1.568139
780,267.3991,62.317845,-38.818952,0.076539,-0.6633399999999999,1.604517
784,229.922942,86.549172,-32.410163,0.235355,-0.519295,1.576928
788,195.803769,81.666285,-22.522316,0.17810299999999998,-0.617441,1.648829
792,186.70939199999998,44.678416,-21.118485999999997,0.3523,-1.038102,1.757107
796,151.30846100000002,221.194781,-83.741512,0.386847,-2.0000310000000003,0.115969
800,-78.797589,-126.649882,60.364691,0.312749,-1.310689,0.22876300000000002
804,-111.45189599999999,-109.07148899999999,54.20004599999999,-0.156619,0.7486689999999999,1.24184
808,-334.41672400000004,-91.187915,67.505913,0.6540630000000001,-0.437507,1.133318
812,-159.426261,-33.325703999999995,22.217136,-1.588159,-0.843397,1.9999689999999999
816,-46.082246000000005,5.493248,12.756542,-0.9279930000000001,-0.068727,1.0897379999999999
820,-20.263981,-24.719615,0.9155409999999999,-0.07837000000000001,-0.055299,1.1734799999999999
824,2.014191,-14.221407999999998,0.671397,0.083253,0.10009900000000001,0.954116
828,-22.1561,-9.765774,3.6621650000000003,0.040162,0.013672,0.972671
832,-16.540779999999998,-11.169604,1.40383,0.025269,-0.011475,1.032975
836,-8.1178,-6.408789,0.183108,0.02417,0.07128999999999999,1.03505
840,-29.907683000000002,-7.812619000000001,0.976577,0.043824,-0.014159999999999999,1.014054
844,-21.301595000000002,-0.9155409999999999,2.014191,0.026978,-0.060426,1.026505
848,-19.043259,-3.845274,0.30518,0.028443,-0.034302,0.985611
852,-13.183795000000002,-3.173877,-0.122072,0.064942,-0.091676,1.042252
856,-9.460594,-1.525902,0.427253,0.028321,-0.040527999999999995,0.962417
860,-19.958801,-5.493248,-0.9155409999999999,0.029419,-0.060182000000000006,0.9716950000000001
864,-27.405203000000004,-1.8310830000000002,-1.586938,0.043946,-0.09192,1.038834
868,-34.668498,5.493248,6.469825,0.056764,-0.11926500000000001,1.018936
872,-41.931792,6.2867169999999994,5.7984279999999995,0.020874,-0.09765800000000001,0.984634
876,-46.753643,1.281758,-13.366903,-0.002564,-0.21521300000000002,1.04567
880,-5.981537,0.732433,0.671397,0.126467,-0.077638,0.9969629999999999
884,-147.402152,22.583351999999998,-27.893492,-0.058961,0.41846300000000003,0.746105
888,-601.2664990000001,-84.901198,13.061722999999999,-0.902358,-0.070314,1.561303
892,-969.74136,-170.90104499999998,188.479438,-0.6524760000000001,-0.8997940000000001,1.9999689999999999
896,10.193027,-12.817578,26.123445,-0.736584,0.639048,1.033463
900,72.632944,-10.009917999999999,42.664225,-0.10473800000000001,0.252689,0.513313
904,180.05645800000002,-5.859464,12.085144999999999,0.064332,0.30054200000000003,1.363546
908,259.586481,30.395971999999997,-31.250477000000004,0.073121,-0.06958099999999999,1.087175
912,269.047074,25.635157,-50.598917,0.10620299999999999,-0.299077,0.9747459999999999
916,266.056306,54.505226,-71.534295,0.148318,-0.5629970000000001,1.770291
920,265.568017,75.013352,-50.415808,-0.131838,-0.8917370000000001,1.5006329999999999
924,217.34950800000001,83.863584,-1.40383,0.133913,-0.634409,1.423239
928,195.132372,63.599603,-12.207218,0.460578,-0.47071,1.807034
932,194.460975,56.092164000000004,-37.90341,0.159915,-0.881483,1.4612040000000002
936,109.43770500000001,95.704585,-22.522316,0.45838100000000004,-2.0000310000000003,0.914443
940,-23.376822,14.343481,46.204318,0.040406,-1.9429009999999998,-1.7995880000000002
944,-137.636378,-117.00618,8.850233,-0.398688,1.280537,1.9999689999999999
948,-257.267109,-86.793317,62.928206,0.7121689999999999,-0.089357,1.9999689999999999
952,-150.576028,-18.432898,28.442816999999998,-0.567391,-0.404181,1.9999689999999999
956,-52.185855,-7.385367,8.056764,-0.359747,0.041016000000000004,1.043839
960,-24.719615,-20.691233999999998,-4.943923000000001,0.022338999999999998,-0.072877,1.156634
964,-13.183795000000002,-6.469825,1.8921189999999999,0.050416,0.023804,1.026017
968,-13.000687,-4.333562000000001,2.014191,0.026123,-0.004883,1.018204
972,-9.704738,-7.080186,1.586938,0.016846,-0.01294,1.019425
976,-8.911269,-10.376135000000001,1.342794,0.043824,-0.015015,1.0509190000000002
980,-5.432212,-3.967346,2.197299,0.021241,0.010498,1.012222
984,-7.568475,-8.789197,1.2207219999999999,-0.015381,0.022461000000000002,0.960708
988,-17.822538,-13.977264000000002,-0.183108,0.042969,-0.030518,1.0040440000000002
992,-14.404517000000002,-7.9957270000000005,0.30518,0.054688,-0.03418,0.9820709999999999
996,-22.888533,-6.408789,0.793469,0.066285,-0.021729,0.992081
1000,-27.893492,-5.493248,1.586938,0.06225700000000001,-0.069337,1.054948
1004,-28.564889,-0.427253,0.366217,0.035279000000000005,-0.052125,0.9979399999999999
1008,-43.335622,7.080186,6.591897,0.06274500000000001,-0.150515,1.028946
1012,-42.542153000000006,6.164645,1.342794,0.017212,-0.111818,0.987442
1016,-12.390326,-5.432212,-9.52163,0.044556,-0.356939,1.041276
1020,-53.71175699999999,15.930419,-6.164645,0.071778,0.156374,0.925307
1024,-264.71351200000004,-18.432898,11.413748,0.15552,1.151263,0.831067
1028,-804.272526,-166.079194,79.957275,0.178592,-0.160647,0.943008
1032,250.186923,44.251164,-39.734493,0.030151999999999998,1.3355920000000001,1.536767
1036,86.4271,-18.616007,11.291675999999999,-0.023438,0.46558299999999997,0.154665
1040,90.516518,-13.366903,-26.733806,0.005737,0.48706800000000006,1.1583430000000001
1044,207.09544499999998,-5.554284,-38.941024,-0.17761500000000002,0.24353400000000003,1.305684
1048,274.174105,30.640116,-14.160372,-0.134768,-0.063233,0.9348290000000001
1052,297.97818,33.203632,-29.541465999999996,0.344488,-0.198734,0.9873200000000001
1056,206.24094,64.45410799999999,-53.284504000000005,0.08752599999999999,-0.241337,1.6397959999999998
1060,269.047074,105.470359,-49.195087,-0.002441,-0.615,1.9999689999999999
1064,273.25856400000004,98.75639,-28.442816999999998,0.176394,-0.957046,1.9999689999999999
1068,248.661021,105.592432,-37.59823,0.289921,-1.081559,1.646509
1072,147.58526,126.83299,-0.976577,0.516732,-2.0000310000000003,1.2015559999999998
1076,-138.979171,-96.31494599999999,43.579767,0.486336,-2.0000310000000003,-2.0000310000000003
1080,-115.297169,-96.25391,17.883574,-0.923842,0.579965,0.9203020000000001
1084,-232.85267400000004,-58.167391,50.171664,1.69485,-0.328252,1.9999689999999999
1088,-71.16807800000001,-71.717403,42.664225,-1.1154959999999998,-0.646738,0.8695200000000001
1092,-49.317159000000004,-28.198672,16.174563,-0.536751,-0.036866,0.882582
1096,-27.344167,-21.911955,1.525902,0.154299,0.06713999999999999,1.0897379999999999
1100,-22.46128,-3.173877,0.671397,0.043458,0.011109,1.074601
1104,-17.029068,8.972305,3.356985,-0.010742,-0.000732,0.989395
1108,-14.648660999999999,5.3101400000000005,1.8310830000000002,-0.063355,-0.003418,1.0944989999999999
1112,-11.108568,-1.281758,1.342794,-0.028199000000000002,-0.026368,1.002823
1116,-11.841001,-5.065995,0.0,-0.062013,0.055665,1.050309
1120,-12.817578,-7.751583,1.037613,-0.025147,-0.057496000000000005,0.9873200000000001
1124,-16.296635000000002,-11.474784,-1.647974,0.141726,-0.159426,0.6670020000000001
1128,-18.371862,-10.925460000000001,0.671397,0.022583000000000002,-0.071534,1.00441
1132,-22.705425,-9.216449,1.342794,-0.019287000000000002,-0.062379,1.0042879999999998
1136,-24.719615,-8.789197,-0.854505,0.029053,-0.055787,0.973526
1140,-34.851606,-2.563516,3.418021,0.01355,-0.097414,1.000992
1144,-31.616692999999998,6.408789,9.52163,0.029786,-0.126467,0.9034559999999999
1148,-46.631571,-2.563516,-6.408789,-0.051637,-0.088869,1.026749
1152,-29.053178000000003,-5.493248,-10.070953999999999,0.031617,-0.245731,1.08925
1156,-87.52575,6.408789,-19.531548,0.033692,0.118898,0.848524
1160,-492.988479,-26.550697999999997,-26.062409,-0.010376,0.242802,1.6273440000000001
1164,-802.319371,-114.86991699999999,58.167391,-0.392096,-1.362814,1.0095370000000001
1168,1.525902,-79.530022,18.24979,0.239017,1.222309,1.9999689999999999
1172,149.843595,37.59823,-7.751583,0.063233,0.441291,0.864149
1176,178.957809,-47.791257,-10.681315,-0.06384400000000001,0.07128999999999999,0.606821
1180,219.54680699999997,-24.658579,-40.10071,-0.164797,0.033204000000000004,1.029313
1184,286.99168399999996,15.686275,-26.428626,-0.43201300000000004,-0.264652,1.412253
1188,324.101625,21.240558,4.150454,0.160769,-0.36633899999999997,1.1574879999999999
1192,253.177691,71.473259,-43.884947,0.21924200000000002,-0.581308,0.855726
1196,204.16571299999998,66.346227,-49.561303,-0.015625,-0.538582,1.9999689999999999
1200,263.797971,75.623713,-46.997787,0.339483,-0.834852,1.9999689999999999
1204,208.31616699999998,82.52079,-86.793317,0.686046,-1.0628819999999999,1.594018
1208,164.370184,70.252537,-60.914015,0.201785,-2.0000310000000003,1.2528270000000001
1212,5.249104,35.950256,48.950942,-0.149538,-2.0000310000000003,-0.8285040000000001
1216,-108.705272,-106.935225,20.752270000000003,-0.18616,1.088396,1.9999689999999999
1220,-224.06347799999998,-75.31853199999999,42.542153000000006,1.0796059999999998,-0.31250500000000003,1.9999689999999999
1224,-119.63073200000001,-43.335622,35.339895,-1.037491,-0.38819000000000004,1.382223
1228,-51.819638,-26.489662,7.385367,-0.46546099999999996,-0.10009900000000001,0.8774549999999999
1232,-4.333562000000001,-25.452049,-3.051804,0.12195,0.065064,1.110002
1236,-9.948882000000001,-9.155413000000001,2.685588,0.095583,0.047363999999999996,0.991836
1240,-14.221407999999998,0.0,4.577707,0.0035399999999999997,0.010742,1.012589
1244,-17.273213000000002,-7.080186,0.854505,0.032593000000000004,-0.038209,0.943984
1248,-16.296635000000002,-3.051804,1.342794,0.058838999999999995,-0.001221,1.005631
1252,-15.991454999999998,0.183108,1.525902,0.015015,-0.030151999999999998,0.9991610000000001
1256,-19.65362,-2.380407,0.0,0.042115,-0.042359,1.011978
1260,-18.371862,0.183108,0.244144,0.055787,-0.080446,1.021622
1264,-11.108568,2.990768,1.525902,0.037476,-0.06713999999999999,1.008194
1268,-11.779964999999999,4.760815,1.7700470000000001,0.028931000000000002,-0.070924,0.989029
1272,-12.024109,2.624552,0.122072,0.026246,-0.07776,1.004532
1276,-10.986496,4.760815,-1.525902,-0.021363,0.083253,0.8864879999999999
1280,-33.142596000000005,9.460594,8.178836,-0.004517,-0.11071900000000001,1.026993
1284,-28.0766,5.188067,-2.50248,-0.029541,-0.118288,0.914565
1288,-46.570535,-6.836042,-11.291675999999999,0.085328,-0.252811,1.053117
1292,-58.411536,-0.854505,-12.512398,0.032958999999999995,0.042847,0.9209120000000001
1296,-229.129473,-21.606775,-12.573433999999999,0.14441099999999998,0.8548709999999999,0.787121
1300,-671.8852519999999,-125.490196,27.161059,0.127443,-0.45398599999999995,1.139666
1304,-98.08499300000001,-163.088426,-5.188067,0.184451,-0.544198,1.9999689999999999
1308,134.401465,41.687647999999996,-29.663539,-0.265019,0.168215,1.556298
1312,159.792477,13.183795000000002,-6.530861,-0.041993,0.105715,0.358282
1316,190.005341,-5.859464,-15.381094000000001,0.021241,0.210575,1.028092
1320,242.49637599999997,23.254749,-25.696193,-0.104372,-0.072511,1.044327
1324,274.357214,34.363316999999995,-3.784237,-0.018677000000000003,-0.25037,1.3824670000000001
1328,299.626154,68.17730999999999,-19.287404000000002,0.157107,-0.550912,1.296651
1332,232.730602,73.670558,-26.367590000000003,0.191409,-0.47156499999999996,1.347189
1336,235.355154,56.458381,-74.036774,0.507576,-0.578012,1.9999689999999999
1340,244.20538599999998,89.478904,-101.625086,0.270268,-0.89369,1.7169450000000002
1344,165.896086,128.419928,-84.962234,-0.025147,-1.783352,1.492332
1348,142.763409,126.83299,-2.563516,0.185306,-2.0000310000000003,-1.150042
1352,-278.69077599999997,-228.885328,97.35256,0.664439,-1.155901,0.5669029999999999
1356,-257.755398,-115.60235,79.957275,0.759167,-0.359136,0.427253
1360,-127.016098,6.836042,-19.287404000000002,0.272953,-0.346075,1.760891
1364,-57.557031,-98.390173,30.518044,1.996979,0.25977,1.9999689999999999
1368,-25.329976000000002,-37.720302000000004,-4.272526,0.452399,0.09509400000000001,1.23769
1372,-9.582666,-12.878614,-1.281758,0.001221,-0.027832,1.084367
1376,-4.577707,-4.5166699999999995,3.1128400000000003,0.031617,0.0,1.01796
1380,-12.32929,-1.70901,1.8310830000000002,0.029297000000000004,0.063355,0.983902
1384,-14.160372,-2.50248,1.2207219999999999,0.010742,0.008667,0.992691
1388,-25.085832,-0.061036,2.563516,0.023926,-0.038819,1.0202790000000002
1392,-18.493935,-4.272526,0.061036,0.016236,-0.027832,0.997208
1396,-23.86511,-3.967346,0.366217,0.031127999999999996,-0.063111,1.01735
1400,-21.118485999999997,4.21149,1.464866,0.057374,-0.091188,1.0251620000000001
1404,-18.738079,5.61532,3.6011290000000002,0.020874,-0.077028,0.993179
1408,-19.775692000000003,4.028382,2.80766,0.015503,-0.08276499999999999,0.997086
1412,-16.357671,3.356985,-0.122072,0.005371,-0.098756,0.9980620000000001
1416,-30.151827,5.188067,2.685588,0.029053,-0.096071,0.985977
1420,-31.677729,6.775005999999999,7.385367,0.005371,-0.131716,1.028092
1424,-55.298694999999995,-4.333562000000001,-16.540779999999998,0.040894,-0.265873,1.046769
1428,-39.063096,4.699779,-9.460594,-0.018189,0.020874,0.914443
1432,-203.555352,-10.376135000000001,-8.972305,0.167239,0.49378199999999994,1.028458
1436,-756.298161,-37.476158,76.661326,0.12195,-0.24377800000000002,1.0907149999999999
1440,128.847181,-119.386587,-7.934691,-0.052490999999999996,0.847181,1.9999689999999999
1444,139.58953200000002,23.254749,-35.339895,-0.014159999999999999,0.323369,0.317754
1448,91.248951,-17.578393,-47.058824,-0.06775,0.30640100000000003,0.323369
1452,158.32761100000002,-40.588998,-43.396658,-0.20935399999999998,0.266606,1.426413
1456,264.22522299999997,16.296635000000002,-29.907683000000002,-0.38294,-0.14685299999999998,1.212421
1460,286.381323,48.52369,4.394598,-0.061890999999999995,-0.28870100000000004,1.145159
1464,290.16556,67.017624,-24.597542999999998,0.498421,-0.363165,1.568505
1468,285.64889,61.46334,-55.542840000000005,0.059449,-0.606943,1.7352560000000001
1472,242.801556,75.013352,-59.20500500000001,0.172,-0.554696,1.9999689999999999
1476,253.54390800000002,96.92530699999999,-56.702525,-0.045411,-1.138079,1.9999689999999999
1480,181.887541,110.71946299999999,-6.71397,0.438849,-2.0000310000000003,1.3934540000000002
1484,58.594643999999995,123.964294,-18.677042999999998,0.35925799999999997,-2.0000310000000003,-1.805936
1488,-129.64065,-180.483711,29.053178000000003,0.043213999999999995,0.029419,1.7693139999999998
1492,-264.89662000000004,-128.23682,74.525063,0.6591899999999999,0.09765800000000001,-0.626596
1496,-135.500114,29.053178000000003,-31.494621000000002,0.169802,-0.067384,1.8369419999999999
1500,-56.702525,-99.305715,47.058824,1.294575,0.641123,1.9999689999999999
1504,-29.907683000000002,-50.720989,0.061036,0.618173,0.186648,1.445457
1508,-26.977951,-10.559242999999999,-0.732433,0.104494,-0.081788,1.24184
1512,-13.672084,0.427253,1.464866,-0.005615,-0.011719,1.048844
1516,-12.451362,-0.732433,1.2207219999999999,-0.033082,0.025757,0.944717
1520,-13.916228,-3.540093,1.525902,-0.007568000000000001,-0.026368,1.020035
1524,-10.437171000000001,-13.611048,2.075227,0.046265,0.067872,0.9602200000000001
1528,-14.221407999999998,-10.498207,1.2207219999999999,0.0177,-0.025757,0.9863430000000001
1532,-11.596857,-8.667124000000001,1.342794,0.020874,-0.053834,1.049577
1536,-9.887846000000001,-8.850233,0.793469,0.020142,-0.023316,0.9896389999999999
1540,-11.474784,-5.493248,1.342794,0.046876,-0.057252,1.002701
1544,-18.554971,-2.80766,2.50248,0.023316,-0.049928,0.9990389999999999
1548,-19.897765,-1.342794,2.136263,0.030883999999999998,-0.066163,1.002579
1552,-23.987182,-2.136263,2.50248,0.029175,-0.052735000000000004,0.9709620000000001
1556,-35.645075,-2.014191,5.371176,-0.001831,-0.06286699999999999,0.949722
1560,-42.420081,2.624552,0.671397,0.019776,-0.099733,0.996353
1564,-64.271,-1.09865,-13.305867000000001,-0.005371,-0.16809300000000002,1.086076
1568,-28.0766,3.418021,-5.065995,0.04712,0.0063479999999999995,0.984268
1572,-200.01525900000001,-10.437171000000001,-19.531548,-0.061036,0.13086099999999998,0.786145
1576,-660.53254,-131.288624,27.161059,0.036866,-0.5297930000000001,1.060685
1580,-265.323873,-147.341115,31.433584999999997,-0.41528999999999994,-1.040909,1.9999689999999999
1584,123.476005,12.268253999999999,4.699779,-0.342535,0.24170300000000003,1.025528
1588,128.297856,20.752270000000003,7.141222,0.034791,0.166018,0.350713
1592,176.943618,2.563516,-24.353399,0.077882,0.275029,1.150896
1596,244.57160299999998,25.757229000000002,-39.734493,-0.094484,-0.017823,1.188495
1600,286.137179,62.317845,-39.673457,0.08423,-0.417121,1.465965
1604,282.047761,76.417182,-48.767834,0.271977,-0.701915,1.362203
1608,240.78736600000002,61.219196,-34.973678,0.019532,-0.650889,1.568017
1612,244.57160299999998,72.999161,-28.992141999999998,0.22986199999999998,-0.613046,1.9999689999999999
1616,227.72564300000002,78.370336,-26.245518,-0.025269,-0.842664,1.430808
1620,169.619287,83.49736800000001,1.342794,0.245365,-1.518456,1.466941
1624,90.211337,156.191348,-11.474784,0.465095,-2.0000310000000003,-0.771008
1628,-235.41619,-210.208286,32.043946000000005,1.068986,-1.010636,0.373907
1632,-216.67811099999997,-77.08857900000001,39.917601,-0.649424,-0.064454,-0.18579400000000001
1636,-146.18143,-4.5166699999999995,3.234913,1.296162,-0.08838,1.9999689999999999
1640,-12.32929,-87.037461,31.677729,0.234134,0.244633,1.7534450000000001
1644,-36.682689,-41.626612,5.249104,0.320684,0.10132000000000001,1.285908
1648,-20.386053,-12.939651,-4.699779,0.115846,-0.013306,1.136858
1652,-14.648660999999999,0.244144,1.7700470000000001,-0.023072,-0.003662,0.999283
1656,-10.437171000000001,-0.732433,2.80766,-0.035279000000000005,0.005005,0.980117
1660,-18.921187,-8.545052,1.8310830000000002,-0.020752,-0.037842,0.947524
1664,-23.437858,-16.906996,3.234913,0.050660000000000004,0.10388299999999999,0.9194479999999999
1668,-24.414435,-7.385367,2.50248,0.008301000000000001,-0.05835,0.989517
1672,-21.606775,-15.014878,0.427253,0.02295,-0.102907,1.100114
1676,-11.718929,-12.146181,-0.183108,0.019287000000000002,-0.053712,0.985977
1680,-8.178836,-8.911269,0.30518,0.024291999999999998,-0.066773,1.008804
1684,-6.408789,-9.765774,-1.464866,0.041382,-0.079957,1.012467
1688,-12.32929,-7.812619000000001,-0.549325,0.028808999999999998,-0.048219,0.9698629999999999
1692,-20.508125,-5.7984279999999995,0.0,0.070069,-0.105592,1.016861
1696,-20.813306,0.671397,2.2583349999999998,0.043824,-0.10254100000000001,0.9990389999999999
1700,-35.400931,4.089418,4.8218510000000006,0.054688,-0.118288,1.011368
1704,-37.048905,7.324331,2.685588,0.034913,-0.137819,1.012589
1708,-35.156786,13.122759,-0.244144,0.005737,-0.171389,1.023087
1712,-23.926146,6.958114,-5.676356,0.056886,-0.225467,1.018082
1716,-89.96719300000001,10.681315,-5.065995,0.030518,0.002441,0.839612
1720,-250.308995,-18.005646,-5.127031,0.06713999999999999,-0.136599,0.932998
1724,-486.884871,-75.684749,37.90341,-0.067506,-0.362799,1.0370030000000001
1728,-383.611811,-128.603037,82.337682,-0.364508,-0.15295599999999998,1.9999689999999999
1732,74.158846,9.52163,-54.44419,-0.08581699999999999,-0.059449,1.8132599999999999
1736,158.14450300000001,7.141222,-45.716029999999996,-0.36548400000000003,-0.311162,0.191775
1740,149.66048700000002,19.65362,-12.024109,-0.378424,-0.310185,0.784192
1744,217.34950800000001,53.406577,5.371176,0.036378,-0.326787,1.175799
1748,268.986038,82.459754,-5.7984279999999995,0.139895,-0.678233,1.034318
1752,240.78736600000002,42.725260999999996,11.169604,0.123293,-0.849744,1.114519
1756,214.41977599999998,45.960174,0.0,0.08618300000000001,-1.019791,1.125872
1760,152.773327,44.068055,26.428626,0.389776,-0.921645,0.8805069999999999
1764,87.891966,-12.024109,-11.596857,0.625498,-0.448737,0.867567
1768,-76.112001,-3.967346,-5.188067,-0.3617,-1.173602,0.202396
1772,110.71946299999999,20.813306,-0.793469,0.459358,-0.965469,1.9999689999999999
1776,-205.081254,-51.63653,36.743725,0.261845,0.114626,1.013687
1780,-21.179522,-7.141222,3.6011290000000002,0.14331300000000002,0.019043,1.059464
1784,-15.503166,-9.82681,-1.8921189999999999,0.042115,-0.01709,1.078264
1788,-15.197985999999998,-2.319371,-1.342794,0.022216999999999997,0.023681999999999998,1.010391
1792,-7.2022580000000005,1.281758,1.525902,-0.013428,-0.088869,1.106096
1796,-5.371176,-6.71397,-1.40383,0.017823,-0.008301000000000001,1.015885
1800,0.671397,1.342794,0.244144,0.008301000000000001,-0.004883,1.001968
1804,2.197299,1.8921189999999999,0.0,-0.001221,-0.00293,0.995865
1808,3.6011290000000002,2.014191,-0.183108,0.008057,-0.003662,1.001968
1812,5.676356,2.563516,-0.366217,0.0028079999999999997,-0.007691,1.003922
1816,6.591897,2.4414439999999997,-0.549325,-0.003418,0.000977,0.988418
1820,1.953155,-0.366217,-0.30518,-0.0070799999999999995,0.015625,0.977676
1824,6.2867169999999994,0.671397,-0.183108,0.006104,0.005005,1.005875
1828,-0.549325,1.037613,-0.366217,0.028321,-0.001831,1.02443
1832,6.836042,6.103609,1.464866,-0.021485,0.022216999999999997,0.9858549999999999
1836,-0.48828900000000003,-5.065995,-1.281758,-0.025147,0.037354000000000005,0.965591
1840,4.638743,-1.953155,-0.122072,0.005249,0.016236,1.011978
1844,4.089418,-1.953155,0.671397,-0.015137000000000001,0.028321,0.941909
1848,-0.976577,-6.042573,-1.2207219999999999,-0.0035399999999999997,0.030151999999999998,0.984512
1852,-0.793469,-2.197299,-0.976577,0.046754000000000004,-0.002686,1.060563
1856,1.7700470000000001,2.4414439999999997,0.0,-0.008179,0.01648,1.000137
1860,-7.263294,-1.8310830000000002,-1.2207219999999999,-0.00647,-0.006226,1.0040440000000002
1864,5.249104,3.90631,0.244144,0.0094,0.030883999999999998,0.980117
1868,4.333562000000001,-5.554284,-0.976577,-0.012206999999999999,0.03418,0.9643700000000001
1872,-4.272526,-5.859464,-1.159686,0.034668,-0.018189,1.066789
1876,-1.586938,2.990768,0.30518,-0.037842,0.006958,0.968643
1880,2.80766,-1.09865,-0.48828900000000003,0.017456,0.016236,1.014786
1884,2.197299,2.2583349999999998,0.48828900000000003,0.016236,0.010254000000000001,1.0078280000000002
1888,-0.671397,1.09865,0.244144,-0.035523,0.012818000000000001,0.9873200000000001
1892,4.028382,0.366217,-0.244144,0.025879000000000003,0.019043,1.012467
1896,3.1128400000000003,3.356985,0.671397,-0.0058590000000000005,0.023926,0.988174
1900,3.90631,2.746624,0.061036,0.002686,0.035523,0.980117
1904,1.8310830000000002,2.2583349999999998,0.122072,-0.005982,0.017212,0.9863430000000001
1908,1.281758,-0.549325,-0.366217,-0.012329000000000001,0.0094,0.957046
1912,-1.40383,-1.2207219999999999,0.122072,0.0031739999999999997,0.030274000000000002,0.9990389999999999
1916,-1.586938,-1.586938,0.366217,-0.007691,0.028443,0.983658
1920,-0.061036,-1.2207219999999999,0.244144,0.004273,0.029297000000000004,0.995132
1924,-1.8921189999999999,-0.671397,0.0,0.00061,0.028687,0.98085
1928,-2.075227,-0.48828900000000003,0.366217,-0.010986,0.014527000000000002,0.9973299999999999
1932,-1.159686,-0.854505,-0.30518,0.032105,0.001953,1.056168
1936,1.281758,-0.732433,0.0,-0.016968,0.034913,0.97731
1940,-2.136263,-0.9155409999999999,0.0,0.0,0.01355,1.0089270000000001
1944,-0.976577,-1.037613,-0.183108,0.001465,0.021606999999999998,0.9906159999999999
1948,-0.9155409999999999,-0.366217,-0.549325,-0.002441,0.022216999999999997,0.985245
1952,-3.051804,-0.366217,0.0,-0.0037840000000000005,0.020996,0.995865
1956,-3.784237,-1.464866,0.122072,0.0028079999999999997,0.013793999999999999,0.993423
1960,-3.356985,0.244144,0.183108,-0.048951,0.016968,0.993057
1964,1.342794,-0.427253,0.0,0.0023190000000000003,0.017945,0.996597
1968,0.854505,-0.549325,0.122072,0.009888,0.027832,0.9909819999999999
1972,0.244144,0.0,0.122072,0.005982,0.024903,0.993179
1976,0.30518,0.549325,0.183108,0.005005,0.020874,0.9976959999999999
1980,1.953155,-0.549325,0.427253,-0.009155,0.010986,0.9935450000000001
1984,0.6103609999999999,-0.30518,0.427253,0.008911,0.025147,0.998184
1988,-1.159686,-0.244144,-0.244144,0.002564,0.019287000000000002,0.997452
1992,2.380407,0.122072,0.244144,0.004639,0.026978,0.996841
1996,1.342794,0.366217,-0.183108,0.004517,0.020630000000000003,0.9944
2000,0.671397,-0.671397,0.061036,-0.025025,0.0094,1.006729
2004,0.671397,0.549325,-0.30518,0.002075,0.026733999999999997,1.0011139999999998
2008,2.80766,-0.854505,0.30518,-0.017456,0.019898,0.9939120000000001
2012,2.2583349999999998,-0.48828900000000003,2.685588,0.026368,0.045655,1.001358
2016,1.525902,-0.366217,-0.183108,-0.006104,0.034668,0.994034
2020,1.953155,-0.122072,2.197299,0.014282,0.048707,0.992935
2024,-1.525902,-0.30518,0.122072,-0.001831,0.026123,1.01088
2028,2.197299,-0.30518,2.380407,0.0177,0.036622,1.002945
2032,0.0,0.183108,0.061036,0.008667,0.041138,1.0008700000000001
2036,0.793469,-0.976577,1.70901,0.008789,0.034546,0.9935450000000001
2040,-0.183108,-0.183108,0.48828900000000003,-0.000366,0.027222000000000003,0.989273
2044,-0.976577,-0.244144,0.183108,0.004761,0.039307,0.989395
2048,0.427253,-0.9155409999999999,0.122072,-0.000244,0.03125,1.0031889999999999
2052,1.40383,-0.183108,2.319371,0.014527000000000002,0.029664,0.977188
2056,-1.40383,0.427253,0.061036,0.001221,0.031127999999999996,0.997208
2060,-2.136263,0.48828900000000003,-0.732433,0.008057,0.031373000000000005,0.9945219999999999
2064,-2.990768,0.061036,-2.075227,-0.000488,0.043213999999999995,0.964126
2068,-13.183795000000002,-0.549325,-3.051804,0.012573,0.020263999999999997,1.012467
2072,-5.3101400000000005,-0.671397,-0.793469,0.001953,0.000732,0.969986
2076,-0.427253,-0.061036,-0.427253,0.009033,0.020142,0.9858549999999999
2080,3.540093,-0.183108,-0.122072,-0.031861,-0.020996,1.002701
2084,1.281758,-0.732433,0.549325,-0.006958,0.014405000000000001,1.005264
2088,2.014191,-0.122072,0.0,0.011719,0.034424,0.9876860000000001
2092,0.427253,-1.159686,1.7700470000000001,0.009033,0.024659,0.985611
2096,0.793469,-1.09865,1.7700470000000001,-0.010864,0.019532,1.013809
2100,2.624552,-0.671397,3.418021,0.023681999999999998,0.031861,0.989395
2104,-0.854505,0.976577,-1.09865,0.013306,0.029175,1.0011139999999998
2108,2.50248,0.0,0.122072,0.005737,0.024413999999999998,1.005997
2112,-0.061036,0.244144,-0.122072,0.0043950000000000005,0.025147,0.9908600000000001
2116,0.30518,-0.366217,0.0,0.014038,0.031495,1.0091709999999998
2120,-0.9155409999999999,0.183108,-0.30518,0.0028079999999999997,0.027466,0.9983059999999999
2124,-1.40383,0.976577,-2.014191,0.001953,0.029419,0.993057
2128,1.525902,0.48828900000000003,-1.40383,0.046265,0.045045,0.988663
2132,-0.854505,1.037613,-5.188067,0.005005,0.033936,0.991836
2136,0.976577,0.122072,-2.4414439999999997,-0.000244,0.019898,0.9907379999999999
2140,3.418021,0.671397,-4.455634,0.003296,0.023926,1.0118559999999999
2144,1.464866,1.525902,-8.42298,-0.001465,0.036378,0.980117
2148,3.356985,1.342794,-8.056764,0.00061,0.035279000000000005,0.9897610000000001
