Packet number,Gyroscope X (deg/s),Gyroscope Y (deg/s),Gyroscope Z (deg/s),Accelerometer X (g),Accelerometer Y (g),Accelerometer Z (g)
0,0.000000,0.122072,0.000000,-0.002564,-0.001709,0.999283
1,0.122072,0.000000,0.000000,0.005005,-0.002075,1.003677
2,0.122072,0.061036,0.000000,-0.000732,-0.004883,1.002090
3,0.122072,0.000000,-0.183108,-0.000610,-0.004395,1.005509
4,0.000000,0.000000,0.000000,0.002808,-0.000122,0.999771
5,0.000000,0.000000,0.000000,0.001099,-0.001831,1.007095
6,-0.244144,-0.244144,0.000000,0.001465,-0.001587,0.996353
7,-0.061036,-0.183108,-0.122072,0.000977,-0.003174,0.995132
8,-0.183108,-0.183108,0.000000,-0.000977,-0.003906,1.003067
9,0.061036,0.000000,-0.122072,-0.000610,0.001587,0.984634
10,-0.549325,-0.366217,0.000000,0.004273,-0.002197,1.009171
11,-0.244144,-0.244144,-0.122072,0.003906,-0.003052,0.996231
12,-0.488289,-0.244144,0.000000,0.003540,-0.003418,1.001236
13,-0.366217,-0.061036,-0.183108,-0.001587,-0.002808,1.005753
14,-0.183108,-0.061036,0.000000,0.008301,-0.005005,0.996719
15,-0.244144,-0.183108,0.000000,0.008911,-0.001953,0.996963
16,-0.244144,-0.305180,-0.183108,-0.012818,0.000244,1.000137
17,-0.915541,-0.061036,0.000000,0.004883,-0.018433,1.000870
18,0.610361,-0.122072,-0.122072,-0.000732,0.001343,0.990738
19,-0.427253,-0.061036,-0.122072,0.005982,-0.011719,1.010391
20,0.427253,0.000000,0.000000,0.000244,0.002686,1.000259
21,0.000000,0.000000,0.000000,0.002564,-0.005249,0.997330
22,0.061036,-0.183108,-0.122072,0.001831,0.000000,0.995010
23,-0.061036,-0.122072,-0.122072,0.002441,-0.000488,1.003677
24,-0.061036,-0.183108,0.000000,-0.000855,-0.005982,1.002090
25,0.061036,0.000000,-0.183108,0.003540,-0.005005,0.999771
26,-0.183108,-0.061036,-0.122072,0.000610,-0.003296,0.993179
27,-0.305180,-0.183108,-0.183108,-0.000732,-0.006470,1.004166
28,-0.122072,-0.183108,0.000000,0.002197,0.000855,1.000870
29,-0.183108,-0.183108,0.000000,-0.001099,-0.003296,0.995499
30,-0.122072,-0.061036,0.000000,0.000732,-0.008911,0.997574
31,0.061036,0.000000,-0.122072,0.002564,-0.002930,0.995499
32,0.122072,0.000000,0.000000,0.001587,-0.005127,0.995254
33,0.061036,-0.122072,-0.122072,0.005737,-0.009766,1.001846
34,0.305180,0.000000,0.000000,0.001587,0.000244,0.995254
35,0.305180,0.000000,0.000000,0.007568,-0.004395,0.999771
36,0.183108,0.000000,-0.183108,0.000610,-0.005249,1.004044
37,0.305180,0.061036,-0.122072,0.004150,-0.002075,0.999039
38,0.061036,0.061036,0.000000,0.002686,-0.000122,1.002335
39,0.000000,0.000000,0.000000,0.003296,-0.000488,1.005753
40,-0.305180,-0.244144,0.000000,0.003540,-0.003174,1.003311
41,-0.427253,-0.061036,-0.183108,-0.000977,-0.004883,1.001358
42,-0.244144,-0.061036,-0.122072,-0.000977,-0.001587,0.996109
43,-0.488289,-0.244144,-0.183108,-0.000610,-0.008423,1.000748
44,0.000000,-0.122072,-0.183108,-0.000244,0.000488,1.005997
45,-0.366217,-0.061036,-0.183108,0.004395,-0.004883,1.005631
46,-0.061036,-0.122072,0.000000,-0.000732,-0.003662,1.000381
47,-0.122072,-0.183108,-0.122072,-0.000244,-0.001831,0.998672
48,-0.061036,-0.183108,-0.183108,0.004150,0.000977,1.004288
49,-0.122072,-0.244144,-0.122072,0.003906,-0.004761,0.999893
50,-0.061036,-0.122072,-0.122072,-0.000122,-0.006348,1.001114
51,-0.183108,-0.061036,0.000000,-0.001343,-0.001587,0.999405
52,-0.183108,-0.183108,0.000000,0.004761,0.002808,0.998795
53,-0.183108,-0.305180,0.000000,0.004395,-0.000366,0.989883
54,-0.183108,-0.244144,0.000000,0.003784,-0.000366,1.005509
55,-0.610361,-0.366217,-0.122072,-0.000244,0.003174,0.998428
56,-0.488289,-0.366217,0.000000,0.002441,-0.002930,1.008072
57,-0.366217,-0.244144,-0.122072,0.000610,-0.003418,0.993423
58,-0.427253,-0.244144,0.000000,-0.001099,-0.007324,1.001968
59,0.122072,0.000000,0.000000,-0.000122,-0.004273,1.006485
60,-0.061036,-0.122072,-0.122072,0.001099,-0.008667,0.994644
61,0.305180,0.000000,0.000000,0.001221,-0.003540,1.004166
62,0.000000,0.000000,-0.122072,0.003052,-0.003296,1.000992
63,0.122072,-0.122072,-0.122072,-0.000488,-0.001099,0.997940
64,0.000000,0.000000,-0.122072,0.002930,-0.004150,0.999771
65,0.000000,-0.122072,-0.122072,0.008545,-0.003296,0.998428
66,-0.122072,-0.061036,-0.122072,0.002441,-0.005005,1.004532
67,0.183108,0.000000,-0.183108,0.000000,-0.004273,1.005875
68,-0.061036,-0.244144,0.000000,0.006104,-0.003296,1.002945
69,-0.244144,0.061036,-0.122072,0.000366,-0.001221,1.005753
70,0.000000,0.183108,-0.122072,-0.003906,-0.005371,0.998306
71,0.366217,0.183108,-0.122072,0.013428,-0.002564,0.997940
72,0.183108,0.488289,0.000000,-0.005859,-0.009033,0.996841
73,1.098650,0.305180,-0.122072,0.019043,0.001221,1.001236
74,0.305180,0.793469,0.000000,-0.009888,-0.014038,1.004898
75,1.647974,0.549325,-0.122072,0.014649,0.005005,1.001602
76,0.366217,1.037613,-0.122072,-0.012573,-0.004028,0.995132
77,1.464866,0.732433,0.122072,0.015137,-0.002197,1.016373
78,1.342794,1.403830,0.183108,-0.006470,0.000488,0.984512
79,0.915541,1.037613,0.183108,0.003906,0.000855,1.000381
80,0.732433,0.854505,0.183108,-0.006592,0.000610,0.996841
81,0.732433,0.549325,0.183108,-0.002075,0.003784,0.990005
82,-0.122072,0.000000,0.000000,-0.006348,-0.004150,0.995865
83,0.122072,-0.244144,-0.183108,-0.001099,0.002319,1.001968
84,-0.061036,-0.366217,-0.244144,-0.000855,0.000732,0.999039
85,0.000000,-0.366217,-0.366217,0.006226,0.004150,1.002823
86,-0.061036,-0.305180,-0.244144,0.003540,0.000855,0.994400
87,-0.427253,-0.183108,-0.305180,-0.003174,-0.001587,0.998184
88,-0.305180,0.122072,-0.427253,-0.002441,0.001587,0.991714
89,-1.281758,0.000000,-0.244144,-0.002930,-0.002197,0.998428
90,-1.037613,0.061036,-0.183108,0.002808,-0.001709,1.001358
91,-1.281758,0.488289,-0.122072,0.006714,-0.005493,1.013687
92,-0.793469,0.793469,0.122072,-0.003784,-0.006348,1.005142
93,-0.122072,0.427253,0.000000,0.001709,0.000122,1.002945
94,-0.366217,0.671397,0.000000,-0.004395,-0.012329,1.001602
95,0.000000,0.488289,0.000000,-0.003784,0.002808,0.996597
96,-0.122072,0.183108,0.000000,-0.001465,-0.003784,1.002579
97,0.000000,0.244144,0.000000,-0.007324,-0.001709,0.992813
98,-0.061036,0.000000,-0.183108,-0.000610,0.004639,0.990982
99,-0.976577,-0.305180,0.000000,-0.002686,-0.001953,1.000259
100,-0.610361,-0.244144,-0.122072,0.004028,0.000488,0.992447
101,-1.403830,-0.183108,-0.122072,0.006348,-0.003662,1.007706
102,-1.220722,0.000000,-0.122072,-0.001587,-0.009277,1.014786
103,-0.671397,0.244144,0.000000,0.000732,-0.007324,1.006119
104,-0.305180,0.366217,0.061036,-0.000244,0.000855,0.999649
105,-0.610361,0.488289,0.122072,-0.005249,0.001709,0.992081
106,-1.281758,-0.061036,0.061036,0.000244,-0.003052,1.006241
107,-0.793469,-0.061036,0.000000,-0.002441,-0.003052,0.988907
108,-1.281758,-0.183108,0.061036,-0.002075,-0.003540,0.990127
109,-1.403830,-0.244144,0.000000,-0.002319,-0.002930,1.000381
110,-1.647974,-0.427253,0.122072,-0.003296,-0.007568,1.004044
111,-1.403830,-0.610361,0.122072,-0.000244,-0.005982,1.004288
112,-1.403830,-0.732433,0.183108,-0.003418,-0.006714,1.004898
113,-1.220722,-0.915541,0.305180,-0.009644,-0.006836,0.997330
114,-1.281758,-1.098650,0.305180,-0.007446,-0.003540,0.997208
115,-1.525902,-1.525902,0.427253,-0.003784,-0.006592,0.999527
116,-1.037613,-1.586938,0.549325,-0.002808,-0.012696,1.008804
117,-0.366217,-1.647974,0.793469,0.001953,-0.012940,1.005386
118,-0.305180,-1.464866,1.098650,0.004517,-0.001953,1.002335
119,-1.037613,-1.159686,1.342794,-0.005127,0.003784,0.980728
120,-2.319371,-1.281758,1.342794,0.000244,0.019043,0.960220
121,-6.408789,-2.319371,1.098650,-0.022461,0.021607,0.952895
122,-8.972305,-4.089418,0.793469,-0.005005,0.019287,0.981582
123,-11.596857,-4.943923,0.671397,0.002930,0.011719,0.955337
124,-13.916228,-5.615320,0.427253,0.004517,0.007446,0.972061
125,-15.747311,-6.042573,0.122072,0.011353,0.004028,0.976944
126,-17.456321,-5.920500,-0.183108,-0.003540,0.014527,0.959487
127,-22.766461,-7.080186,0.000000,0.027588,0.045289,0.942519
128,-26.733806,-7.751583,-1.892119,0.051392,0.086671,0.913832
129,-41.870756,-6.103609,-0.976577,-0.060182,0.040284,0.955581
130,-44.129091,-7.202258,-0.122072,0.032837,0.027100,0.972915
131,-52.124819,-5.065995,-0.183108,0.027344,0.038697,0.955093
132,-59.876402,-3.418021,-0.549325,0.003296,0.021851,1.011124
133,-64.881361,-4.699779,-1.770047,0.024048,-0.008179,1.000504
134,-67.505913,-4.272526,-5.249104,0.020996,-0.033326,1.015640
135,-70.252537,-5.310140,-8.239872,-0.011719,0.006104,0.877089
136,-87.281605,-7.629511,-12.756542,0.031006,0.076905,0.957046
137,-106.752117,-9.826810,-15.747311,0.014038,0.100954,0.956802
138,-129.274434,-8.972305,-18.371862,-0.265263,0.077150,1.505028
139,-107.728695,42.542153,-5.371176,-0.808606,0.439582,1.999969
140,-74.525063,43.701839,-1.647974,-0.743664,0.347906,1.999969
141,-3.356985,42.053864,13.305867,-0.411994,0.612070,1.419333
142,2.990768,19.653620,20.386053,0.070436,0.626230,0.745373
143,3.356985,17.090105,12.939651,0.400885,0.729381,0.752575
144,2.685588,22.888533,-1.525902,0.477058,0.764904,1.085832
145,21.057450,23.926146,-14.831769,0.379522,0.750500,1.212421
146,43.640803,12.268254,-20.874342,0.282963,0.721324,1.126848
147,60.486763,-5.981537,-23.498894,0.244877,0.633066,1.006851
148,72.388800,-16.784924,-25.391012,0.211551,0.592660,0.964736
149,79.407950,-19.653620,-28.564889,0.172366,0.552621,0.954971
150,85.267414,-18.005646,-32.227054,0.083375,0.497444,0.976333
151,90.943771,-15.442130,-34.058137,-0.034180,0.443854,0.982315
152,96.253910,-12.512398,-33.142596,-0.118410,0.415045,0.972305
153,99.305715,-8.484016,-30.029755,-0.171511,0.390631,0.979263
154,100.709545,-2.746624,-25.940337,-0.193484,0.368048,1.017472
155,103.700313,5.004959,-21.362631,-0.194705,0.350591,1.063981
156,105.897612,12.634470,-16.479744,-0.164675,0.327398,1.074235
157,107.911803,16.968032,-11.841001,-0.099001,0.314580,1.116716
158,111.390860,17.578393,-8.972305,-0.015625,0.308965,1.195453
159,117.860685,16.906996,-9.277485,0.068360,0.332769,1.302022
160,127.199207,15.747311,-12.817578,0.126955,0.324224,1.326314
161,136.537728,15.442130,-18.677043,0.164553,0.301762,1.242084
162,140.871290,14.892805,-25.024796,0.160769,0.271244,1.110124
163,141.664759,12.390326,-30.640116,0.115602,0.260746,1.037247
164,138.368811,10.070954,-35.156786,0.076539,0.231571,1.133806
165,138.307774,11.718929,-39.063096,0.037842,0.178347,1.240131
166,139.894713,16.357671,-42.359045,0.013184,0.101930,1.245502
167,141.786831,19.714656,-44.068055,-0.054322,0.067140,1.161028
168,138.368811,19.226368,-43.640803,-0.055787,-0.002319,1.151995
169,135.988403,22.095064,-42.969406,-0.023438,-0.080446,1.114641
170,131.166552,24.231327,-42.603189,0.001343,-0.150759,1.005020
171,123.353933,23.376822,-42.969406,0.029908,-0.223270,0.922377
172,113.099870,21.301595,-43.518730,0.081544,-0.289311,0.895521
173,104.249638,18.738079,-44.983597,0.118166,-0.342412,0.877455
174,94.361791,14.648661,-46.692607,0.168460,-0.427008,0.819104
175,83.924620,9.521630,-49.439231,0.215702,-0.495613,0.697154
176,70.496681,4.333562,-53.406577,0.209476,-0.535286,0.613535
177,53.040360,0.305180,-56.397345,0.169436,-0.590829,0.626474
178,39.551385,-2.075227,-58.045319,0.079347,-0.621958,0.624765
179,26.001373,-5.249104,-56.031128,-0.040284,-0.633555,0.658701
180,15.808347,-10.864424,-49.622339,-0.127565,-0.628305,0.673106
181,7.507439,-18.677043,-40.039673,-0.174075,-0.599008,0.669078
182,-1.220722,-24.170291,-28.992142,-0.189822,-0.533577,0.676280
183,-12.085145,-25.085832,-19.836728,-0.190677,-0.520150,0.655650
184,-22.400244,-22.522316,-11.169604,-0.186893,-0.479988,0.715709
185,-30.029755,-20.263981,-2.868696,-0.165408,-0.478645,0.754406
186,-35.645075,-21.789883,4.821851,-0.135622,-0.459846,0.763439
187,-40.100710,-24.719615,11.718929,-0.142336,-0.093507,0.510628
188,-60.303655,-8.239872,6.591897,0.109010,0.871229,0.027100
189,-121.217670,-33.264668,9.155413,0.149660,0.540780,0.373541
190,-114.381628,-22.888533,4.882887,-0.140627,0.637461,0.603891
191,-157.717250,-41.687648,5.432212,-0.386481,0.063355,0.528939
192,-170.168612,-37.048905,19.653620,-0.450446,-0.083864,1.016007
193,-165.835050,-32.898451,30.701152,-0.216678,-0.045899,1.720607
194,-146.547646,-31.677729,34.851606,0.317021,0.126345,1.999969
195,-115.480278,-18.188754,23.865110,0.662852,0.152956,1.912016
196,-95.216297,-3.784237,8.300908,0.658579,0.182254,1.606836
197,-84.657053,7.080186,-5.249104,0.301884,0.143435,1.524804
198,-72.449836,12.878614,-10.070954,-0.210208,0.075441,1.245258
199,-69.947356,10.437171,-4.638743,-0.521492,0.065064,0.930190
200,-73.487449,0.488289,6.042573,-0.490242,0.043824,0.793225
201,-79.591058,-10.376135,13.977264,-0.268681,0.064576,0.884901
202,-81.849393,-18.005646,17.090105,0.005615,0.075563,1.054337
203,-78.248264,-25.146868,18.554971,-0.030030,0.169436,1.471092
204,-68.726635,-34.424353,17.212177,-0.053346,-0.129763,1.430442
205,-43.091478,-42.847333,17.090105,-0.120241,0.011963,1.120867
206,-46.021210,-46.875715,20.935378,-0.037110,0.093019,0.978897
207,-49.805447,-52.552071,21.789883,0.201907,0.162722,1.558373
208,-46.021210,-38.635843,13.000687,0.417243,0.010254,1.551781
209,-25.329976,-13.244831,4.699779,0.050416,0.070680,1.146136
210,-33.875029,-11.169604,6.591897,-0.184451,0.036500,0.960464
211,-34.180209,-19.470512,7.568475,0.018921,0.064210,1.114763
212,-31.921874,-15.503166,3.723201,0.160403,0.025025,1.117815
213,-28.992142,-7.019150,2.685588,0.030762,0.037476,1.066423
214,-28.931106,-7.080186,2.685588,-0.045777,0.005615,1.052750
215,-22.644388,-9.948882,0.854505,-0.012329,-0.018311,1.033341
216,-18.677043,-10.681315,0.793469,0.002564,0.045045,1.016861
217,-21.545739,-12.207218,-0.122072,-0.022217,0.002441,1.038224
218,-17.456321,-12.939651,-1.098650,0.039429,0.005249,1.021866
219,-15.564202,-11.841001,-0.488289,-0.002686,0.085328,0.978653
220,-18.066682,-11.779965,0.061036,0.008667,0.044190,1.013321
221,-18.738079,-11.535821,-0.122072,0.029541,-0.005737,1.041032
222,-16.357671,-9.460594,0.000000,0.043824,0.007080,1.045548
223,-15.564202,-7.507439,0.488289,0.042481,-0.006592,1.040055
224,-12.878614,-5.859464,0.305180,0.035645,-0.006592,1.026871
225,-12.451362,-4.638743,0.732433,0.047730,0.003052,1.039322
226,-10.742351,-3.784237,0.915541,0.016480,-0.013428,1.011124
227,-10.254063,-3.906310,1.220722,0.026978,0.008911,1.021744
228,-9.399557,-3.784237,0.976577,0.010010,-0.014405,1.008927
229,-9.521630,-4.272526,0.854505,0.015991,-0.003906,1.016739
230,-8.117800,-4.516670,0.549325,0.010254,0.004761,1.000259
231,-9.887846,-5.127031,0.488289,0.019532,-0.006958,1.007462
232,-8.117800,-5.371176,0.122072,0.020874,-0.003296,1.011978
233,-8.911269,-5.981537,0.000000,0.030762,-0.012451,1.005020
234,-7.873655,-5.920500,-0.305180,0.017700,-0.014893,1.000870
235,-8.728161,-6.225681,0.061036,0.021241,-0.000488,0.995621
236,-8.911269,-6.164645,0.122072,0.032959,-0.016236,1.010391
237,-8.667124,-5.554284,0.000000,0.032593,-0.036988,0.991348
238,-7.812619,-5.493248,0.183108,0.019409,-0.000610,0.995987
239,-9.643702,-5.920500,0.183108,0.024537,-0.022950,0.992325
240,-9.399557,-6.347753,0.244144,0.022461,-0.013916,0.997940
241,-10.620279,-6.958114,0.244144,0.018677,-0.006836,0.978286
242,-12.756542,-7.751583,0.305180,0.035645,-0.018311,0.997696
243,-12.268254,-8.117800,0.000000,0.031739,-0.012451,0.974136
244,-15.869383,-8.239872,0.122072,0.057496,-0.048829,1.008072
245,-15.442130,-7.202258,0.000000,0.048341,-0.037842,1.005997
246,-15.197986,-6.286717,0.671397,0.057618,-0.024048,1.006729
247,-15.259022,-4.760815,1.159686,0.043946,-0.045167,1.007218
248,-14.038300,-4.333562,1.098650,0.032837,-0.012696,0.981216
249,-17.517357,-5.065995,0.976577,0.029786,-0.031495,0.988907
250,-17.883574,-6.225681,0.488289,0.025879,-0.043336,0.975845
251,-19.165332,-7.385367,0.000000,0.035035,-0.045655,1.000259
252,-19.226368,-7.324331,-0.305180,0.045533,-0.059205,0.999039
253,-19.104295,-7.324331,-0.244144,0.053956,-0.050782,0.984878
254,-22.400244,-6.042573,0.671397,0.041749,-0.052003,0.996109
255,-24.231327,-5.798428,0.488289,0.055543,-0.075563,0.994156
256,-24.658579,-5.554284,0.305180,0.055421,-0.052735,0.992691
257,-26.794842,-4.943923,0.854505,0.048951,-0.061402,0.988418
258,-26.672770,-4.394598,1.098650,0.065553,-0.082399,1.014054
259,-25.696193,-3.112840,1.586938,0.063844,-0.088502,1.028946
260,-24.597543,-2.258335,2.197299,0.063111,-0.081910,1.021256
261,-22.583352,-2.136263,2.014191,0.060792,-0.082399,1.020890
262,-22.949569,-2.441444,2.014191,0.036011,-0.083986,0.995377
263,-24.231327,-2.746624,2.319371,0.071656,-0.017945,0.955459
264,-30.701152,1.709010,1.892119,0.041016,-0.017945,1.007218
265,-38.757916,1.586938,1.464866,0.081910,-0.065919,0.988418
266,-40.344854,3.845274,1.220722,0.059693,-0.038941,0.984756
267,-48.706798,5.493248,1.342794,0.069825,-0.050416,1.055558
268,-53.223468,7.873655,2.502480,0.056886,-0.117678,1.014298
269,-54.871443,11.352712,0.915541,0.053590,-0.117800,1.005142
270,-59.693294,13.916228,0.183108,0.034058,-0.144533,1.048234
271,-63.965820,14.587625,-2.807660,-0.067506,-0.250370,1.100969
272,-48.828870,11.535821,-7.507439,0.008911,-0.281621,1.031632
273,-37.232013,9.460594,-5.188067,0.062379,-0.225834,1.016251
274,-36.560616,8.667124,2.258335,0.029419,-0.015625,0.922377
275,-62.867170,9.765774,1.892119,0.033570,0.097902,0.898939
276,-98.573281,8.789197,2.380407,-0.035767,0.094484,0.703990
277,-138.918135,2.441444,4.333562,0.104128,0.272709,0.845716
278,-188.296330,0.610361,2.563516,-0.016236,0.103151,0.752453
279,-217.593652,-20.691234,21.545739,-0.245609,0.715953,0.868666
280,-322.392615,-38.086519,-14.953841,-0.049683,-0.007935,1.417380
281,-452.765698,-50.354772,0.244144,-0.286503,-0.129641,1.229877
282,-524.422065,-89.417868,10.376135,-0.110719,0.084352,1.146624
283,-607.248035,-114.564736,-10.864424,0.118898,-0.220706,1.490867
284,-662.851911,-107.545586,13.550011,0.177127,-0.822278,1.999969
285,-664.438850,-28.381781,112.123293,-1.110002,-0.338018,1.999969
286,-116.456855,-20.141909,-19.409476,-0.546273,-0.819348,1.999969
287,225.223163,22.583352,-45.899138,-0.656138,0.489509,1.999969
288,-5.920500,21.301595,-33.081559,-0.503914,0.548226,1.386618
289,-72.999161,-11.230640,25.940337,-0.248051,-0.086793,1.074357
290,70.313573,-2.136263,-0.793469,-0.028321,0.265751,0.427131
291,19.470512,-18.677043,-4.577707,0.096803,0.471077,0.280522
292,2.258335,-16.052491,-11.047532,0.164797,0.256474,0.730602
293,41.931792,-5.371176,-28.686961,0.154543,0.494514,0.818860
294,36.438544,4.333562,-39.795529,0.080446,0.426276,0.999161
295,66.285191,10.864424,-48.706798,-0.018189,0.400519,1.132830
296,91.737240,10.925460,-51.453422,-0.105104,0.395636,1.175677
297,116.334783,9.704738,-49.683375,-0.171145,0.315435,1.221454
298,143.862058,11.291676,-45.654994,-0.227787,0.275639,1.228168
299,164.614328,18.310826,-39.124132,-0.254154,0.192142,1.258320
300,186.343175,31.311513,-31.616693,-0.259281,0.094850,1.178729
301,202.456703,41.870756,-21.850919,-0.267338,0.007202,1.083024
302,214.358740,46.692607,-10.009918,-0.242679,-0.067872,0.886488
303,220.218204,44.678416,1.709010,-0.170413,-0.075074,0.791760
304,219.363699,42.420081,11.169604,-0.059083,-0.049073,0.872328
305,221.316854,43.396658,15.869383,0.072389,0.002808,1.064591
306,226.504921,48.645762,15.991455,0.193362,0.050050,1.243305
307,230.777447,56.580453,10.864424,0.314824,-0.002319,1.285542
308,238.529030,62.378882,3.356985,0.376471,-0.018067,1.357809
309,242.618448,65.186542,-4.150454,0.405890,-0.113283,1.383810
310,247.623407,67.139696,-10.376135,0.366339,-0.178714,1.395407
311,248.111696,63.721675,-12.817578,0.333501,-0.245609,1.432029
312,248.783093,59.571221,-12.939651,0.343999,-0.309331,1.406149
313,246.524758,54.139010,-14.587625,0.371954,-0.372320,1.235615
314,235.111009,48.462654,-18.371862,0.379156,-0.389044,1.116472
315,217.288472,42.847333,-25.146868,0.305058,-0.389044,1.162737
316,198.611429,42.420081,-32.593271,0.188357,-0.339971,1.572412
317,188.540475,44.678416,-37.964446,0.009522,-0.368658,1.999969
318,202.639811,51.148241,-39.246204,-0.142947,-0.483040,1.999969
319,226.565957,58.472572,-36.438544,-0.216800,-0.555428,1.999969
320,234.683757,63.660639,-28.198672,-0.232670,-0.618906,1.885527
321,233.768215,67.811093,-17.334249,-0.176638,-0.660410,1.619287
322,223.270008,72.449836,-5.188067,-0.097780,-0.664073,1.464988
323,208.926528,72.449836,5.920500,-0.020752,-0.672984,1.409567
324,197.085527,69.642176,13.305867,0.063722,-0.678477,1.369162
325,183.352407,70.008392,15.747311,0.143313,-0.712047,1.303853
326,169.069963,72.205692,13.427939,0.172976,-0.767102,1.304952
327,155.703059,70.496681,9.704738,0.182132,-0.883314,1.300435
328,148.256657,64.332036,5.127031,0.185916,-1.030167,1.259541
329,136.354620,59.449149,1.220722,0.248295,-1.240742,1.374044
330,129.396506,60.120546,-1.770047,0.390997,-1.566552,1.179583
331,119.142443,63.172351,-6.469825,0.532357,-1.887480,0.710094
332,93.018997,60.914015,-7.202258,0.579232,-2.000031,0.129030
333,56.031128,40.466926,1.037613,0.484627,-2.000031,-0.261112
334,10.681315,-5.065995,14.953841,0.335210,-1.800565,-0.167117
335,-24.780652,-43.884947,27.405203,0.207889,-1.515770,0.350713
336,-110.109102,-95.338369,24.475471,0.269169,-2.000031,-1.244404
337,-211.123827,-133.424887,29.358358,0.448493,-1.744045,-0.241581
338,-151.064317,-82.825971,18.921187,-0.100710,-0.281987,1.042618
339,-142.397192,-59.388113,19.897765,-0.574472,0.944350,1.999969
340,-200.442512,-66.834516,37.354086,-0.397833,0.626108,1.522118
341,-228.885328,-88.014038,39.917601,-0.066407,-0.243778,0.511604
342,-230.228122,-80.567636,46.387427,0.309087,-0.293095,1.176287
343,-240.848402,-61.280232,49.317159,0.928847,-0.121462,1.999969
344,-177.737087,-42.603189,24.963760,1.151507,-0.028809,1.999969
345,-121.705959,-14.709697,-1.586938,0.502571,-0.021973,1.679347
346,-121.583886,0.122072,-5.004959,-0.210819,-0.025269,1.272358
347,-124.513619,-0.244144,17.578393,-1.028580,0.049805,1.538720
348,-116.029603,-52.368963,35.889220,-0.588632,-0.341314,1.354025
349,-73.853666,-81.116960,27.283131,0.666270,0.241215,1.999969
350,-70.130465,-46.204318,2.502480,1.085832,-0.316899,1.999969
351,-11.779965,0.427253,-1.159686,-0.367926,0.126467,1.104143
352,-49.988556,-20.447089,7.629511,-0.284550,-0.036622,1.026017
353,-19.409476,-27.588312,-1.281758,0.375860,0.105348,1.286885
354,-33.569848,-5.371176,-0.610361,0.159426,0.044923,1.047501
355,-31.616693,3.540093,-0.244144,-0.014649,-0.010864,1.199481
356,-23.193713,5.188067,-0.671397,0.063722,-0.025147,1.111101
357,-19.653620,11.474784,1.647974,0.064088,-0.039063,1.152850
358,-10.864424,15.808347,2.014191,-0.008667,0.014405,1.038468
359,-13.183795,14.343481,3.356985,-0.004028,0.003052,1.016373
360,-10.742351,14.587625,3.662165,0.006958,0.020996,1.011124
361,-12.207218,14.038300,3.784237,-0.017334,0.002319,0.997208
362,-10.498207,12.573434,3.234913,-0.008545,0.002808,1.011612
363,-9.582666,11.779965,2.136263,-0.012329,0.031373,0.982071
364,-12.756542,11.474784,1.403830,-0.021241,0.006958,0.991104
365,-13.305867,11.474784,1.342794,-0.028565,0.002930,0.979263
366,-13.977264,10.315099,1.525902,-0.031861,-0.003784,1.003433
367,-13.794156,9.216449,1.525902,-0.022217,-0.000244,0.994888
368,-14.404517,8.972305,1.770047,-0.020630,-0.014527,1.010391
369,-13.366903,8.789197,1.770047,-0.016480,-0.010254,1.024186
370,-13.366903,9.216449,1.525902,-0.022583,-0.006348,1.006119
371,-13.855192,9.460594,1.403830,-0.026368,-0.007446,0.999161
372,-13.977264,8.972305,1.159686,-0.042359,-0.002441,0.971817
373,-15.320058,7.446403,1.098650,-0.056886,-0.028565,0.996597
374,-13.427939,5.371176,0.732433,-0.037110,-0.023316,0.984756
375,-13.733120,4.760815,0.915541,-0.028565,-0.026978,0.978164
376,-13.550011,4.150454,0.915541,-0.057496,-0.029664,0.971206
377,-13.733120,2.075227,1.037613,-0.046632,-0.036133,0.988418
378,-13.122759,1.037613,1.037613,-0.047120,-0.044678,1.007828
379,-11.413748,-0.305180,0.915541,-0.050904,-0.042969,1.010269
380,-10.742351,-1.464866,0.488289,-0.094972,0.013062,1.127092
381,-7.690547,-3.295949,0.915541,-0.018189,-0.061036,0.927016
382,-8.850233,-4.394598,-0.366217,-0.025513,-0.082643,0.953017
383,-5.798428,-5.371176,0.061036,-0.046998,-0.027832,0.984756
384,-8.484016,-5.798428,0.427253,-0.032715,-0.044923,1.004410
385,-8.484016,-5.859464,0.427253,-0.029908,-0.048219,1.010391
386,-7.873655,-5.737392,0.671397,-0.038453,-0.047730,1.002701
387,-7.751583,-5.615320,0.671397,-0.017823,-0.051637,1.012222
388,-7.202258,-4.760815,0.732433,-0.014282,-0.039918,1.005875
389,-8.484016,-3.906310,0.976577,-0.013672,-0.049439,1.028458
390,-7.629511,-2.258335,1.403830,-0.008057,-0.062013,1.025162
391,-6.469825,-0.854505,2.014191,-0.002686,-0.049317,1.007218
392,-7.141222,0.610361,2.319371,-0.029786,-0.044068,0.998428
393,-8.789197,0.671397,2.929732,-0.025147,-0.039551,1.001480
394,-10.193027,0.671397,3.540093,-0.020752,-0.037964,0.995743
395,-11.474784,0.671397,3.906310,-0.019776,-0.051881,0.999771
396,-11.779965,0.610361,4.150454,-0.021363,-0.047852,0.986954
397,-13.427939,0.061036,4.211490,-0.037964,-0.050172,0.982681
398,-14.587625,-0.854505,4.150454,-0.020264,-0.059937,0.980606
399,-15.869383,-1.281758,4.028382,-0.035157,-0.062135,0.977798
400,-17.883574,-2.624552,4.089418,-0.043458,-0.027832,0.953262
401,-23.376822,-4.760815,4.577707,-0.049561,-0.069947,0.983291
402,-23.010605,-6.347753,4.394598,-0.043091,-0.067262,0.984878
403,-25.024796,-7.568475,3.906310,-0.012085,-0.063355,1.045548
404,-26.001373,-6.652934,2.685588,-0.051514,-0.100099,0.999039
405,-22.949569,-7.385367,2.075227,-0.037476,-0.095583,1.038712
406,-19.714656,-5.493248,2.868696,-0.046021,-0.062867,0.973037
407,-26.550698,-7.141222,2.990768,-0.012940,-0.077882,1.009659
408,-26.001373,-7.385367,2.807660,-0.052857,-0.080201,0.982681
409,-28.076600,-9.216449,1.342794,-0.035767,-0.071168,0.993423
410,-30.518044,-10.315099,0.244144,-0.048341,-0.085451,0.961074
411,-32.959487,-12.695506,-2.380407,-0.032105,-0.099001,1.019181
412,-32.593271,-14.343481,-5.065995,-0.028687,-0.101442,0.994522
413,-36.804761,-17.273213,-8.667124,-0.035889,-0.113527,0.988907
414,-38.574807,-19.836728,-11.718929,-0.037598,-0.081300,0.956069
415,-42.847333,-22.217136,-12.451362,0.002686,-0.126589,1.019303
416,-43.518730,-19.409476,-11.108568,0.030030,-0.160037,1.056413
417,-41.931792,-16.052491,-10.131991,0.041138,-0.171267,1.044327
418,-42.664225,-13.672084,-8.789197,0.054078,-0.149905,1.031998
419,-45.960174,-10.009918,-7.263294,-0.010986,-0.059205,1.006607
420,-67.689021,-9.155413,-13.305867,0.023804,-0.075441,0.997330
421,-71.839475,-8.117800,-11.108568,0.052735,0.086183,0.869398
422,-97.901884,-5.310140,-7.080186,-0.054810,0.235233,0.817884
423,-154.238193,-10.742351,-14.831769,-0.053101,0.294804,0.651255
424,-208.926528,-8.911269,-24.109255,0.319585,-0.041382,0.888319
425,-209.903105,-21.301595,-26.489662,-0.178225,0.484504,1.146868
426,-370.794232,-20.691234,-42.359045,0.210330,0.256474,1.096452
427,-518.684672,-21.301595,-5.249104,-0.355718,0.357916,1.999969
428,-610.788129,-53.101396,-0.976577,-0.041138,-0.081300,1.263569
429,-693.797208,-57.373922,21.972992,-0.098512,-0.220340,1.168597
430,-742.137789,-72.999161,45.288777,-0.530159,-1.917632,1.999969
431,-741.283284,-29.053178,127.138170,-1.488182,-0.169436,1.999969
432,8.850233,-67.017624,4.028382,-0.716808,-0.214847,1.999969
433,261.478599,-26.123445,2.014191,-0.515755,0.849744,1.792630
434,-19.287404,-11.596857,21.789883,-0.300542,0.676646,1.399924
435,-80.750744,-15.136950,77.515831,-0.069947,0.193851,1.030167
436,54.261082,12.085145,33.875029,0.189578,0.435187,0.596201
437,10.376135,10.498207,22.400244,0.284672,0.653696,0.484016
438,-4.638743,8.422980,10.864424,0.270634,0.402472,0.903944
439,48.584726,0.000000,-7.507439,0.218265,0.563729,0.967544
440,56.153201,-13.427939,-17.212177,0.131960,0.550423,1.044327
441,84.901198,-23.682002,-24.902724,0.044312,0.481086,1.135515
442,115.297169,-27.588312,-30.334936,-0.033204,0.490242,1.096696
443,133.791104,-26.062409,-32.898451,-0.107912,0.412604,1.133440
444,157.473106,-20.508125,-32.898451,-0.217044,0.328862,1.190326
445,180.483711,-15.991455,-29.297322,-0.294072,0.265507,1.231708
446,202.822919,-11.963073,-22.827497,-0.361334,0.171633,1.299947
447,227.115282,-6.164645,-14.099336,-0.411505,0.066285,1.264424
448,246.707866,1.770047,-3.906310,-0.446418,-0.024537,1.202899
449,259.769589,10.620279,7.263294,-0.421027,-0.100343,1.150408
450,271.122301,18.005646,16.906996,-0.350835,-0.152224,1.054948
451,276.005188,23.132677,23.987182,-0.258793,-0.174075,1.065324
452,278.080415,27.038987,27.283131,-0.111818,-0.241947,0.954971
453,276.005188,31.860838,23.315785,0.062013,-0.332158,0.716442
454,257.022965,42.298009,16.418708,0.176516,-0.386114,0.646494
455,232.974746,48.462654,8.056764,0.148928,-0.408698,0.812757
456,219.119554,45.838102,1.770047,0.079347,-0.354253,1.052018
457,210.513466,41.077287,-3.784237,0.043702,-0.241947,1.540551
458,203.006027,43.823911,-5.188067,-0.066651,-0.321782,1.999969
459,222.781720,47.180896,-5.371176,-0.102785,-0.433967,1.999969
460,246.890974,51.148241,-5.981537,-0.116457,-0.578134,1.999969
461,248.599985,57.740139,-5.676356,-0.092164,-0.672374,1.685573
462,231.815061,61.341268,-4.455634,-0.109255,-0.751843,1.666163
463,222.354467,60.303655,-4.333562,-0.114137,-0.794690,1.938994
464,221.560998,62.439918,-3.112840,-0.155520,-0.818128,1.999969
465,233.463035,64.026856,-0.793469,-0.139895,-0.830213,1.999969
466,245.792325,67.444877,1.037613,-0.089845,-0.829480,1.961578
467,245.487144,73.975738,3.112840,-0.037476,-0.860975,1.647364
468,236.697948,75.928893,7.019150,-0.094728,-0.891249,1.526390
469,227.237354,69.031815,14.648661,-0.188479,-0.932143,1.543603
470,220.401312,59.327077,24.536507,-0.213016,-0.984756,1.628199
471,217.166400,53.284504,33.386740,-0.147219,-1.059831,1.593530
472,215.152209,53.528649,37.415122,-0.021729,-1.145159,1.289204
473,199.343862,57.251850,36.987869,0.131594,-1.259174,1.009415
474,173.830777,60.547799,34.241245,0.313115,-1.427878,0.876112
475,145.754177,58.777752,27.100023,0.578744,-1.654688,0.870619
476,119.508660,53.589685,12.756542,0.875868,-1.967193,0.782971
477,98.390173,50.782025,-7.568475,0.965591,-2.000031,0.412848
478,66.651408,43.274586,-23.559930,0.782361,-2.000031,-0.157473
479,22.095064,12.390326,-21.911955,0.458015,-2.000031,-0.360113
480,-27.893492,-32.349126,-11.657893,0.193118,-1.740139,0.084718
481,-53.040360,-62.561990,0.671397,-0.092287,-1.126116,0.531136
482,-182.864118,-69.886320,-15.014878,0.167605,-1.634913,-0.939101
483,-154.848554,-85.511559,5.920500,-0.452155,-0.332403,1.354879
484,-119.996948,-37.659266,15.197986,-0.468513,0.852674,1.265034
485,-157.473106,-46.753643,16.418708,-0.729503,0.832654,0.267826
486,-270.572976,-77.393759,42.786297,-0.360113,-0.054444,-0.013184
487,-307.804990,-83.985657,57.007706,0.183719,-0.403693,1.423362
488,-274.052033,-54.016938,52.368963,0.930922,-0.272953,1.999969
489,-211.734188,-18.616007,30.090791,1.311055,-0.131106,1.999969
490,-145.632105,9.216449,-1.892119,0.946670,0.029786,1.999969
491,-129.640650,39.307240,-18.371862,-0.065675,0.004150,1.601709
492,-129.518578,44.373236,0.671397,-1.226825,-0.048829,1.958282
493,-113.160906,-7.812619,26.489662,-1.212421,-0.623545,1.535912
494,-46.204318,-51.636530,33.813993,-0.209720,-0.127077,0.946426
495,-61.829557,-75.257496,35.645075,0.647349,0.172732,1.537743
496,-44.922560,-52.491035,20.874342,0.392950,0.069093,1.618433
497,-38.696880,-40.161746,15.075914,-0.161379,-0.130251,1.336568
498,-15.320058,-49.927520,13.305867,-0.147829,0.077028,1.062394
499,-25.879301,-52.979324,6.469825,0.320562,0.114015,1.231586
500,-25.696193,-34.607462,2.868696,0.105592,0.057740,1.231464
501,-23.743038,-28.015564,2.258335,-0.084596,-0.013672,1.041520
502,-18.005646,-26.550698,0.976577,0.151736,0.083375,1.125994
503,-23.254749,-14.343481,2.075227,0.068849,0.015015,1.062028
504,-20.752270,-7.202258,2.868696,-0.022461,0.024048,1.016617
505,-23.437858,-3.601129,3.356985,0.122072,0.033204,1.097917
506,-21.301595,4.638743,2.319371,0.043702,0.014893,1.102190
507,-19.409476,8.300908,2.258335,0.036988,-0.016236,1.104387
508,-12.451362,10.681315,1.709010,0.037720,0.008057,1.051530
509,-12.634470,11.535821,1.892119,-0.031006,0.019409,1.009171
510,-12.207218,9.338521,1.831083,-0.035889,0.020264,0.989395
511,-12.695506,7.446403,1.342794,-0.035401,0.031739,0.963760
512,-16.540780,5.188067,1.342794,-0.035767,-0.007568,1.015518
513,-13.122759,4.272526,1.159686,-0.015869,-0.011963,1.024186
514,-11.779965,4.516670,1.586938,-0.015747,0.006958,0.997818
515,-11.841001,3.662165,1.709010,-0.035035,-0.009888,0.999893
516,-10.986496,2.441444,1.464866,-0.024170,-0.013428,1.000015
517,-10.009918,1.953155,1.159686,-0.017456,-0.009155,1.004654
518,-9.521630,1.037613,1.220722,-0.019165,-0.016968,1.000504
519,-8.117800,0.854505,1.159686,-0.009522,-0.010010,0.986587
520,-9.643702,1.464866,0.488289,-0.051270,0.179690,1.260029
521,-10.742351,0.427253,0.671397,-0.036255,-0.053834,0.992935
522,-18.188754,-1.220722,0.671397,-0.016846,-0.017212,0.930800
523,-17.578393,-1.525902,1.159686,-0.017945,-0.010498,0.982315
524,-18.738079,-1.831083,1.159686,-0.014282,-0.025147,1.005142
525,-18.799115,-1.709010,1.586938,-0.017334,-0.037354,1.020401
526,-16.540780,-2.136263,1.464866,-0.024903,-0.036011,1.005020
527,-17.212177,-1.892119,0.061036,-0.033570,0.045045,1.180438
528,-12.939651,-2.624552,0.061036,-0.060792,-0.072999,1.154070
529,-15.930419,-4.760815,0.854505,-0.021241,-0.049928,0.977920
530,-13.000687,-5.432212,0.305180,-0.021607,-0.040894,0.987686
531,-12.817578,-5.798428,0.244144,-0.017700,-0.046754,1.022477
532,-12.085145,-5.615320,0.000000,-0.010498,-0.046265,1.020035
533,-11.657893,-3.723201,-1.159686,0.081666,-0.099489,0.919081
534,-9.399557,-3.662165,-0.915541,-0.037842,-0.046387,1.157000
535,-11.657893,-2.990768,0.793469,-0.006958,-0.033692,1.031510
536,-9.338521,-1.953155,0.854505,-0.000122,-0.044068,0.974258
537,-11.108568,-1.220722,1.220722,0.000366,-0.055543,0.996475
538,-11.413748,-0.488289,1.342794,-0.010864,-0.048219,1.003433
539,-12.207218,-0.732433,1.525902,-0.006592,-0.042115,0.983169
540,-13.794156,-1.709010,1.709010,-0.019287,-0.038331,0.974990
541,-16.418708,-3.295949,1.586938,-0.012818,-0.049317,0.981094
542,-17.822538,-4.516670,1.770047,0.004395,-0.052979,0.954971
543,-21.179522,-4.577707,1.831083,-0.029175,-0.052247,0.981582
544,-20.752270,-5.981537,1.709010,-0.019532,-0.041749,0.995377
545,-22.400244,-6.408789,1.770047,-0.009522,-0.054566,0.976089
546,-25.635157,-5.432212,3.356985,0.019776,-0.059571,1.006241
547,-29.114214,-3.295949,4.943923,0.009522,-0.096071,1.003311
548,-26.977951,-1.892119,5.615320,-0.015015,-0.076295,1.008804
549,-28.564889,-1.464866,6.469825,0.015747,-0.072145,1.035416
550,-29.907683,-0.610361,6.225681,-0.041382,-0.085084,0.982681
551,-28.259709,-3.540093,5.004959,-0.063966,-0.060304,0.968032
552,-33.081559,-6.652934,3.662165,-0.002808,-0.049683,0.998062
553,-38.818952,-7.568475,1.403830,-0.042115,-0.081056,0.985245
554,-37.964446,-9.765774,-1.281758,0.026001,-0.083619,0.995377
555,-39.795529,-7.934691,0.183108,-0.020264,-0.072999,1.066056
556,-42.114900,-9.460594,-2.624552,0.002197,-0.097902,0.948989
557,-47.058824,-10.131991,-4.028382,-0.022339,-0.118410,1.014420
558,-44.251164,-11.535821,-7.019150,-0.064088,-0.207034,1.172747
559,-46.509499,-10.803388,-11.718929,-0.020142,-0.172000,1.000137
560,-46.082246,-11.535821,-9.521630,0.003662,-0.193362,1.042985
561,-46.082246,-9.948882,-8.239872,0.000122,-0.174197,1.034684
562,-49.744411,-9.948882,-9.277485,0.072389,-0.210330,1.076555
563,-44.007019,-6.591897,-6.103609,0.026734,-0.162600,1.034073
564,-52.796216,-4.699779,-9.582666,-0.007813,-0.117067,0.994400
565,-61.890593,-6.652934,-16.479744,0.012085,-0.004639,0.918227
566,-77.027543,-6.530861,-15.320058,0.075074,0.100221,0.837903
567,-118.898299,-5.004959,-11.535821,-0.089967,0.361700,0.820935
568,-181.582361,-9.765774,-15.625238,0.219242,0.121096,0.875013
569,-206.546120,-2.929732,-19.836728,-0.068605,0.503548,1.164446
570,-330.510414,-21.728847,-41.565576,0.107057,0.492805,1.721706
571,-513.313497,-12.573434,0.915541,-0.272831,0.307134,1.896635
572,-612.008850,-30.457008,8.484016,-0.161990,-0.112306,1.169574
573,-694.041352,-33.752956,23.010605,0.062623,-0.363165,1.165789
574,-739.757382,-53.162432,38.452735,-0.176150,-0.974380,1.485130
575,-794.323644,-49.561303,146.425574,-1.337789,-0.626352,1.999969
576,-198.428321,-85.206378,12.634470,-0.850477,-1.263325,1.999969
577,209.414817,-63.965820,1.831083,-0.645151,0.558480,1.999969
578,17.578393,-37.537194,4.943923,-0.441657,0.875624,1.999969
579,-106.935225,-46.387427,75.135424,-0.257084,0.358038,1.644312
580,41.382467,-10.070954,49.011978,0.039918,0.284794,1.383078
581,71.900511,7.019150,28.870069,0.139284,0.732921,0.529549
582,11.963073,11.291676,21.118486,0.244755,0.422736,0.754772
583,54.444190,16.845960,1.586938,0.230106,0.411017,0.867201
584,72.205692,6.836042,-11.596857,0.219852,0.531868,0.915908
585,83.131151,-12.512398,-18.738079,0.081056,0.391852,1.126360
586,124.818799,-31.067369,-24.414435,0.017090,0.391485,1.078508
587,143.617914,-41.687648,-27.466239,-0.002808,0.369757,0.988052
588,159.975586,-39.002060,-31.738766,-0.020264,0.299809,0.973648
589,175.600824,-26.672770,-36.499580,-0.061280,0.285405,1.010513
590,187.441825,-12.268254,-39.368276,-0.135378,0.209354,1.103899
591,205.691615,1.220722,-39.185168,-0.205814,0.143069,1.222309
592,224.734875,12.085145,-35.461967,-0.267582,0.056031,1.248432
593,244.083314,19.470512,-28.503853,-0.264164,-0.019532,1.227802
594,260.868238,23.376822,-20.630198,-0.218143,-0.081910,1.135393
595,271.122301,22.644388,-13.000687,-0.165042,-0.139406,1.097429
596,277.225910,20.630198,-8.361944,-0.105837,-0.132448,1.274556
597,285.465782,23.010605,-6.530861,-0.030518,-0.165042,1.307271
598,292.118715,32.654307,-10.070954,0.050904,-0.234379,1.149187
599,282.169833,51.270314,-17.334249,0.122683,-0.427131,0.829236
600,261.539635,70.923934,-21.484703,0.152834,-0.474861,0.659068
601,232.364385,68.909743,-23.865110,0.162112,-0.432258,0.786511
602,215.274281,54.383154,-27.588312,0.232914,-0.321172,1.129656
603,202.639811,46.692607,-33.997101,0.237064,-0.180423,1.728908
604,196.902419,53.711757,-40.405890,0.198489,-0.202396,1.999969
605,219.180591,68.482490,-44.983597,0.112795,-0.381231,1.999969
606,251.163500,78.675517,-46.265354,0.031006,-0.562875,1.999969
607,255.680171,78.370336,-39.734493,-0.056764,-0.649668,1.999969
608,251.468681,68.482490,-29.236286,-0.087037,-0.725963,1.999969
609,262.516213,56.092164,-20.508125,-0.033936,-0.738781,1.999969
610,280.338750,51.392386,-16.235599,0.097536,-0.764050,1.999969
611,286.259251,53.650721,-16.540780,0.220096,-0.785657,1.864408
612,280.338750,54.871443,-20.569162,0.261601,-0.800671,1.610864
613,266.727703,52.246891,-25.452049,0.229740,-0.839124,1.532860
614,254.886702,47.852293,-30.273899,0.180911,-0.885267,1.536767
615,243.472953,48.157473,-34.485389,0.150149,-0.968887,1.509667
616,230.472267,55.420768,-37.964446,0.157351,-1.103288,1.381003
617,212.771801,65.064469,-40.527962,0.212161,-1.315572,1.186297
618,187.991150,72.816052,-42.908370,0.393927,-1.606226,1.012100
619,154.726482,81.239033,-49.134051,0.620493,-2.000031,1.038224
620,124.208438,97.779812,-57.068742,0.659068,-2.000031,0.862562
621,103.822385,103.028916,-62.439918,0.836072,-2.000031,-0.300786
622,66.590372,51.636530,-54.871443,0.669200,-2.000031,-0.948867
623,-14.831769,-33.142596,-30.518044,0.443610,-2.000031,-0.542000
624,-57.862211,-97.230488,-9.765774,0.192142,-1.590723,0.462654
625,-69.520104,-117.677577,3.723201,-0.110475,-1.183001,1.127092
626,-76.478218,-100.709545,15.747311,-0.423590,-0.952163,1.492699
627,-50.110628,-76.478218,20.813306,0.022461,0.310918,-1.648219
628,-111.451896,-23.132677,11.963073,-0.758679,1.140032,1.505028
629,-157.228962,-51.697566,23.743038,-0.801770,0.092531,-0.015503
630,-132.631418,-69.520104,40.527962,-0.688243,0.900526,-0.626230
631,-298.466468,-86.060884,58.960861,-0.250614,-0.120851,0.070924
632,-333.745327,-83.253223,83.375296,0.749401,-0.390021,1.322286
633,-265.690089,-61.890593,51.209277,1.560204,-0.129763,1.999969
634,-239.017319,-8.545052,23.071641,1.427146,-0.091066,1.999969
635,-170.473793,8.545052,-10.131991,0.898573,-0.092042,1.999969
636,-143.312734,43.274586,-21.850919,-0.468391,-0.042115,1.995758
637,-145.632105,33.325704,15.747311,-1.704005,-0.129641,1.999969
638,-103.089952,-27.466239,39.002060,-0.910292,-0.582895,1.151385
639,-55.725948,-70.008392,44.617380,0.171511,0.282353,1.422507
640,-67.933165,-69.520104,34.790570,0.816907,0.068605,1.574975
641,-37.659266,-52.796216,20.141909,-0.064454,0.070314,1.630396
642,-34.729534,-58.899825,17.761501,-0.300664,-0.078004,0.918471
643,-29.541466,-71.534295,13.061723,0.263188,0.264652,1.290059
644,-46.021210,-50.843061,5.249104,0.432136,-0.018067,1.350729
645,-35.645075,-27.161059,2.014191,-0.018799,-0.015259,1.278218
646,-31.921874,-23.071641,3.479057,0.017578,-0.012818,1.192035
647,-25.818265,-13.733120,2.502480,0.207401,0.005982,1.220600
648,-21.362631,-0.244144,3.356985,0.006592,0.042969,1.019303
649,-25.757229,2.624552,3.906310,0.006958,0.041627,1.070573
650,-22.278172,2.441444,3.601129,-0.012451,-0.007202,1.048478
651,-18.432898,2.441444,2.868696,0.005859,0.028809,1.030411
652,-19.714656,2.502480,2.502480,-0.013184,0.014160,1.000504
653,-19.714656,1.281758,1.647974,-0.008911,0.002808,1.043107
654,-16.540780,0.732433,1.037613,-0.022583,0.000122,1.026139
655,-15.197986,-0.427253,1.159686,-0.023316,-0.006226,1.018814
656,-12.878614,-1.525902,1.159686,-0.025147,-0.027222,1.046647
657,-8.850233,-2.563516,0.854505,-0.029908,-0.014893,1.016495
658,-6.897078,-3.967346,0.671397,-0.102785,0.129519,1.256733
659,-3.540093,-7.629511,1.770047,-0.040894,0.021973,0.893568
660,-12.207218,-11.352712,0.549325,-0.038941,-0.029175,0.889418
661,-10.376135,-14.648661,0.061036,-0.022339,0.020142,0.975723
662,-13.061723,-15.930419,0.000000,-0.008423,0.000122,1.013931
663,-13.000687,-14.282444,-3.295949,0.039307,-0.284184,0.629648
664,-10.742351,-16.540780,-0.183108,-0.002441,0.021607,1.093889
665,-13.366903,-15.869383,1.770047,0.006958,-0.030152,1.002335
666,-11.841001,-14.587625,2.014191,0.036988,-0.000855,1.011734
667,-11.047532,-12.573434,2.441444,0.024659,-0.021241,1.035172
668,-9.765774,-10.803388,1.831083,0.007202,-0.025391,1.024674
669,-8.850233,-10.376135,1.525902,0.015503,-0.046998,1.010758
670,-7.141222,-7.995727,-1.770047,0.072023,-0.233524,0.699474
671,-3.723201,-9.338521,0.000000,0.043458,0.038941,1.046769
672,-6.286717,-8.850233,1.098650,0.015137,-0.008911,1.051408
673,-3.234913,-9.155413,0.671397,0.015869,-0.009033,0.975967
674,-6.897078,-9.460594,0.915541,0.029175,-0.010132,0.987686
675,-7.141222,-8.728161,0.549325,0.021973,-0.014160,1.001480
676,-7.690547,-8.361944,0.671397,0.027344,-0.039429,0.989273
677,-8.056764,-7.751583,0.915541,0.031128,-0.058473,1.009415
678,-7.263294,-6.652934,1.342794,0.047852,-0.063844,0.980606
679,-8.789197,-5.859464,1.770047,0.034180,-0.051026,0.981338
680,-6.897078,-5.554284,1.342794,0.007935,-0.017334,0.980972
681,-9.521630,-6.713970,1.831083,0.014771,-0.003784,0.985245
682,-11.535821,-8.300908,1.342794,0.018433,-0.020142,0.966201
683,-13.916228,-9.216449,0.915541,0.042237,-0.022095,0.987076
684,-15.686275,-9.643702,0.244144,0.025635,-0.027710,0.985977
685,-17.151141,-9.338521,0.183108,0.042237,-0.011597,1.016251
686,-18.677043,-8.178836,0.305180,0.039429,-0.034791,1.011856
687,-19.836728,-6.958114,0.671397,0.032837,-0.034424,1.001358
688,-23.010605,-6.286717,1.342794,0.047242,-0.023682,0.991226
689,-27.344167,-5.981537,1.709010,0.051637,-0.038575,1.000137
690,-30.518044,-5.432212,2.075227,0.028687,-0.044068,0.998184
691,-29.297322,-4.638743,2.380407,0.052003,-0.031983,1.002823
692,-33.997101,-2.624552,3.418021,0.041382,-0.080812,1.029679
693,-33.081559,-1.464866,4.760815,0.045167,-0.119631,1.021500
694,-28.931106,-0.549325,6.591897,0.031006,-0.037354,0.980728
695,-32.288090,0.366217,7.568475,0.037476,0.020752,0.968887
696,-47.913329,-1.586938,6.469825,0.022705,-0.056153,0.985855
697,-45.593957,-0.366217,3.418021,0.026856,-0.061036,1.005020
698,-50.293736,-0.244144,1.831083,0.034302,-0.071901,1.002701
699,-54.016938,0.183108,0.976577,0.032471,-0.113161,1.012589
700,-50.904097,0.610361,0.915541,0.031617,-0.063233,1.031022
701,-48.523690,-1.037613,-1.342794,0.050538,-0.067262,1.012100
702,-58.777752,0.671397,-6.713970,0.015015,-0.067140,0.920302
703,-62.684062,0.183108,-9.033341,0.066285,-0.223880,1.023453
704,-41.565576,-0.915541,-5.004959,0.088869,-0.195071,1.086198
705,-37.048905,1.037613,-8.300908,0.094728,-0.236332,1.062638
706,-36.987869,5.859464,-2.868696,0.121462,-0.156863,1.038834
707,-49.988556,12.573434,-2.624552,0.040284,-0.004517,0.979141
708,-63.355459,11.352712,-6.103609,0.047730,0.132815,0.876722
709,-107.118334,17.700465,-7.812619,0.035401,0.289433,0.821302
710,-161.196307,11.352712,-12.756542,-0.055665,0.305547,0.655650
711,-230.228122,2.990768,-12.756542,-0.043702,0.148562,0.611215
712,-268.497749,-28.076600,-26.062409,-0.134279,0.825208,0.837293
713,-481.757839,-44.007019,11.841001,-0.035767,0.357061,1.206439
714,-604.440375,-76.844434,51.880674,-0.077272,-0.030396,1.559228
715,-676.035706,-116.029603,43.030442,-0.053712,-0.242191,1.600488
716,-749.462120,-136.110475,54.505226,0.048096,-0.266972,0.987930
717,-796.643015,-126.039521,102.113375,0.133913,-2.000031,1.999969
718,-446.784161,-70.740826,81.361105,-0.971572,-1.461204,1.999969
719,217.898833,-40.466926,-19.287404,-0.327520,0.828626,1.999969
720,216.372931,18.799115,-52.552071,0.034546,1.348165,1.385397
721,-1.159686,6.225681,12.634470,-0.610605,0.793469,0.946059
722,7.873655,-14.465553,31.921874,-0.250492,0.090455,0.665049
723,105.958648,-2.014191,10.070954,-0.158206,0.425544,0.059449
724,36.072328,-9.399557,12.085145,0.007935,0.417731,0.199344
725,36.133364,-2.929732,4.699779,0.029908,0.285771,0.624277
726,69.947356,2.380407,-9.399557,0.060060,0.476936,0.658946
727,64.332036,3.112840,-18.432898,0.028199,0.427253,0.892714
728,91.126879,4.760815,-26.794842,-0.029175,0.390021,1.085832
729,118.410010,3.234913,-32.043946,-0.102174,0.404913,1.141497
730,139.223316,2.868696,-32.837415,-0.162722,0.335210,1.226093
731,166.079194,6.347753,-31.616693,-0.210208,0.267094,1.270283
732,189.700160,13.855192,-27.893492,-0.251713,0.200198,1.269184
733,207.278553,22.705425,-20.935378,-0.281865,0.108156,1.314717
734,228.152895,32.349126,-12.024109,-0.271855,0.016968,1.289937
735,245.731289,38.391699,-2.380407,-0.210941,-0.044434,1.195819
736,257.572290,40.527962,6.347753,-0.123659,-0.092042,1.129778
737,266.666667,41.443503,12.085145,-0.006836,-0.102907,1.116838
738,270.450904,43.457694,14.404517,0.117678,-0.077760,1.164691
739,273.502708,46.387427,11.963073,0.285283,-0.084474,1.210956
740,274.296178,47.974365,2.441444,0.479133,-0.131838,1.257588
741,274.906539,49.988556,-14.770733,0.541878,-0.164431,1.412253
742,274.479286,51.819638,-33.142596,0.532967,-0.246342,1.503929
743,274.967575,54.871443,-49.683375,0.487190,-0.349248,1.552636
744,271.061265,60.975052,-62.928206,0.344244,-0.485969,1.536400
745,264.591440,66.590372,-69.153887,0.174319,-0.587045,1.419455
746,253.177691,68.360418,-69.703212,0.037598,-0.602304,1.368673
747,234.500649,69.398032,-65.735866,-0.082155,-0.598276,1.497337
748,219.668879,70.923934,-57.557031,-0.216922,-0.581552,1.804593
749,214.175631,72.327764,-47.486076,-0.279423,-0.573129,1.999969
750,223.147936,76.966506,-36.987869,-0.239139,-0.633188,1.999969
751,246.341650,85.145342,-29.236286,-0.109255,-0.683848,1.999969
752,260.074769,92.591745,-23.926146,0.039918,-0.707286,1.992462
753,254.093233,98.451209,-19.897765,0.171023,-0.728283,1.685206
754,239.200427,102.174411,-15.259022,0.273930,-0.791882,1.564233
755,226.993210,98.756390,-7.629511,0.314214,-0.857191,1.521630
756,217.044327,79.896239,3.784237,0.300420,-0.944106,1.456443
757,210.147250,47.058824,14.648661,0.225467,-1.100969,1.408835
758,205.264363,18.249790,20.508125,0.274296,-1.305562,1.281392
759,189.822232,7.568475,15.991455,0.508553,-1.619043,1.148943
760,160.769055,17.212177,-5.065995,0.748547,-2.000031,0.952773
761,133.424887,51.636530,-30.823224,0.873426,-2.000031,0.376593
762,105.836576,69.459068,-54.077974,0.624643,-2.000031,-0.488045
763,43.274586,30.273899,-37.842374,0.269413,-2.000031,-0.903578
764,-25.391012,-47.608148,-1.403830,-0.004395,-1.829618,-0.323003
765,-56.641489,-113.649195,35.034714,-0.133547,-1.309346,0.563241
766,-157.595178,-167.483024,27.771420,0.570687,-2.000031,-0.777478
767,-257.633326,-131.471733,42.114900,0.021729,-1.845121,0.046876
768,-173.464561,-74.769207,44.312200,-0.379278,-0.425177,0.918837
769,-164.553292,-78.309300,48.035401,-0.302251,0.963272,1.829129
770,-243.228809,-77.454795,53.711757,0.101930,0.596445,1.430930
771,-291.569390,-82.032502,50.110628,0.562631,-0.432868,0.879774
772,-277.836271,-65.613794,49.256123,1.115862,-0.379034,1.594629
773,-270.817121,-43.335622,29.907683,1.310567,-0.069459,1.999969
774,-208.560311,2.624552,2.136263,0.389532,-0.450813,1.999969
775,-128.969253,10.559243,6.836042,-0.989517,-0.226810,1.999969
776,-125.123980,-36.072328,31.006332,-1.059464,-0.414923,1.670924
777,-82.398718,-79.774166,25.818265,0.956680,-0.012818,1.999969
778,-41.382467,-17.639429,-2.380407,1.500389,-0.059083,1.999969
779,-23.071641,41.870756,-3.418021,-0.444709,-0.097902,1.224262
780,-18.677043,9.765774,7.507439,-0.540902,-0.104616,0.835096
781,-7.934691,-13.427939,1.647974,0.340948,0.185794,1.122087
782,-23.743038,2.197299,-0.122072,0.032471,0.027588,1.009659
783,-21.362631,-0.671397,1.220722,-0.178836,-0.036622,1.032364
784,-13.061723,-8.667124,0.183108,0.033692,0.037110,0.990860
785,-17.944610,-5.432212,0.793469,0.043702,0.001709,1.130755
786,-9.887846,-5.249104,0.793469,-0.073243,-0.040894,1.055680
787,-2.990768,-9.338521,0.000000,0.010376,0.035645,1.019547
788,-5.188067,-8.117800,0.000000,0.018799,0.032959,0.967910
789,-7.751583,-6.469825,0.183108,0.026978,0.016724,1.018204
790,-6.713970,-4.211490,0.854505,0.040650,0.012085,1.031754
791,-6.164645,-1.770047,1.403830,0.013306,0.033204,0.962417
792,-9.521630,-2.441444,2.319371,0.009644,0.032593,0.961318
793,-11.902037,-3.784237,2.197299,-0.030030,0.017945,0.953017
794,-14.160372,-6.469825,1.770047,-0.038575,0.017212,0.966445
795,-16.113527,-8.667124,1.037613,-0.019898,-0.003784,0.993301
796,-14.404517,-10.193027,0.549325,-0.033936,0.010498,1.008560
797,-13.611048,-12.756542,0.976577,0.031128,0.124636,0.943374
798,-13.183795,-11.108568,0.366217,0.030640,-0.015259,1.026139
799,-11.902037,-8.789197,-0.183108,0.016114,-0.011475,1.054459
800,-12.085145,-7.385367,0.244144,0.021851,-0.012573,1.034928
801,-10.864424,-5.249104,0.549325,0.024903,-0.018677,1.029068
802,-10.193027,-3.051804,-0.976577,-0.047730,-0.048829,1.052140
803,-7.568475,-2.197299,2.136263,0.027222,0.040528,1.025650
804,-8.850233,-1.159686,2.380407,0.008545,-0.017945,1.019913
805,-8.117800,-1.709010,2.197299,0.001465,-0.014038,0.969375
806,-8.667124,-3.051804,2.319371,-0.001587,-0.005859,0.977066
807,-9.155413,-4.699779,1.770047,-0.009644,-0.018311,0.961563
808,-9.521630,-6.897078,1.525902,-0.005371,0.000977,0.996841
809,-10.681315,-7.995727,1.403830,0.005249,-0.023072,0.995621
810,-10.803388,-8.484016,1.159686,0.004273,-0.020020,0.993057
811,-10.864424,-9.216449,1.037613,-0.008423,-0.032837,0.978286
812,-12.024109,-10.315099,0.671397,0.022583,-0.034791,0.982559
813,-12.451362,-10.009918,0.793469,0.037842,-0.024048,1.006119
814,-13.122759,-8.789197,0.793469,0.036988,-0.030762,1.012222
815,-14.038300,-7.690547,1.098650,0.028687,-0.031739,1.004654
816,-15.503166,-6.469825,1.159686,0.041138,-0.028809,1.007218
817,-16.540780,-5.371176,1.647974,0.054566,-0.025269,1.017350
818,-17.761501,-3.662165,1.831083,0.014405,-0.031128,0.973404
819,-20.141909,-4.272526,2.075227,0.037232,-0.036378,0.992325
820,-20.874342,-3.906310,1.709010,0.035401,-0.050172,1.004532
821,-20.508125,-3.295949,1.892119,0.037110,-0.050416,1.011856
822,-20.263981,-2.136263,2.136263,0.036500,-0.047242,1.024552
823,-21.057450,-1.159686,2.685588,0.027100,-0.035523,1.003067
824,-21.972992,-0.549325,2.441444,0.042847,-0.057496,1.010636
825,-22.034028,0.610361,2.075227,0.042359,-0.064942,1.013199
826,-22.583352,1.159686,3.051804,0.061402,-0.071656,1.028702
827,-21.667811,2.014191,3.112840,0.018067,-0.056641,0.965103
828,-24.353399,1.159686,3.112840,0.027344,-0.028443,0.961807
829,-28.625925,0.793469,2.502480,0.006470,-0.051148,0.957290
830,-31.799802,-0.671397,1.892119,0.028687,-0.045167,0.968887
831,-34.912642,0.183108,2.380407,0.053712,-0.034058,0.977432
832,-45.471885,1.403830,4.882887,0.004639,-0.145876,0.976333
833,-36.865797,2.685588,6.469825,0.061402,-0.127443,1.049332
834,-38.086519,4.760815,8.606088,0.032349,-0.115236,1.100114
835,-36.072328,7.568475,8.056764,0.020630,-0.135256,1.002945
836,-35.034714,6.530861,7.141222,-0.006470,-0.072633,1.031510
837,-36.865797,5.859464,4.150454,-0.031006,-0.081544,1.014542
838,-40.222782,2.380407,0.793469,-0.014405,-0.097780,0.972671
839,-39.612421,1.831083,-2.563516,0.054810,-0.215702,0.911391
840,-38.330663,-0.427253,-3.784237,-0.130861,-0.214603,1.063493
841,-42.786297,-5.371176,-10.620279,-0.021607,-0.148806,0.982437
842,-46.021210,-4.333562,-10.620279,0.080446,-0.223026,1.062150
843,-37.476158,-3.112840,-3.112840,0.001099,-0.231205,1.053971
844,-38.696880,-1.647974,-5.737392,0.054932,-0.198489,1.078630
845,-36.316472,-1.220722,-7.690547,0.047120,-0.164309,1.040055
846,-45.410849,1.159686,-10.254063,0.002564,0.028809,0.941909
847,-64.148928,-0.488289,-11.718929,0.031983,0.135866,0.844373
848,-109.681849,5.554284,-16.052491,0.010132,0.262821,0.866957
849,-154.665446,-0.671397,-18.616007,-0.103517,0.342046,0.831189
850,-228.152895,-7.751583,-34.241245,0.038087,0.100221,0.602548
851,-267.582208,-29.785611,-47.669184,-0.137575,0.811292,1.039445
852,-469.672694,-32.166018,-29.297322,0.061036,0.428962,1.202289
853,-607.431144,-62.012665,13.733120,-0.209964,-0.098512,1.774075
854,-663.950561,-107.057298,2.807660,-0.026246,-0.393317,1.405051
855,-731.578546,-127.565423,21.850919,0.003784,-0.289433,0.983780
856,-787.853819,-117.860685,78.553445,-0.004883,-2.000031,1.999969
857,-446.478981,-70.191501,58.777752,-0.914931,-1.552758,1.999969
858,178.103304,-39.673457,-40.466926,-0.351446,0.694102,1.999969
859,198.001068,23.559930,-63.904784,0.086915,1.121965,1.439475
860,-6.103609,17.029068,-5.615320,-0.579599,0.882948,1.202899
861,0.183108,4.028382,11.413748,-0.268315,0.198123,0.832776
862,100.404364,23.682002,-5.249104,-0.118044,0.394781,0.061158
863,36.560616,13.061723,-2.746624,0.007568,0.416022,0.176272
864,28.076600,10.193027,-5.004959,0.022461,0.244633,0.591196
865,68.787671,8.484016,-14.282444,0.062135,0.441413,0.649912
866,67.505913,1.709010,-19.470512,0.038819,0.454719,0.880751
867,93.629358,-0.183108,-24.658579,-0.006104,0.423102,1.114397
868,126.466773,0.915541,-30.151827,-0.034913,0.436286,1.148943
869,146.974899,4.821851,-31.555657,-0.090944,0.360479,1.171405
870,173.769741,11.718929,-32.166018,-0.144167,0.246830,1.108049
871,193.728542,20.935378,-29.480430,-0.201785,0.161990,0.995254
872,204.959182,30.334936,-23.804074,-0.249027,0.053712,1.027726
873,216.128786,38.818952,-14.831769,-0.279667,-0.038575,1.095354
874,228.397040,45.410849,-4.516670,-0.274907,-0.111330,1.154192
875,239.810788,49.683375,6.286717,-0.200320,-0.159060,1.192523
876,249.820707,52.368963,14.282444,-0.062379,-0.190677,1.201801
877,256.717784,54.810407,16.540780,0.131106,-0.241825,1.162615
878,261.173419,56.275273,11.718929,0.249271,-0.282597,1.126604
879,259.891661,55.848020,3.906310,0.377813,-0.256596,1.191547
880,255.802243,54.566262,-6.897078,0.447150,-0.295903,1.307515
881,256.412604,54.322118,-19.348440,0.456672,-0.322148,1.425193
882,254.886702,53.406577,-31.006332,0.406500,-0.368414,1.579736
883,258.915084,53.406577,-39.612421,0.324956,-0.412970,1.705226
884,264.225223,55.237659,-44.556344,0.190921,-0.446906,1.679347
885,265.568017,52.674144,-45.532921,0.134157,-0.487190,1.667262
886,264.103151,52.735180,-45.349813,0.113283,-0.491951,1.588891
887,257.694362,56.519417,-45.960174,0.119631,-0.515999,1.575586
888,246.829938,62.745098,-47.119860,0.130129,-0.538216,1.631373
889,239.139391,66.956588,-48.889906,0.144045,-0.508675,1.728786
890,233.707179,67.750057,-51.209277,0.172976,-0.500984,1.836698
891,231.876097,70.801862,-54.077974,0.182132,-0.491829,1.864286
892,228.152895,71.656367,-55.237659,0.124147,-0.512459,1.818143
893,222.354467,70.252537,-52.979324,0.020874,-0.588998,1.749538
894,212.649729,68.421454,-46.387427,-0.102663,-0.664805,1.717189
895,200.381476,67.689021,-36.926833,-0.160159,-0.790051,1.827787
896,192.507820,77.027543,-25.085832,-0.216678,-0.992081,1.796780
897,188.784619,87.220569,-12.817578,-0.188846,-1.225116,1.699001
898,171.694514,97.474632,-0.183108,0.004517,-1.595850,1.680934
899,149.965667,108.400092,7.385367,0.342901,-2.000031,1.759548
900,137.575341,133.974212,9.277485,0.478035,-2.000031,1.552270
901,144.716564,181.704433,4.211490,0.631968,-2.000031,0.414923
902,123.537041,186.831464,16.906996,0.453254,-2.000031,-1.014054
903,28.625925,109.193561,48.950942,0.371466,-2.000031,-1.685451
904,-58.167391,-17.273213,79.224842,0.463142,-1.780301,-0.995621
905,-105.043107,-110.658427,91.676204,0.675669,-1.325948,-0.381842
906,-211.795224,-184.267948,18.005646,1.840116,-1.056901,0.544076
907,-187.258717,-106.385901,24.231327,0.343267,0.262333,1.329122
908,-94.300755,-138.490883,-8.422980,-0.193240,0.950698,1.973541
909,-115.480278,-145.326925,-12.878614,-0.692515,0.927626,1.295796
910,-230.533303,-81.300069,15.991455,-0.928847,-0.018189,-0.715831
911,-288.944839,-101.319905,41.565576,-0.223270,-0.384405,-0.515633
912,-341.557946,-111.940185,54.444190,0.865370,-0.184817,1.999969
913,-303.166247,-62.684062,35.828183,1.418479,-0.483040,1.999969
914,-153.933013,-16.296635,-5.065995,0.776501,-0.203006,1.999969
915,-182.375830,-7.263294,20.447089,-1.264546,-0.049195,1.999969
916,-142.275120,-48.584726,36.865797,-1.160906,-1.095232,1.778103
917,-26.977951,-106.813153,41.443503,0.335943,0.056519,1.737697
918,-62.073701,-73.548486,29.968719,1.820829,0.213016,1.999969
919,-9.155413,13.000687,2.685588,0.216434,0.031373,1.301656
920,-34.302281,7.080186,9.704738,-0.976333,-0.202152,0.619150
921,-21.606775,-39.856565,11.841001,0.136599,0.183597,1.148821
922,-30.334936,-26.062409,-0.305180,0.484138,0.074342,1.236347
923,-29.968719,-6.713970,-1.281758,-0.242557,-0.039063,1.133684
924,-24.048219,-17.151141,-1.525902,-0.001343,-0.040162,1.123919
925,-15.564202,-10.681315,-1.281758,0.187625,-0.013794,1.245624
926,-11.291676,2.136263,1.159686,-0.014160,-0.054200,1.110613
927,-3.356985,3.051804,1.770047,-0.022950,0.015137,0.991226
928,-6.958114,3.418021,2.685588,0.036988,0.034546,1.007218
929,-8.484016,4.760815,2.563516,-0.052247,0.007568,0.994888
930,-7.751583,1.953155,2.197299,-0.018067,0.010010,1.002213
931,-7.019150,1.281758,1.464866,0.001709,0.012451,1.014908
932,-6.958114,1.281758,1.220722,-0.036133,-0.002686,0.997818
933,-5.920500,0.061036,1.037613,-0.032837,0.014282,0.979141
934,-8.667124,-0.488289,0.671397,-0.018921,0.004883,1.007462
935,-7.751583,-0.244144,0.793469,-0.013672,-0.008423,1.017350
936,-7.080186,0.610361,1.098650,-0.003784,-0.007202,1.018448
937,-6.103609,1.281758,1.220722,-0.011597,0.007568,0.994278
938,-7.568475,1.098650,1.159686,-0.010742,-0.000488,1.001358
939,-7.629511,0.976577,0.671397,-0.011231,-0.005859,1.006363
940,-7.385367,0.793469,0.671397,-0.024292,0.001831,0.979873
941,-8.361944,-0.305180,0.793469,-0.062379,0.010010,0.954360
942,-10.254063,-1.647974,0.854505,-0.006836,-0.002808,1.012589
943,-9.094377,-0.427253,0.671397,-0.000610,-0.000855,0.997696
944,-11.047532,1.342794,1.586938,-0.010010,-0.024292,1.026383
945,-9.033341,2.807660,2.075227,-0.012573,-0.014893,1.018570
946,-9.765774,4.028382,2.746624,-0.007446,-0.028199,1.030777
947,-6.958114,4.821851,3.051804,-0.024170,-0.011841,1.002457
948,-7.507439,3.967346,3.051804,-0.038209,-0.015503,0.976089
949,-8.056764,1.831083,2.685588,-0.039796,-0.021118,0.987808
950,-8.117800,-0.549325,2.258335,-0.049073,-0.023438,0.977432
951,-7.751583,-2.685588,1.159686,-0.127443,0.151125,1.406516
952,-4.272526,-4.760815,1.709010,-0.027955,-0.055543,0.952773
953,-11.230640,-6.897078,0.854505,-0.018189,-0.086061,0.946548
954,-5.493248,-6.836042,0.976577,-0.020386,-0.021241,0.996597
955,-7.080186,-7.202258,1.342794,-0.023682,-0.018677,1.007950
956,-7.934691,-7.629511,1.037613,-0.001709,-0.025147,0.998428
957,-8.056764,-7.568475,0.732433,-0.058961,0.027955,1.113909
958,-5.554284,-10.254063,2.197299,0.056397,0.018433,0.807019
959,-12.390326,-10.009918,0.854505,0.015747,-0.078126,0.945815
960,-7.507439,-8.728161,0.305180,-0.016968,-0.041627,1.023697
961,-9.277485,-8.178836,0.549325,-0.000732,-0.023072,1.004288
962,-11.047532,-7.507439,0.732433,-0.015503,-0.019654,0.963394
963,-15.136950,-6.164645,-0.122072,0.068482,-0.057984,0.881727
964,-16.296635,-6.836042,0.488289,-0.053101,-0.011963,1.156634
965,-24.292363,-8.361944,1.770047,-0.013062,-0.031128,0.972549
966,-24.048219,-8.911269,1.342794,-0.006958,-0.030030,0.959976
967,-27.893492,-9.704738,1.586938,-0.020752,-0.031006,0.986587
968,-31.067369,-9.887846,1.464866,-0.001831,-0.074464,1.021744
969,-28.503853,-8.850233,0.976577,0.013672,-0.083131,1.058244
970,-24.048219,-7.019150,1.159686,-0.000366,-0.074708,1.034562
971,-22.522316,-6.164645,1.647974,0.014893,-0.088014,1.034806
972,-20.508125,-5.065995,1.892119,0.014160,-0.078004,0.998550
973,-20.935378,-3.234913,2.990768,0.026612,-0.070069,1.017716
974,-22.644388,-2.441444,3.051804,-0.029908,-0.065675,0.983413
975,-22.888533,-2.990768,2.685588,0.028809,-0.013550,0.958999
976,-32.715343,-2.929732,1.525902,-0.033204,-0.037720,0.949966
977,-33.630884,-5.127031,0.793469,-0.034180,-0.023438,0.934218
978,-43.213550,-5.676356,0.732433,0.025025,-0.083864,0.972549
979,-44.678416,-5.920500,0.671397,-0.032593,-0.086183,0.997086
980,-42.847333,-5.798428,1.098650,0.043946,-0.143313,0.931655
981,-44.861524,-6.042573,1.342794,-0.041260,-0.079469,0.973159
982,-46.997787,-10.681315,-1.892119,-0.102785,-0.203494,1.043351
983,-55.298695,-10.376135,-8.850233,-0.001099,-0.114260,1.037003
984,-54.016938,-10.864424,-11.230640,0.017212,-0.200931,1.064103
985,-52.368963,-7.873655,-5.371176,0.040772,-0.200565,1.028946
986,-50.476844,-7.385367,-6.652934,0.051637,-0.143557,1.031266
987,-57.679103,-6.103609,-8.667124,0.028443,-0.037842,0.993423
988,-76.783398,-4.821851,-14.831769,0.005371,0.109255,0.877211
989,-103.517205,-5.004959,-16.296635,0.008179,0.220462,0.838270
990,-163.027390,-1.098650,-19.775692,0.024414,0.366217,0.856214
991,-213.565270,-3.418021,-19.104295,0.165164,-0.082033,0.838392
992,-205.081254,-18.921187,-21.789883,-0.117678,0.673594,1.280293
993,-380.865187,-24.475471,-50.537881,0.203372,0.651865,1.198260
994,-583.138781,-29.175250,20.996414,-0.232792,0.342901,1.999969
995,-660.471504,-58.106355,22.034028,0.001221,-0.212528,1.239033
996,-733.958953,-76.905470,35.767147,-0.224369,-0.165530,0.891371
997,-791.821164,-125.673304,49.866484,0.291264,-2.000031,1.999969
998,-734.996567,-89.784085,131.776913,-1.110369,-0.305058,1.999969
999,11.535821,-104.249638,-8.361944,-0.487678,-0.135622,1.999969
1000,294.132906,-49.378195,-21.728847,-0.652964,0.757702,1.999969
1001,67.322805,-19.958801,-16.052491,-0.387091,0.603647,1.548974
1002,-13.611048,-24.353399,43.823911,-0.356085,0.094606,0.646616
1003,103.700313,4.821851,19.165332,-0.122560,0.212894,0.233524
1004,67.383841,0.793469,14.404517,-0.075196,0.442267,-0.121950
1005,25.085832,-3.173877,12.634470,-0.014649,0.186404,0.429206
1006,65.980011,-0.488289,2.136263,0.004883,0.347417,0.560555
1007,63.233387,-6.836042,-3.662165,0.026368,0.411749,0.725475
1008,81.727321,-12.451362,-9.826810,-0.010986,0.372442,0.996719
1009,111.024643,-15.991455,-15.625238,-0.035279,0.419806,1.123919
1010,132.631418,-17.029068,-20.080873,-0.074464,0.374395,1.309834
1011,164.309148,-10.925460,-23.926146,-0.116579,0.302251,1.363912
1012,193.667506,-1.647974,-26.428626,-0.173953,0.207401,1.276753
1013,213.748379,8.056764,-25.696193,-0.225589,0.093019,1.185443
1014,231.082628,16.906996,-21.850919,-0.275395,-0.014160,1.064958
1015,241.214618,22.583352,-15.075914,-0.310430,-0.104616,0.995499
1016,248.538949,24.902724,-5.981537,-0.293584,-0.146365,1.030167
1017,255.436027,23.315785,2.319371,-0.257816,-0.165530,1.139178
1018,265.995270,22.156100,8.850233,-0.207889,-0.186404,1.193500
1019,274.662394,25.391012,11.963073,-0.099855,-0.158328,1.270405
1020,276.432441,34.790570,11.413748,-0.012940,-0.207034,1.293599
1021,277.897307,48.096437,6.591897,0.058228,-0.315679,1.147478
1022,269.474327,67.078660,0.427253,0.093019,-0.447272,0.975601
1023,249.759670,79.713130,-2.136263,0.085328,-0.465705,1.003677
1024,234.500649,79.285878,-4.821851,0.107790,-0.466194,0.984634
1025,221.255818,68.543526,-8.056764,0.159426,-0.367193,1.184955
1026,201.419089,60.425727,-10.620279,0.177737,-0.285527,1.744533
1027,201.113909,57.740139,-15.503166,0.202762,-0.287480,1.999969
1028,222.232395,61.951629,-22.705425,0.164920,-0.406989,1.999969
1029,251.773861,67.872129,-27.954528,0.091920,-0.499397,1.999969
1030,267.826352,65.980011,-27.710384,0.023072,-0.585092,1.999969
1031,284.000916,59.205005,-25.696193,0.035279,-0.683848,1.999969
1032,294.804303,59.388113,-24.475471,0.093629,-0.734142,1.969757
1033,288.578622,66.224155,-23.865110,0.148440,-0.776867,1.727932
1034,276.432441,68.909743,-24.292363,0.154177,-0.785779,1.592798
1035,263.004501,63.477531,-26.062409,0.172122,-0.789197,1.610620
1036,251.895933,60.425727,-30.762188,0.167483,-0.841932,1.637842
1037,240.787366,65.796902,-37.170977,0.153079,-0.962539,1.530297
1038,222.354467,76.050965,-43.335622,0.116335,-1.206073,1.341573
1039,197.390707,88.807507,-47.486076,0.194583,-1.591943,1.260029
1040,165.102617,106.691081,-52.613108,0.413092,-2.000031,1.241352
1041,131.898985,138.979171,-59.754330,0.516365,-2.000031,0.981704
1042,115.358206,172.487984,-50.598917,0.453742,-2.000031,-0.019043
1043,84.046693,148.500801,-33.997101,0.224857,-2.000031,-0.987442
1044,0.671397,54.993515,1.770047,0.114992,-2.000031,-1.206073
1045,-67.627985,-54.993515,31.128405,0.076295,-1.703883,-0.490242
1046,-168.337530,-164.248112,37.659266,0.599985,-1.749783,-0.939467
1047,-249.881743,-213.626307,37.903410,0.697887,-1.256123,0.527474
1048,-170.412757,-177.615015,25.940337,0.035401,0.124269,1.990021
1049,-159.365225,-134.645609,28.686961,-0.518441,0.910903,1.999969
1050,-173.098344,-93.202106,42.908370,-0.667002,0.352544,1.096941
1051,-224.002441,-96.864271,61.707485,-0.109010,-0.051881,-0.264775
1052,-271.976806,-103.212024,66.834516,0.633310,-0.176516,0.830335
1053,-288.090333,-77.943084,60.547799,1.308614,-0.150149,1.999969
1054,-221.988251,-46.753643,28.198672,1.675319,-0.042359,1.999969
1055,-164.065003,-16.052491,-12.512398,0.913344,-0.088502,1.923980
1056,-153.505760,17.822538,-21.057450,-0.689097,-0.316777,1.839384
1057,-170.901045,-10.681315,32.471199,-2.000031,-0.418219,1.999969
1058,-80.384527,-108.155947,49.561303,-0.620493,-0.548959,1.098405
1059,-49.500267,-128.725109,30.518044,1.999969,0.589853,1.999969
1060,-34.912642,-12.512398,-2.868696,1.141497,-0.124025,1.487694
1061,-36.438544,26.855879,0.793469,-1.079240,-0.054688,0.843030
1062,-42.847333,-30.762188,9.948882,-0.084840,-0.076051,1.111467
1063,-19.470512,-26.733806,-3.845274,0.494026,0.149783,1.181659
1064,-42.053864,-4.943923,0.061036,-0.133181,-0.100587,1.221332
1065,-15.075914,-15.503166,-1.281758,-0.124025,-0.116213,1.099382
1066,-3.662165,-19.531548,-3.723201,0.152224,0.080079,0.943130
1067,-18.616007,-11.657893,0.427253,0.023682,-0.033204,1.092546
1068,-7.568475,-12.207218,1.220722,-0.033570,-0.028443,1.035660
1069,-5.981537,-11.596857,0.244144,0.090455,0.017212,0.943008
1070,-14.648661,-8.300908,2.380407,0.037720,0.015015,0.993912
1071,-15.075914,-7.812619,2.990768,0.021729,0.005859,1.012467
1072,-14.587625,-6.958114,2.746624,0.038697,0.019165,1.005386
1073,-17.700465,-3.418021,0.671397,0.066651,-0.138064,0.867323
1074,-13.855192,-4.394598,1.709010,0.012451,-0.022950,1.030900
1075,-17.273213,-4.821851,2.014191,0.004883,-0.007202,0.985489
1076,-16.906996,-4.943923,1.586938,0.010986,-0.017700,0.997208
1077,-17.639429,-4.882887,1.525902,0.023072,-0.014405,1.016251
1078,-18.432898,-3.479057,1.709010,0.029908,-0.017456,1.028458
1079,-16.968032,-2.380407,1.647974,0.014405,-0.034791,1.004410
1080,-15.442130,-2.624552,2.014191,0.018067,-0.027955,1.013931
1081,-15.259022,-2.685588,0.000000,-0.091432,-0.022827,1.138079
1082,-15.075914,-2.929732,3.051804,0.000855,0.020264,0.975601
1083,-17.456321,-4.150454,2.502480,0.018921,-0.038453,1.031632
1084,-15.747311,-4.577707,1.892119,0.020386,-0.045167,1.004898
1085,-15.197986,-4.699779,1.647974,0.017212,-0.052125,1.007218
1086,-13.611048,-4.821851,1.403830,0.017823,-0.046143,1.019547
1087,-12.878614,-5.004959,1.403830,0.008911,-0.058228,0.985855
1088,-14.770733,-5.676356,1.647974,0.015991,-0.031617,0.990249
1089,-15.869383,-5.981537,1.220722,0.021729,-0.053956,0.988907
1090,-16.174563,-6.469825,0.793469,0.011231,-0.054078,1.011124
1091,-15.930419,-6.591897,0.671397,0.035523,-0.069581,1.022232
1092,-13.977264,-5.981537,0.366217,0.030396,-0.083742,1.009781
1093,-11.779965,-5.554284,0.244144,0.036133,-0.060304,1.020401
1094,-12.329290,-5.004959,0.122072,0.032837,-0.080201,1.030411
1095,-9.948882,-4.211490,0.183108,0.029908,-0.062989,1.021134
1096,-10.070954,-4.089418,0.671397,0.032837,-0.064332,0.994156
1097,-11.902037,-3.723201,1.159686,0.026368,-0.055787,0.988418
1098,-12.024109,-3.723201,1.220722,0.042969,-0.062867,1.001968
1099,-11.963073,-2.746624,1.098650,0.036866,-0.058228,1.007462
1100,-13.855192,-1.525902,1.403830,0.022339,-0.056275,0.992813
1101,-15.747311,-1.220722,1.464866,0.040406,-0.052491,0.977066
1102,-18.188754,-1.281758,1.464866,0.005859,-0.060914,0.972061
1103,-20.996414,-2.014191,1.647974,0.038453,-0.075685,1.006119
1104,-20.752270,-1.647974,1.831083,0.029541,-0.080568,1.004532
1105,-21.179522,-1.525902,2.014191,0.030152,-0.077760,1.004776
1106,-21.972992,-1.647974,1.709010,0.038819,-0.102663,1.007706
1107,-21.301595,-1.159686,1.525902,0.023560,-0.093996,1.025772
1108,-22.583352,-0.610361,1.586938,0.017090,-0.094850,0.949722
1109,-20.019837,-2.197299,1.220722,0.046754,-0.052735,1.023453
1110,-27.283131,1.586938,2.685588,0.015015,-0.078004,0.996963
1111,-30.579080,1.953155,4.943923,0.079469,-0.130373,1.030777
1112,-28.442817,5.004959,7.263294,0.037354,-0.107179,1.011490
1113,-31.494621,6.286717,9.033341,0.035645,-0.106935,1.006973
1114,-33.447776,6.530861,8.300908,-0.004517,-0.081788,1.000015
1115,-39.246204,4.516670,5.676356,0.020874,-0.088746,0.994278
1116,-40.466926,3.845274,3.356985,-0.017456,-0.105715,0.996353
1117,-38.941024,0.305180,1.892119,0.046021,-0.053834,1.003311
1118,-43.762875,-0.793469,-4.455634,-0.022095,-0.134768,1.001114
1119,-52.368963,-1.953155,-9.521630,-0.004761,-0.134890,0.978775
1120,-53.833829,-3.295949,-10.193027,0.047852,-0.256352,1.001358
1121,-40.344854,-1.770047,-3.906310,0.051392,-0.240848,1.040787
1122,-26.672770,-3.356985,-5.371176,0.070558,-0.237186,1.071305
1123,-15.686275,-3.906310,-4.272526,0.023560,-0.179202,1.000381
1124,-24.658579,-1.709010,-9.216449,0.025025,0.015503,0.996231
1125,-46.570535,-0.549325,-10.986496,0.077516,0.197024,0.887587
1126,-87.403677,5.432212,-17.822538,-0.012329,0.209720,1.063737
1127,-150.637064,8.117800,-33.752956,-0.010742,0.585946,0.551644
1128,-226.199741,-3.173877,-46.814679,0.006104,0.199100,0.718761
1129,-264.469368,-28.686961,-31.494621,0.097658,1.224872,0.631479
1130,-490.730144,-39.856565,-48.523690,-0.187259,0.354986,1.644312
1131,-668.711376,-103.273060,26.977951,-0.430304,0.159182,1.537499
1132,-746.837568,-165.346761,19.958801,0.093996,-0.403693,1.495750
1133,-816.418708,-180.422675,42.175937,0.037842,-0.730724,1.327413
1134,-955.336843,-127.321279,186.648356,-1.045792,-1.402976,1.999969
1135,-264.530404,-75.257496,43.335622,-1.076677,-1.892851,1.999969
1136,279.667353,-7.690547,4.821851,-0.445075,0.547250,1.999969
1137,83.924620,45.227741,-20.080873,-0.430304,1.126116,1.867948
1138,-80.262455,17.029068,87.953002,-0.455573,0.484138,0.937148
1139,0.366217,1.159686,81.422141,0.126711,-0.019898,0.595102
1140,84.168765,-2.197299,54.932479,0.195071,0.581796,0.050782
1141,2.197299,-23.193713,50.720989,0.493904,0.414435,0.331304
1142,22.156100,-20.080873,31.433585,0.553964,0.401007,0.803723
1143,63.538567,-22.827497,5.065995,0.518441,0.614023,0.841932
1144,70.435645,-31.494621,-13.794156,0.427619,0.572274,1.019913
1145,104.798962,-37.476158,-31.067369,0.283207,0.498909,1.150042
1146,137.087053,-39.673457,-44.068055,0.172976,0.472786,1.118059
1147,159.731441,-33.997101,-52.246891,0.049805,0.366094,1.088640
1148,181.277180,-23.071641,-55.970092,-0.096925,0.248905,1.011612
1149,198.306249,-12.634470,-53.467613,-0.218753,0.140261,0.927138
1150,211.062791,-4.516670,-45.838102,-0.315435,0.036866,0.899916
1151,221.988251,1.831083,-34.607462,-0.388190,-0.024414,0.935683
1152,231.021592,8.178836,-21.667811,-0.388800,-0.064210,1.066423
1153,242.008087,15.625238,-8.911269,-0.360235,-0.102174,1.155657
1154,255.741207,21.972992,1.770047,-0.290776,-0.125734,1.199115
1155,265.629053,25.879301,10.070954,-0.190188,-0.163455,1.217670
1156,275.272755,27.649348,15.320058,-0.106081,-0.146731,1.310933
1157,280.277714,29.480430,14.404517,0.010742,-0.231693,1.308370
1158,289.005875,34.912642,9.155413,0.112062,-0.217533,1.350607
1159,284.916457,44.983597,-0.488289,0.166751,-0.369635,1.294942
1160,280.766003,60.730907,-10.437171,0.200076,-0.452155,1.235615
1161,267.643244,75.257496,-19.592584,0.222782,-0.489021,1.080705
1162,248.599985,81.239033,-27.588312,0.181033,-0.544564,1.016617
1163,225.650416,80.445563,-30.273899,0.186770,-0.472786,1.292500
1164,203.311208,71.107042,-30.884260,0.204959,-0.408698,1.960723
1165,205.691615,56.885634,-33.203632,0.221561,-0.467903,1.999969
1166,243.350881,53.345541,-41.504540,0.261357,-0.569467,1.999969
1167,266.056306,59.327077,-50.171664,0.218997,-0.598764,1.999969
1168,261.783780,61.890593,-54.627298,0.124758,-0.677623,1.999969
1169,273.197528,61.829557,-56.702525,0.062989,-0.783093,1.999969
1170,282.291905,63.904784,-55.481804,0.052247,-0.819837,1.982940
1171,275.455863,67.261769,-51.880674,0.051392,-0.857557,1.772122
1172,266.178378,69.642176,-48.462654,0.088502,-0.853773,1.674586
1173,252.628367,72.144656,-47.669184,0.185550,-0.869520,1.639796
1174,241.092546,77.821012,-50.659953,0.255985,-0.931777,1.602197
1175,227.420462,85.999847,-54.627298,0.281987,-1.056779,1.497459
1176,208.377203,93.385214,-58.472572,0.281865,-1.323262,1.365255
1177,186.099031,102.296483,-60.181582,0.364874,-1.710231,1.229023
1178,155.153735,113.954376,-62.928206,0.525154,-2.000031,1.188373
1179,124.818799,137.270161,-63.843748,0.545174,-2.000031,0.912367
1180,103.639277,162.478065,-67.811093,0.544198,-2.000031,0.033082
1181,73.731594,142.580301,-47.974365,0.307256,-2.000031,-0.852674
1182,-7.690547,58.045319,-12.573434,0.116579,-2.000031,-0.935317
1183,-66.468299,-41.870756,21.240558,0.062501,-1.721706,-0.168215
1184,-92.591745,-100.770581,44.678416,0.012696,-1.257954,0.665049
1185,-153.444724,-164.980545,22.888533,0.332403,-0.733898,0.812146
1186,-152.956436,-130.251011,56.946670,-0.193729,0.948257,1.844999
1187,-107.911803,-96.009766,39.673457,-0.531136,0.798840,1.435325
1188,-131.776913,-111.085679,47.852293,-0.775158,0.839612,0.292973
1189,-226.260777,-127.138170,63.111315,-0.314092,-0.061524,0.044434
1190,-266.239414,-98.817426,78.248264,0.343755,-0.295415,0.653086
1191,-264.225223,-94.483864,74.830243,1.339986,-0.097658,1.999969
1192,-207.217517,-54.016938,39.673457,1.999420,0.153201,1.999969
1193,-144.655528,-10.864424,-7.873655,1.437644,0.062257,1.969879
1194,-140.688182,26.733806,-30.029755,0.371466,0.068727,1.802518
1195,-143.190661,56.763561,-24.109255,-1.028458,-0.266728,1.948760
1196,-135.805295,18.616007,19.958801,-1.926177,-0.440558,1.939727
1197,-72.693980,-47.425040,40.405890,-0.715465,-0.456062,0.843275
1198,-55.054551,-84.534981,44.434272,0.489754,0.406744,1.520653
1199,-59.632258,-70.862898,27.893492,0.875135,0.168215,1.552270
1200,-46.387427,-40.650034,15.564202,-0.132448,-0.017334,1.598779
1201,-29.724575,-54.383154,16.296635,-0.418830,-0.203006,0.992447
1202,-19.653620,-70.679789,5.371176,0.317144,0.165042,1.266499
1203,-29.907683,-45.654994,4.089418,0.409552,0.063600,1.360739
1204,-21.179522,-23.071641,2.014191,-0.081056,-0.014282,1.115129
1205,-18.005646,-23.926146,1.403830,-0.087526,0.058228,1.042618
1206,-22.827497,-23.865110,-0.122072,0.165774,0.082155,1.022110
1207,-28.870069,-8.300908,3.112840,0.123049,-0.018311,1.161151
1208,-19.104295,-1.831083,4.577707,0.009766,0.005371,1.065324
1209,-17.273213,2.075227,4.211490,0.095705,0.048585,1.036515
1210,-17.578393,7.995727,4.699779,-0.026123,0.046632,1.047745
1211,-17.883574,9.765774,4.028382,0.009766,0.047852,0.992081
1212,-20.630198,10.681315,1.647974,0.002564,0.017700,0.879896
1213,-24.780652,7.751583,2.258335,-0.007324,0.025391,1.006241
1214,-24.109255,5.188067,1.464866,-0.082155,0.036378,1.023331
1215,-26.550698,2.380407,0.183108,0.013916,-0.025269,0.905776
1216,-26.001373,2.746624,0.488289,-0.016236,0.009033,1.043839
1217,-26.184482,3.051804,1.831083,0.007813,-0.018921,1.050797
1218,-20.752270,5.004959,2.014191,0.005249,-0.011597,1.022354
1219,-19.958801,5.310140,2.807660,-0.017700,-0.013306,1.031998
1220,-17.639429,4.211490,2.807660,-0.017578,-0.008667,1.025772
1221,-16.235599,3.295949,2.502480,-0.025391,-0.010742,0.999649
1222,-15.991455,1.647974,2.014191,-0.037232,-0.015503,0.981216
1223,-16.052491,-0.610361,1.892119,-0.033082,-0.024903,0.987564
1224,-15.075914,-1.220722,-0.244144,-0.039063,0.127565,1.251484
1225,-12.146181,-2.807660,0.305180,-0.043702,-0.043946,1.101823
1226,-17.517357,-4.821851,1.159686,-0.010010,-0.064820,0.971817
1227,-11.963073,-4.638743,1.098650,0.000366,-0.041749,1.021256
1228,-11.047532,-2.807660,1.464866,0.012573,-0.054322,1.079606
1229,-5.920500,-1.220722,1.159686,-0.009400,-0.039307,1.007218
1230,-5.432212,-1.892119,0.976577,-0.031495,-0.016724,0.973159
1231,-7.385367,-3.418021,0.732433,-0.038209,-0.043946,0.972671
1232,-7.141222,-5.127031,0.549325,-0.020386,-0.045167,1.018936
1233,-6.713970,-2.868696,-2.624552,0.135988,-0.326543,0.466438
1234,-4.577707,-3.967346,-0.122072,-0.003418,-0.003174,1.076432
1235,-7.507439,-4.516670,1.342794,-0.023194,-0.020752,1.025528
1236,-5.981537,-4.821851,0.976577,0.002319,-0.037232,0.977310
1237,-8.606088,-4.577707,1.159686,-0.025513,-0.058350,0.971695
1238,-8.056764,-4.638743,1.037613,-0.000122,-0.052735,1.000748
1239,-8.972305,-4.455634,0.732433,0.003052,-0.037354,0.996963
1240,-9.277485,-3.601129,1.098650,0.004517,-0.073976,1.000870
1241,-9.521630,-2.990768,1.525902,-0.012085,-0.024414,1.009293
1242,-11.291676,-3.418021,2.075227,-0.018433,-0.036378,0.984512
1243,-14.099336,-4.211490,2.319371,-0.004517,-0.049928,0.949233
1244,-17.456321,-5.004959,2.807660,0.011597,-0.026490,0.986099
1245,-21.606775,-5.676356,3.356985,0.000977,-0.015625,0.976333
1246,-27.100023,-5.249104,3.784237,0.022461,-0.040284,1.015640
1247,-27.771420,-3.906310,3.906310,0.000244,-0.054566,1.006973
1248,-29.053178,-2.563516,4.821851,0.019654,-0.045777,0.993790
1249,-31.738766,-0.671397,5.798428,0.009277,-0.056641,0.989029
1250,-30.273899,-0.854505,5.554284,0.003174,-0.056886,0.993790
1251,-30.395972,0.183108,5.432212,0.004517,-0.049439,0.973526
1252,-35.461967,-0.488289,6.042573,-0.050782,-0.054688,0.990494
1253,-34.607462,-1.586938,6.103609,-0.031495,-0.042969,0.918837
1254,-37.354086,-0.183108,6.347753,-0.003418,-0.067994,1.014420
1255,-38.269627,-1.586938,4.943923,-0.024781,-0.108400,1.041520
1256,-35.461967,-2.136263,3.051804,0.007446,-0.072755,1.028214
1257,-39.978637,-2.685588,1.770047,-0.044312,-0.081178,0.970840
1258,-45.471885,-5.249104,-1.159686,-0.020508,-0.116701,1.001846
1259,-46.448463,-7.385367,-4.760815,-0.044434,-0.145998,0.877821
1260,-45.777066,-12.817578,-10.376135,-0.054200,-0.060548,1.065080
1261,-49.439231,-14.160372,-11.963073,0.046265,-0.213504,1.008438
1262,-41.565576,-9.338521,-4.638743,0.004761,-0.089845,0.987320
1263,-47.058824,-12.512398,-9.582666,0.010864,-0.092409,1.037003
1264,-59.021897,-10.437171,-13.916228,0.034180,-0.113039,1.011856
1265,-71.046006,-9.582666,-17.639429,-0.049928,-0.018433,1.035172
1266,-80.079347,-11.352712,-23.498894,0.089601,0.091554,0.807874
1267,-99.855039,-6.958114,-19.409476,-0.093019,0.391241,0.812757
1268,-179.018845,-11.169604,-24.048219,0.084352,0.075929,1.054582
1269,-224.490730,0.122072,-11.902037,0.325933,0.201053,1.004166
1270,-283.329519,-10.925460,-35.706111,-0.055421,0.746227,1.004776
1271,-472.724498,-7.263294,-26.916915,-0.034424,0.308476,1.309590
1272,-622.995346,-6.225681,5.615320,-0.162112,0.059327,1.246967
1273,-712.596323,-18.738079,19.226368,0.099367,-0.169558,1.257710
1274,-781.200885,-23.254749,35.034714,-0.251225,-0.483894,1.177630
1275,-875.440604,-32.349126,148.622873,-1.336446,-1.842191,1.999969
1276,-361.943999,-59.754330,57.312886,-1.511131,-1.817899,1.999969
1277,191.103990,-79.163806,23.743038,-0.752575,0.501717,1.999969
1278,159.365225,-40.466926,18.677043,-0.024170,0.815930,1.430442
1279,-26.672770,-42.725261,87.708858,-0.201175,0.804089,1.278706
1280,-8.667124,-35.400931,78.614481,0.370977,0.139284,0.752819
1281,86.732280,-3.479057,38.147555,0.510018,0.585946,0.093629
1282,18.066682,-7.934691,16.113527,0.613046,0.558846,0.217411
1283,14.953841,-6.958114,-6.408789,0.507210,0.412848,0.608164
1284,52.002747,-15.259022,-30.457008,0.413581,0.548836,0.702281
1285,55.725948,-31.189441,-44.434272,0.260014,0.498299,0.912734
1286,84.351873,-44.068055,-54.077974,0.130007,0.439948,1.096818
1287,115.480278,-51.270314,-60.608835,0.004150,0.456550,1.247944
1288,140.016785,-52.002747,-62.317845,-0.148684,0.373419,1.402365
1289,174.074922,-45.227741,-61.036088,-0.291997,0.254643,1.375998
1290,202.151522,-34.180209,-55.909056,-0.403326,0.145266,1.238178
1291,220.584421,-21.179522,-46.753643,-0.485481,0.014527,1.066789
1292,234.378576,-9.216449,-34.912642,-0.530404,-0.082277,0.901503
1293,240.299077,0.427253,-20.996414,-0.527474,-0.132448,0.837415
1294,243.350881,4.760815,-6.713970,-0.464729,-0.133913,0.953384
1295,249.820707,4.821851,4.821851,-0.365606,-0.127321,1.128435
1296,260.990311,6.042573,11.413748,-0.238651,-0.101930,1.368917
1297,273.929961,11.841001,13.000687,-0.082643,-0.099367,1.533593
1298,288.883803,22.766461,7.934691,0.016114,-0.187625,1.397604
1299,295.475700,32.288090,1.159686,0.075929,-0.231083,1.175189
1300,284.306096,47.425040,-9.399557,0.117556,-0.431159,0.896986
1301,265.201801,59.876402,-15.442130,0.050050,-0.503059,0.916396
1302,245.120928,64.881361,-18.005646,0.128542,-0.442512,1.005509
1303,225.772488,62.928206,-22.766461,0.117922,-0.375860,1.257465
1304,215.396353,57.618067,-26.428626,0.198611,-0.281254,1.773098
1305,214.541848,61.585412,-32.043946,0.203983,-0.284306,1.999969
1306,225.162127,62.378882,-39.185168,0.176028,-0.355352,1.999969
1307,237.857633,64.759289,-45.777066,0.143557,-0.495369,1.999969
1308,244.632639,69.336996,-50.476844,0.105348,-0.589487,1.999969
1309,242.435340,70.862898,-53.101396,0.072389,-0.672251,1.999969
1310,249.149310,71.046006,-56.153201,0.066041,-0.738170,1.999969
1311,258.365759,73.609522,-58.594644,0.088380,-0.790051,1.999969
1312,261.234455,78.248264,-61.707485,0.195193,-0.827405,1.839261
1313,254.093233,87.159533,-65.735866,0.286015,-0.843030,1.588037
1314,236.942092,95.277333,-69.092851,0.309575,-0.874525,1.461936
1315,219.851987,101.014725,-69.581140,0.272099,-0.936294,1.453025
1316,202.761883,98.023957,-64.515145,0.189822,-1.066056,1.517479
1317,194.522011,85.023270,-54.749371,0.115969,-1.299580,1.435813
1318,185.183490,68.055238,-42.114900,0.147951,-1.574731,1.295430
1319,163.820859,58.472572,-30.884260,0.385016,-2.000031,1.163348
1320,136.476692,62.073701,-26.428626,0.648569,-2.000031,0.962173
1321,112.794690,76.478218,-25.757229,0.808484,-2.000031,0.224369
1322,93.751431,80.445563,-37.415122,0.583505,-2.000031,-0.471809
1323,23.498894,46.204318,-22.400244,0.270268,-2.000031,-0.811536
1324,-49.378195,-17.212177,3.234913,-0.012451,-1.886870,-0.154421
1325,-72.938125,-65.674830,26.794842,-0.216312,-1.412619,0.724498
1326,-156.862745,-134.096284,28.503853,-0.195071,-1.522484,-0.488899
1327,-171.206226,-141.603723,64.759289,-0.101686,0.290532,1.385397
1328,-105.531395,-90.394446,40.772107,-0.208988,0.504158,1.702907
1329,-112.489509,-70.069429,47.058824,-0.583383,1.083024,0.583627
1330,-242.130159,-116.762036,62.378882,0.082399,0.146853,-0.347051
1331,-284.489204,-100.831617,64.759289,0.922255,-0.297124,0.198245
1332,-304.325933,-65.430686,54.444190,1.347677,-0.029786,1.999969
1333,-278.568704,-36.438544,26.550698,1.743923,-0.144289,1.999969
1334,-170.778973,24.902724,-19.714656,0.837293,-0.208499,1.999969
1335,-166.750591,44.007019,-2.075227,-1.770535,0.056886,1.999969
1336,-171.389334,-20.813306,35.706111,-1.943633,-1.369650,1.553246
1337,-30.090791,-114.076448,45.960174,-0.183230,-0.132082,1.343771
1338,-70.862898,-111.329824,45.532921,1.791531,0.599008,1.999969
1339,-43.762875,-30.395972,10.742351,0.719982,0.022827,1.570459
1340,-41.931792,-13.611048,11.413748,-1.003922,-0.128420,0.857679
1341,-36.438544,-61.646448,13.000687,0.093385,0.133547,1.095964
1342,-41.443503,-47.913329,-1.281758,0.625376,0.121462,1.428977
1343,-42.420081,-18.066682,-2.990768,-0.194095,-0.083619,1.101213
1344,-34.058137,-27.283131,-1.586938,-0.026123,-0.024170,1.180926
1345,-24.292363,-20.019837,-2.746624,0.275273,-0.020630,1.244892
1346,-19.104295,-1.037613,-0.732433,0.014282,0.005493,1.107317
1347,-18.982223,1.953155,2.014191,0.024537,0.011719,1.068498
1348,-16.906996,5.737392,1.770047,0.058228,0.012940,1.051286
1349,-17.212177,8.422980,2.441444,-0.002564,-0.026734,1.066300
1350,-13.061723,9.643702,2.441444,0.034546,-0.020996,1.065568
1351,-10.498207,12.695506,2.685588,0.008667,0.006958,0.999527
1352,-12.146181,12.817578,2.685588,-0.038453,-0.005982,1.005386
1353,-11.108568,10.986496,2.136263,-0.029541,-0.026246,1.008804
1354,-9.887846,10.315099,2.563516,-0.017700,-0.030518,1.035172
1355,-6.836042,9.460594,2.807660,-0.053223,-0.020630,1.001480
1356,-5.493248,7.324331,2.563516,-0.043580,-0.029908,1.021988
1357,-2.380407,5.615320,2.197299,-0.049928,-0.022583,1.011978
1358,-0.610361,2.868696,1.770047,-0.053346,-0.006470,0.967422
1359,-0.671397,-0.427253,1.037613,-0.046876,-0.009522,0.972061
1360,-0.610361,-3.234913,0.793469,-0.046754,-0.003296,0.965469
1361,-2.197299,-5.493248,0.793469,-0.036622,-0.006104,0.964248
1362,-2.319371,-6.836042,0.793469,-0.022095,-0.004517,0.983047
1363,-4.028382,-6.469825,1.342794,-0.012940,-0.008057,0.985611
1364,-4.760815,-6.042573,1.220722,-0.024414,-0.001221,0.986709
1365,-7.751583,-4.089418,-1.220722,0.071656,-0.127565,0.803723
1366,-6.775006,-5.981537,-0.305180,-0.050294,-0.008667,1.087907
1367,-12.756542,-8.789197,1.342794,-0.030030,-0.022095,0.924086
1368,-10.986496,-11.413748,0.915541,-0.028199,-0.015381,0.954849
1369,-13.000687,-12.817578,0.854505,-0.018189,-0.035035,1.037613
1370,-10.498207,-11.902037,-2.868696,-0.079469,-0.132448,0.912734
1371,-9.216449,-14.526589,0.366217,-0.007691,0.030274,1.012100
1372,-12.085145,-14.282444,0.793469,-0.017578,-0.032105,1.035172
1373,-10.376135,-14.465553,0.488289,0.014038,-0.034058,0.994766
1374,-11.535821,-13.122759,0.854505,0.006226,-0.033448,1.018692
1375,-10.803388,-11.474784,1.342794,0.013916,-0.044190,1.059220
1376,-8.789197,-7.263294,-0.732433,0.172976,-0.255497,0.588632
1377,-5.676356,-7.690547,1.037613,0.018921,-0.017700,1.058244
1378,-7.568475,-7.324331,2.258335,0.002930,-0.030274,1.025895
1379,-5.065995,-7.202258,1.831083,0.017578,-0.047852,0.979141
1380,-6.530861,-7.385367,1.464866,0.000855,-0.055665,0.972793
1381,-7.995727,-8.361944,1.403830,0.003296,-0.038697,0.993179
1382,-9.704738,-8.789197,0.793469,0.014160,-0.018921,0.985000
1383,-12.634470,-9.216449,0.793469,0.011109,-0.026734,0.994888
1384,-12.329290,-8.850233,0.000000,0.033936,-0.055787,0.975479
1385,-14.465553,-8.484016,0.000000,0.021607,-0.029664,0.971206
1386,-17.944610,-8.667124,0.305180,0.017823,-0.016602,0.946426
1387,-22.034028,-8.667124,0.244144,0.005737,-0.040040,0.994888
1388,-23.254749,-8.728161,0.183108,0.026856,-0.053468,1.016983
1389,-23.437858,-7.141222,0.488289,0.028321,-0.058473,1.028702
1390,-22.888533,-5.737392,1.464866,0.032227,-0.078004,1.051286
1391,-20.508125,-3.356985,2.319371,0.024781,-0.096559,1.033097
1392,-17.944610,-2.990768,3.356985,0.033936,-0.052491,1.024308
1393,-19.409476,-1.709010,4.760815,0.014282,-0.008301,0.956191
1394,-21.179522,-3.112840,4.333562,0.041749,-0.030030,0.966201
1395,-27.771420,-3.051804,4.028382,-0.044068,0.021118,0.926650
1396,-36.621653,-6.591897,2.990768,0.034424,-0.024048,0.975235
1397,-41.199359,-7.446403,2.441444,-0.020386,-0.046632,0.963516
1398,-45.105669,-9.216449,2.136263,0.022583,-0.075074,1.006241
1399,-48.645762,-5.859464,2.075227,0.020874,-0.059083,1.080583
1400,-48.096437,-5.310140,-0.122072,0.002319,-0.062867,0.989761
1401,-54.444190,-6.591897,-4.150454,-0.018921,-0.107424,0.994034
1402,-52.552071,-10.681315,-8.972305,0.014527,-0.183474,1.067399
1403,-50.720989,-10.559243,-10.498207,0.065553,-0.168460,1.044083
1404,-45.288777,-6.958114,-8.789197,0.131960,-0.181399,1.120989
1405,-44.678416,-1.037613,-4.882887,0.144778,-0.217166,1.113787
1406,-50.782025,7.202258,-0.854505,0.047120,-0.078614,0.969131
1407,-56.214237,6.408789,-2.136263,0.081544,0.148318,0.911391
1408,-94.728008,12.451362,-7.263294,-0.001831,0.335576,0.811902
1409,-174.258030,15.381094,-16.845960,0.010254,0.515999,0.586679
1410,-245.243000,10.559243,-12.207218,0.127321,-0.202640,0.686900
1411,-237.674525,-19.470512,20.691234,0.044800,1.047013,0.694713
1412,-398.504616,-28.625925,-7.690547,-0.024537,0.393072,1.586938
1413,-580.819410,-72.083619,37.109941,-0.364263,-0.003784,1.746853
1414,-659.678035,-116.639963,40.772107,-0.007935,-0.288701,0.929946
1415,-733.043412,-132.997635,66.163119,0.009522,-0.303227,1.154070
1416,-802.258335,-127.382315,103.334096,-0.132448,-2.000031,1.999969
1417,-840.222782,-60.669871,222.232395,-1.002823,-0.026246,1.999969
1418,-17.029068,-70.557717,32.959487,-0.430793,-0.518563,1.999969
1419,264.774548,-3.662165,24.536507,-0.560311,0.764416,1.999969
1420,42.298009,19.409476,34.058137,-0.195926,0.910903,1.999542
1421,-61.463340,-10.193027,83.436332,-0.203006,0.315679,1.170306
1422,79.285878,11.718929,59.815366,0.180789,0.278935,0.697398
1423,89.173724,18.127718,39.734493,0.269902,0.704112,0.052613
1424,17.761501,16.357671,29.419394,0.437995,0.412726,0.366827
1425,51.941711,24.048219,3.662165,0.380743,0.390875,0.631479
1426,71.534295,14.648661,-14.343481,0.302495,0.530648,0.660533
1427,77.515831,-8.545052,-24.414435,0.185061,0.421271,0.871107
1428,116.151675,-28.259709,-33.997101,0.128542,0.442145,0.979751
1429,137.514305,-38.818952,-41.382467,0.057862,0.449714,1.081804
1430,156.740673,-37.170977,-47.730220,-0.010986,0.365850,1.300435
1431,185.793851,-24.902724,-52.674144,-0.106081,0.290043,1.392844
1432,210.452430,-12.451362,-53.589685,-0.203250,0.182498,1.426780
1433,236.575875,-2.685588,-50.354772,-0.279423,0.051759,1.345113
1434,259.586481,2.014191,-43.701839,-0.310918,-0.011963,1.260395
1435,271.915770,4.211490,-34.973678,-0.309453,-0.094240,1.256001
1436,287.357900,7.141222,-25.696193,-0.278935,-0.145388,1.181781
1437,296.696422,7.934691,-17.578393,-0.205570,-0.178714,1.086320
1438,300.419623,6.836042,-12.390326,-0.083497,-0.209232,0.968887
1439,298.222324,7.629511,-13.366903,0.031006,-0.236576,0.890883
1440,288.273442,15.503166,-19.409476,0.117189,-0.292363,0.743542
1441,269.108110,29.846647,-28.015564,0.160647,-0.343877,0.725963
1442,244.754711,43.640803,-34.363317,0.131960,-0.335088,0.902846
1443,226.565957,47.547112,-38.513771,0.092775,-0.311040,1.129290
1444,217.288472,45.227741,-41.504540,0.038941,-0.188113,1.549584
1445,205.874723,49.866484,-41.199359,0.000000,-0.170535,1.999969
1446,217.410544,64.393072,-38.391699,-0.034668,-0.289799,1.999969
1447,249.393454,75.196460,-35.461967,-0.055177,-0.461433,1.999969
1448,265.995270,78.248264,-30.518044,-0.023438,-0.553109,1.999969
1449,259.342336,73.365377,-24.414435,0.039063,-0.629892,1.999969
1450,265.079728,64.209964,-23.315785,0.195193,-0.723522,1.999969
1451,282.047761,64.576181,-31.860838,0.444465,-0.773693,1.999969
1452,271.854734,71.046006,-46.448463,0.585458,-0.829969,1.849271
1453,260.502022,76.234073,-61.707485,0.571908,-0.904067,1.743923
1454,253.727016,78.248264,-74.341955,0.510872,-0.977188,1.618555
1455,236.575875,79.835203,-79.224842,0.382452,-1.132586,1.501854
1456,220.828565,79.591058,-74.280919,0.178958,-1.345968,1.346334
1457,200.015259,67.383841,-59.815366,0.034546,-1.615991,1.262226
1458,180.605783,53.162432,-41.077287,0.075319,-1.960357,1.063737
1459,158.510719,44.373236,-26.794842,0.397955,-2.000031,0.797498
1460,122.072175,43.396658,-22.461280,0.668711,-2.000031,0.562020
1461,80.079347,54.139010,-41.016251,0.763439,-2.000031,0.339117
1462,55.848020,67.383841,-46.692607,0.398444,-2.000031,-0.017700
1463,7.385367,48.828870,-29.724575,-0.004517,-2.000031,-0.194217
1464,-34.973678,2.136263,0.549325,-0.467659,-2.000031,0.006836
1465,-153.933013,-112.855726,36.865797,-0.116701,-2.000031,-1.681910
1466,-210.330358,-177.798123,45.899138,0.483284,-0.642466,1.604028
1467,-130.739300,-57.007706,33.630884,-0.287236,0.428107,1.999969
1468,-136.903944,-44.068055,48.340581,-0.805554,1.213397,0.778454
1469,-246.158541,-120.973526,64.454108,-0.049805,0.206424,-0.198489
1470,-285.282673,-112.794690,67.444877,0.561044,-0.255741,0.549325
1471,-306.950484,-78.431373,65.430686,1.021256,-0.242313,1.999969
1472,-261.295491,-65.796902,42.298009,1.777249,-0.190921,1.999969
1473,-179.140917,-18.616007,-3.540093,1.064347,-0.120241,1.999969
1474,-178.286412,-16.418708,19.714656,-1.511986,-0.038453,1.999969
1475,-120.790417,-58.411536,37.598230,-0.862440,-0.531746,1.999969
1476,-29.846647,-99.000534,4.394598,1.179583,-0.080690,1.999969
1477,-33.508812,-23.315785,-1.281758,0.793835,0.143801,1.296529
1478,-59.571221,2.685588,10.070954,-0.604990,-0.033936,0.828504
1479,-52.613108,-34.058137,8.850233,-0.151858,0.005005,1.211200
1480,-32.410163,-32.959487,-4.272526,0.452399,-0.018799,1.293355
1481,-33.142596,-14.587625,-0.122072,-0.087770,-0.039918,1.141741
1482,-22.522316,-22.766461,-0.122072,-0.014649,-0.069215,1.142107
1483,-8.239872,-22.827497,-2.319371,0.141970,0.084840,1.049332
1484,-18.432898,-15.259022,-0.122072,0.067140,0.042237,1.097551
1485,-17.334249,-9.155413,0.854505,0.046754,-0.051759,1.095964
1486,-8.606088,-3.601129,0.915541,0.089357,0.019532,1.021622
1487,-13.916228,3.295949,3.418021,0.063111,-0.023560,1.032609
1488,-13.794156,6.225681,4.455634,0.035157,-0.009155,1.022721
1489,-14.099336,7.873655,5.249104,0.041016,0.005371,1.002579
1490,-14.221408,7.751583,4.699779,-0.020874,-0.006592,1.004166
1491,-12.878614,4.943923,4.272526,0.000977,-0.007202,1.008316
1492,-11.841001,3.601129,3.479057,-0.007446,0.043336,1.012955
1493,-13.794156,2.624552,3.234913,-0.012940,0.011841,1.035660
1494,-10.559243,1.709010,2.685588,0.002075,-0.008423,1.016617
1495,-10.437171,1.098650,2.563516,0.013306,-0.009888,1.011490
1496,-9.216449,1.159686,2.563516,0.006836,-0.013550,1.010513
1497,-8.606088,0.854505,2.380407,0.014771,-0.017823,1.014054
1498,-6.836042,0.915541,2.319371,0.010010,-0.003296,1.027359
1499,-5.615320,1.098650,2.197299,0.003052,-0.044434,1.026017
1500,-3.418021,0.732433,1.586938,0.004639,-0.031250,1.001480
1501,-2.990768,-0.244144,1.342794,-0.008423,-0.016602,0.990127
1502,-2.624552,-1.770047,0.915541,-0.019165,0.003174,0.926894
1503,-7.202258,-5.127031,0.671397,-0.011719,0.005737,0.948867
1504,-10.131991,-7.385367,0.000000,-0.002564,-0.012940,0.977554
1505,-10.986496,-8.728161,-0.305180,0.017334,-0.018555,0.989395
1506,-12.451362,-8.789197,-0.244144,0.017700,-0.022950,1.003067
1507,-11.047532,-8.422980,-0.732433,0.022339,-0.025391,1.010391
1508,-11.596857,-7.873655,-0.854505,0.028931,-0.031373,1.001236
1509,-11.535821,-7.446403,-0.549325,0.013306,-0.030030,0.986587
1510,-11.718929,-7.324331,-0.427253,0.011353,-0.036378,0.984024
1511,-12.695506,-7.873655,-0.488289,0.015747,-0.027588,0.993179
1512,-13.305867,-8.117800,-0.915541,0.020752,-0.036622,0.996719
1513,-14.953841,-7.690547,-0.732433,0.044190,-0.047852,1.021378
1514,-14.587625,-5.981537,-0.427253,0.047242,-0.062745,1.026139
1515,-15.381094,-4.089418,1.159686,0.049561,-0.032837,1.019791
1516,-13.183795,-1.525902,0.854505,0.044312,-0.053101,1.038956
1517,-12.878614,-0.061036,1.220722,0.039673,-0.049928,1.023941
1518,-12.634470,0.671397,1.709010,0.026856,-0.042237,1.007218
1519,-14.770733,0.793469,1.831083,0.032715,-0.047974,0.990005
1520,-15.320058,0.671397,1.342794,0.026734,-0.045655,0.974136
1521,-17.395285,0.000000,1.037613,0.016114,-0.050416,0.981949
1522,-17.212177,-0.610361,0.732433,0.023804,-0.025879,0.975113
1523,-20.935378,-0.854505,0.549325,0.010620,-0.047852,0.987686
1524,-21.728847,-1.525902,0.671397,0.027710,-0.034302,0.961563
1525,-26.306554,-1.709010,0.671397,0.038331,-0.042969,0.999649
1526,-27.466239,-1.464866,0.244144,0.036500,-0.074708,0.951064
1527,-29.175250,-0.793469,0.976577,0.036011,-0.086793,0.994522
1528,-30.457008,2.197299,4.577707,0.055299,-0.077638,1.105608
1529,-32.104982,5.859464,7.385367,0.053101,-0.111452,1.049943
1530,-28.564889,7.446403,7.385367,-0.005615,-0.098878,1.004044
1531,-29.602502,6.286717,6.836042,0.022583,-0.069459,0.993545
1532,-33.020523,5.859464,6.103609,-0.020142,-0.080568,1.006241
1533,-32.227054,3.723201,3.479057,-0.015869,-0.089357,0.994644
1534,-36.560616,1.037613,-0.427253,-0.000244,-0.094728,1.004410
1535,-37.293050,1.098650,-2.624552,0.047730,-0.168582,0.879530
1536,-32.288090,0.610361,-1.647974,-0.010620,-0.108034,1.036637
1537,-44.800488,-4.272526,-11.413748,-0.053223,-0.124392,1.047135
1538,-49.744411,-4.821851,-14.831769,0.063478,-0.305058,1.114641
1539,-31.799802,-0.183108,-2.685588,0.080079,-0.198734,1.057755
1540,-23.987182,0.915541,-3.601129,0.040162,-0.242069,1.068864
1541,-12.512398,0.915541,-1.403830,0.050904,-0.142336,1.008560
1542,-10.254063,1.098650,-4.760815,0.096803,-0.005127,1.024674
1543,-40.405890,6.897078,-9.643702,0.019898,0.093019,0.905653
1544,-70.557717,7.629511,-7.751583,0.000855,0.179324,0.788708
1545,-118.471046,6.530861,-13.672084,-0.025025,0.451423,0.725963
1546,-180.605783,-2.258335,-17.090105,-0.025391,0.326787,0.897841
1547,-240.970474,-10.376135,-14.282444,-0.095705,0.255619,0.768933
1548,-311.589227,-25.268940,-34.607462,-0.064454,0.531380,1.046525
1549,-512.458991,-33.569848,0.488289,-0.036988,0.207279,1.282002
1550,-630.502785,-53.406577,35.706111,-0.220218,0.117189,1.303609
1551,-705.455100,-69.947356,32.654307,0.065431,-0.297002,1.634180
1552,-764.904250,-81.239033,40.283818,-0.204227,-0.524788,1.874052
1553,-856.763562,-52.063783,143.556878,-1.132097,-0.743297,1.999969
1554,-222.720684,-24.658579,28.992142,-0.939345,-1.102556,1.999969
1555,284.367132,11.291676,-13.305867,-0.537606,0.588144,1.999969
1556,96.864271,23.315785,-31.738766,-0.411627,1.152361,1.532372
1557,-72.999161,-21.728847,62.867170,-0.327153,0.504768,0.512825
1558,-8.422980,-42.114900,58.228428,0.109865,0.229618,0.505745
1559,64.881361,-42.786297,29.236286,0.101198,0.604623,0.219242
1560,-2.014191,-46.875715,22.156100,0.287846,0.501106,0.541756
1561,19.653620,-28.931106,3.112840,0.221195,0.396246,0.838880
1562,51.209277,-15.503166,-15.320058,0.192630,0.573129,0.837781
1563,53.955901,-12.268254,-26.367590,0.034668,0.478889,0.937148
1564,84.596017,-18.127718,-31.555657,-0.115236,0.409308,1.004410
1565,109.987030,-28.320745,-30.640116,-0.192142,0.392462,1.067033
1566,130.312047,-34.607462,-26.245518,-0.262089,0.336919,1.209735
1567,158.693828,-32.532235,-22.705425,-0.274174,0.269169,1.239643
1568,181.887541,-21.911955,-18.310826,-0.295171,0.211429,1.218524
1569,198.184176,-8.239872,-13.427939,-0.282475,0.104372,1.201801
1570,216.861219,6.591897,-7.751583,-0.248661,0.043580,1.134173
1571,229.129473,16.540780,-1.831083,-0.202396,-0.040650,1.042741
1572,240.238041,20.263981,4.333562,-0.153079,-0.092653,0.991592
1573,246.952010,18.432898,9.704738,-0.066896,-0.121462,0.988174
1574,251.834897,17.212177,12.390326,0.011841,-0.152102,1.051774
1575,256.473640,16.662852,11.291676,0.091432,-0.164431,1.173114
1576,261.844816,19.043259,7.568475,0.119509,-0.190921,1.299214
1577,265.873198,21.301595,3.356985,0.099611,-0.230716,1.439719
1578,273.014420,23.437858,-1.464866,0.096803,-0.300175,1.445701
1579,273.685817,29.358358,-5.981537,0.109743,-0.397467,1.374289
1580,265.568017,35.278859,-10.376135,0.127199,-0.479988,1.324117
1581,252.994583,41.565576,-15.564202,0.116945,-0.540291,1.338277
1582,239.627680,46.936751,-20.569162,0.119631,-0.564706,1.422019
1583,222.232395,51.880674,-23.865110,0.105592,-0.533577,1.633204
1584,210.635538,50.232700,-26.428626,0.124025,-0.526131,1.999969
1585,216.067750,44.373236,-31.677729,0.160525,-0.553964,1.999969
1586,236.758984,40.833143,-41.809720,0.233646,-0.580819,1.999969
1587,247.257191,45.166705,-54.322118,0.243412,-0.605356,1.999969
1588,247.623407,52.857252,-65.857939,0.173342,-0.689097,1.999969
1589,249.576562,59.449149,-74.097810,0.102419,-0.758068,1.811795
1590,244.937819,64.759289,-78.187228,0.068971,-0.790173,1.624292
1591,234.073396,69.214923,-79.407950,0.075196,-0.787732,1.562036
1592,224.185550,75.562676,-80.445563,0.175174,-0.766003,1.534081
1593,210.940719,83.680476,-81.666285,0.226322,-0.805921,1.516136
1594,200.808728,89.662013,-80.506600,0.208988,-0.906508,1.493919
1595,192.751965,89.173724,-75.623713,0.133181,-1.084977,1.363180
1596,182.619974,82.887007,-65.857939,0.021363,-1.319356,1.165545
1597,163.942931,76.478218,-51.087205,-0.031983,-1.617945,1.069841
1598,138.490883,75.257496,-34.546426,0.034668,-1.979644,1.056413
1599,116.212711,84.412909,-19.531548,0.142458,-2.000031,0.913344
1600,96.681163,98.939498,-8.117800,0.167849,-2.000031,0.458137
1601,71.290150,103.700313,10.070954,0.127565,-2.000031,-0.215824
1602,16.296635,70.069429,38.635843,0.131472,-2.000031,-0.606699
1603,-40.039673,4.638743,66.529335,0.209354,-1.735256,-0.260746
1604,-75.196460,-51.636530,83.863584,0.268925,-1.640650,-0.810437
1605,-192.080568,-131.593805,60.486763,1.086320,-0.791516,0.210941
1606,-157.351034,-108.033875,48.157473,0.370489,0.100587,1.859403
1607,-85.084306,-79.835203,32.227054,-0.060060,0.932998,1.374289
1608,-137.758450,-108.827344,33.813993,-0.113527,1.104387,0.089845
1609,-267.643244,-105.348287,39.673457,0.161257,0.001709,-0.374395
1610,-316.289006,-88.441291,43.945983,0.261967,-0.367315,0.722911
1611,-310.490578,-84.779126,45.044633,0.856947,-0.285893,1.999969
1612,-239.566644,-41.260395,22.705425,1.138323,-0.337407,1.999969
1613,-149.843595,-6.164645,-4.943923,0.540414,-0.213748,1.935332
1614,-150.270848,17.395285,5.493248,-0.860609,-0.079957,1.999969
1615,-163.210498,-25.757229,35.339895,-1.345602,-0.864515,1.999969
1616,-41.199359,-75.806821,42.969406,-0.387701,-0.263920,0.900282
1617,-64.515145,-96.314946,38.635843,1.314717,0.465461,1.999969
1618,-50.720989,-37.781338,12.756542,0.932021,-0.032105,1.615869
1619,-39.612421,-9.338521,7.690547,-0.661509,-0.016480,1.018570
1620,-43.945983,-49.256123,10.376135,-0.278202,0.025879,1.023331
1621,-33.936065,-53.162432,-3.723201,0.612436,0.120851,1.278462
1622,-49.744411,-23.682002,-0.244144,-0.037476,-0.011109,1.070695
1623,-37.048905,-28.992142,1.037613,-0.138674,0.001221,1.185687
1624,-28.137636,-26.916915,-3.845274,0.300908,-0.001831,1.169085
1625,-26.062409,-7.568475,-0.976577,0.021485,-0.015747,1.176654
1626,-20.080873,-5.310140,1.892119,0.036255,-0.031495,1.096941
1627,-12.939651,-1.220722,0.915541,0.092042,0.014160,1.059586
1628,-17.822538,4.638743,2.563516,0.031617,-0.008789,1.042741
1629,-13.611048,5.615320,2.197299,0.019776,-0.001709,1.012100
1630,-15.075914,4.943923,2.685588,0.012207,-0.019043,1.020279
1631,-12.329290,4.150454,2.258335,-0.001343,-0.012818,1.015640
1632,-11.963073,1.770047,1.220722,-0.011353,-0.000855,0.988052
1633,-13.672084,-0.244144,-1.525902,-0.044556,-0.110231,0.943008
1634,-11.718929,-1.953155,-0.244144,0.004883,0.042481,1.016861
1635,-13.855192,-1.647974,0.244144,0.010498,-0.007568,1.010391
1636,-13.427939,-0.671397,0.183108,0.030274,-0.031495,1.019303
1637,-11.230640,0.793469,0.549325,0.021729,-0.024048,0.999039
1638,-12.207218,1.709010,1.342794,0.008423,-0.011475,0.987198
1639,-13.488975,1.281758,2.075227,0.002197,-0.023316,0.993179
1640,-12.817578,1.098650,2.197299,0.017823,-0.004395,0.979751
1641,-16.052491,1.281758,2.319371,0.008179,-0.025391,0.991348
1642,-15.014878,1.098650,1.831083,0.018433,-0.024292,1.012833
1643,-15.320058,1.647974,1.831083,0.005982,-0.021729,1.003677
1644,-15.747311,1.953155,1.709010,0.001221,-0.028565,0.997208
1645,-16.662852,2.258335,1.831083,0.009888,-0.027222,1.005631
1646,-17.517357,3.295949,2.014191,0.023804,-0.055299,1.035172
1647,-15.136950,4.699779,2.014191,0.005127,-0.055909,1.012222
1648,-14.221408,4.211490,2.075227,-0.007080,-0.048585,1.018814
1649,-12.817578,3.418021,1.892119,-0.012085,-0.061769,1.022477
1650,-10.742351,2.441444,1.647974,-0.009644,-0.058961,1.008682
1651,-9.887846,1.647974,1.464866,-0.011719,-0.058350,1.023575
1652,-8.850233,0.976577,1.342794,0.000000,-0.052125,1.021012
1653,-8.484016,1.037613,0.793469,0.002441,-0.054322,1.014786
1654,-7.446403,1.342794,0.732433,0.011841,-0.049561,1.001968
1655,-8.972305,1.953155,0.854505,0.008423,-0.052369,0.994766
1656,-10.131991,2.136263,1.037613,0.010010,-0.051514,1.003067
1657,-11.291676,2.990768,1.464866,0.013184,-0.057496,1.003799
1658,-11.474784,3.173877,2.197299,-0.003784,-0.059327,1.000992
1659,-11.657893,3.540093,2.563516,-0.013916,-0.066041,1.009903
1660,-10.254063,2.807660,2.807660,-0.000610,-0.067262,1.013443
1661,-10.254063,2.136263,2.441444,-0.024537,-0.052613,0.983047
1662,-11.352712,0.305180,1.892119,-0.020142,-0.065919,0.990372
1663,-11.108568,-1.281758,1.220722,-0.028321,-0.072633,0.985489
1664,-11.352712,-2.685588,0.671397,0.008911,-0.056275,1.000381
1665,-12.390326,-3.173877,0.183108,-0.013306,-0.073732,0.980850
1666,-14.221408,-3.845274,0.488289,0.005249,-0.068849,0.993179
1667,-15.564202,-4.272526,0.183108,-0.011231,-0.066163,0.988663
1668,-16.418708,-4.272526,-0.122072,0.009522,-0.045899,0.975845
1669,-19.897765,-3.723201,0.122072,-0.030518,-0.069947,0.994034
1670,-21.240558,-3.418021,0.915541,0.013916,-0.081666,1.013931
1671,-21.667811,-2.136263,2.075227,0.020020,-0.094850,1.008194
1672,-23.010605,-0.488289,4.089418,0.000732,-0.108156,1.026505
1673,-20.141909,0.244144,4.577707,-0.020752,-0.077638,0.992081
1674,-22.827497,-1.037613,5.065995,-0.027466,-0.049805,0.931777
1675,-29.907683,-3.051804,3.418021,-0.013306,-0.072755,0.959731
1676,-31.738766,-5.981537,1.464866,-0.035279,-0.065187,0.956680
1677,-36.011292,-8.300908,-0.549325,-0.011841,-0.062379,0.966201
1678,-40.222782,-9.643702,-1.586938,-0.011475,-0.088258,0.997330
1679,-39.185168,-7.812619,-2.258335,0.036500,-0.113405,1.040665
1680,-41.504540,-6.286717,-4.455634,-0.005249,-0.112306,0.990249
1681,-39.551385,-6.164645,-5.004959,-0.002564,-0.115602,1.103777
1682,-50.049592,-7.873655,-10.620279,-0.040772,-0.186893,1.025528
1683,-50.415808,-8.972305,-11.047532,0.040528,-0.192142,0.979995
1684,-43.213550,-5.188067,-3.112840,0.062867,-0.216678,1.062272
1685,-39.551385,-3.540093,-2.685588,0.045777,-0.203250,1.060563
1686,-35.095750,-3.173877,-3.479057,0.041505,-0.177737,1.049454
1687,-41.199359,1.281758,-4.089418,0.022705,-0.097169,0.985245
1688,-57.679103,1.953155,-10.009918,-0.003662,0.026001,0.932509
1689,-77.454795,0.366217,-9.704738,0.016236,0.151125,0.852552
1690,-116.456855,1.770047,-9.704738,-0.061402,0.263066,0.918349
1691,-157.473106,-8.850233,-20.691234,0.142092,0.232547,0.740612
1692,-183.047227,-5.981537,-31.433585,0.116091,0.409308,1.169818
1693,-303.776608,-12.878614,-51.026169,0.044923,0.495979,1.346090
1694,-482.490272,-5.371176,-13.000687,-0.058961,0.131472,1.352071
1695,-577.096208,-24.170291,7.812619,-0.164553,-0.082033,0.887221
1696,-661.570153,-49.317159,31.311513,0.064088,-0.290898,1.309712
1697,-722.240024,-67.322805,59.205005,-0.150393,-0.305303,0.843397
1698,-784.679942,-124.025330,86.671244,0.627695,-2.000031,1.999969
1699,-582.223240,-109.315633,101.197833,-0.615244,-0.804944,1.999969
1700,90.089265,-126.710918,-26.428626,-0.086671,0.721569,1.999969
1701,236.820020,-54.749371,-61.463340,0.074220,1.565698,1.999969
1702,59.143969,-8.361944,-34.119173,-0.034668,1.059464,1.598901
1703,-10.559243,-1.892119,-25.268940,-0.256840,0.269291,1.076921
1704,114.747845,38.269627,-36.865797,-0.204715,0.218143,0.436408
1705,96.131838,31.128405,-33.508812,-0.214969,0.357061,-0.020264
1706,45.410849,10.620279,-18.982223,-0.201297,0.122683,0.301884
1707,85.450523,-1.403830,-13.855192,-0.146609,0.207156,0.466926
1708,93.934539,-17.578393,-8.422980,-0.124636,0.360113,0.622690
1709,96.375982,-30.212863,-4.638743,-0.110964,0.316655,0.982193
1710,132.021057,-27.588312,-7.568475,-0.027344,0.376837,1.163836
1711,156.435492,-15.869383,-14.343481,0.005371,0.401740,1.251606
1712,178.591592,0.000000,-22.095064,-0.017456,0.276738,1.241718
1713,205.691615,17.212177,-28.747997,-0.093996,0.179812,1.215473
1714,223.697261,27.466239,-29.480430,-0.149416,0.076295,1.122942
1715,239.261463,34.180209,-26.062409,-0.183230,-0.025879,1.091203
1716,251.895933,38.879988,-19.958801,-0.180545,-0.091066,1.139300
1717,260.318914,37.476158,-11.291676,-0.158450,-0.125246,1.281514
1718,274.174105,31.311513,-3.051804,-0.105226,-0.178225,1.364523
1719,290.287633,27.283131,1.159686,-0.017945,-0.248051,1.284688
1720,293.522545,32.837415,0.244144,0.085939,-0.424567,0.922866
1721,279.240101,52.918288,-4.394598,0.218143,-0.591684,0.541634
1722,244.266423,68.421454,-6.897078,0.204959,-0.574350,0.532235
1723,210.086213,60.364691,-9.582666,0.152956,-0.535042,0.795178
1724,195.803769,41.870756,-12.695506,0.195560,-0.375128,1.345846
1725,184.023804,34.546426,-17.273213,0.207767,-0.264652,1.999969
1726,193.667506,31.311513,-25.513085,0.288579,-0.372076,1.999969
1727,230.838483,42.175937,-39.429313,0.265751,-0.521126,1.999969
1728,245.243000,54.871443,-51.148241,0.167605,-0.645518,1.841825
1729,226.382849,63.111315,-52.979324,-0.018921,-0.782238,1.733059
1730,220.950637,62.989242,-51.636530,-0.108522,-0.954604,1.592676
1731,210.635538,67.994202,-45.838102,-0.159548,-0.891005,1.664454
1732,192.324712,75.562676,-38.941024,-0.158816,-0.914321,1.830716
1733,193.057145,87.586786,-35.400931,-0.073976,-0.894423,1.826932
1734,191.958495,105.714504,-35.278859,0.019898,-0.887953,1.628931
1735,182.619974,124.696727,-37.415122,0.104494,-0.890517,1.353292
1736,168.276493,135.194934,-39.368276,0.171756,-0.860243,1.337667
1737,155.031662,131.410697,-37.720302,0.218387,-0.871107,1.595483
1738,163.271534,113.099870,-32.959487,0.246342,-0.910780,1.770901
1739,181.216144,86.488136,-26.550698,0.266728,-0.984146,1.765286
1740,192.385748,62.561990,-18.493935,0.265873,-1.174456,1.565332
1741,199.771115,47.058824,-11.718929,0.247074,-1.457298,1.142840
1742,184.817273,42.359045,-4.211490,0.213504,-1.781643,0.749157
1743,151.979858,41.077287,4.882887,0.190188,-2.000031,0.516976
1744,123.109789,39.429313,10.742351,0.243168,-2.000031,0.170657
1745,94.300755,36.987869,14.404517,0.257572,-2.000031,-0.288823
1746,41.870756,35.400931,15.747311,0.190921,-2.000031,-0.579721
1747,-22.156100,11.535821,28.320745,-0.080079,-2.000031,-1.979522
1748,-166.567483,-106.324865,57.129778,0.391241,-1.434348,-1.451804
1749,-178.469520,-156.252384,54.749371,0.699596,-0.123049,1.196796
1750,-92.896925,-111.818112,17.883574,0.117433,1.017960,1.999969
1751,-138.246738,-98.207065,16.968032,-0.572274,1.237079,1.302022
1752,-238.529030,-112.855726,38.269627,-0.269291,0.071290,-0.042237
1753,-271.732662,-105.958648,45.166705,0.244877,-0.433112,0.361212
1754,-284.061952,-86.671244,50.415808,0.553353,-0.306645,1.999969
1755,-245.670253,-66.651408,36.804761,1.224018,-0.151125,1.999969
1756,-158.571756,-10.376135,4.577707,0.707530,-0.312871,1.999969
1757,-136.903944,-17.395285,19.531548,-0.694591,-0.160281,1.999969
1758,-85.999847,-13.305867,26.977951,-0.726574,-0.703014,1.570947
1759,-19.043259,-48.584726,36.438544,0.068116,0.163577,1.319234
1760,-53.223468,-39.124132,28.076600,0.763928,0.245243,1.636744
1761,-27.527276,-9.460594,8.911269,0.272221,0.079347,1.140642
1762,-41.199359,-7.080186,10.193027,-0.476204,0.016968,1.092912
1763,-37.659266,-30.151827,11.596857,-0.040284,-0.029664,1.085954
1764,-26.672770,-28.503853,3.234913,0.273075,0.156130,1.209003
1765,-38.513771,-17.029068,0.122072,-0.007691,0.041382,1.031754
1766,-35.278859,-21.545739,-1.037613,-0.185061,-0.026734,1.029313
1767,-29.358358,-27.893492,-1.770047,0.095827,0.023560,1.164080
1768,-28.381781,-17.273213,-1.831083,0.131838,-0.026856,1.184344
1769,-20.141909,-7.080186,-0.854505,0.015625,-0.018433,1.071183
1770,-19.043259,-2.929732,1.098650,0.028443,0.018921,1.095354
1771,-18.127718,0.488289,2.258335,0.006592,0.015015,1.031754
1772,-17.639429,1.037613,2.319371,-0.018189,0.009033,0.996963
1773,-17.944610,0.366217,2.380407,0.006104,-0.002197,1.034440
1774,-15.991455,0.244144,2.258335,0.007324,-0.014649,0.997818
1775,-14.831769,-0.427253,2.502480,-0.020386,-0.010986,0.972061
1776,-15.197986,-2.929732,2.685588,-0.042847,0.000000,0.980728
1777,-15.991455,-5.798428,2.380407,-0.030518,-0.014405,1.005020
1778,-14.770733,-7.141222,1.831083,-0.018067,-0.018433,1.013443
1779,-14.465553,-7.934691,1.831083,-0.014405,-0.027710,1.024430
1780,-12.817578,-9.704738,1.403830,-0.017090,-0.023560,0.999283
1781,-13.122759,-12.329290,1.098650,-0.027588,-0.013916,0.971572
1782,-14.465553,-16.479744,0.671397,-0.066041,0.034546,0.988296
1783,-15.564202,-22.034028,1.464866,0.031495,0.082033,0.860609
1784,-20.325017,-22.034028,-0.427253,-0.001709,-0.060914,0.966934
1785,-16.906996,-22.034028,-1.525902,0.009766,-0.030884,1.037980
1786,-20.141909,-20.263981,-1.159686,0.039185,-0.040772,1.014176
1787,-18.554971,-17.456321,-0.854505,0.035279,-0.052003,1.019669
1788,-18.616007,-15.197986,0.000000,0.025391,-0.022583,1.002457
1789,-21.606775,-13.000687,0.732433,0.045411,-0.043946,1.004654
1790,-21.850919,-10.803388,1.342794,0.033814,-0.046509,1.019913
1791,-21.667811,-9.643702,1.342794,0.022705,-0.056886,1.007218
1792,-21.179522,-9.521630,1.220722,0.018067,-0.053712,1.026139
1793,-20.202945,-9.948882,0.671397,0.025757,-0.058106,1.022599
1794,-19.043259,-10.131991,-0.366217,0.021485,-0.052491,0.985367
1795,-21.301595,-10.925460,-1.037613,0.023926,-0.064820,1.008072
1796,-20.752270,-10.193027,-1.098650,0.041749,-0.085695,1.035782
1797,-18.127718,-8.850233,-0.915541,0.050660,-0.083497,1.025772
1798,-19.531548,-7.568475,-0.244144,0.027344,-0.062501,1.015885
1799,-17.700465,-7.263294,0.000000,0.039551,-0.091920,1.043107
1800,-14.892805,-6.103609,-0.244144,0.040284,-0.099733,1.049210
1801,-13.427939,-4.699779,0.122072,0.052369,-0.103273,1.039200
1802,-11.047532,-3.295949,0.305180,0.053590,-0.093263,1.014664
1803,-11.169604,-2.136263,0.671397,0.054810,-0.093507,1.016251
1804,-11.902037,-0.793469,1.037613,0.045655,-0.060914,0.979751
1805,-16.235599,0.061036,1.098650,0.046143,-0.040162,0.957412
1806,-23.865110,0.488289,0.671397,0.038819,-0.069215,0.964981
1807,-25.391012,0.061036,0.671397,0.032349,-0.096071,1.012100
1808,-24.414435,0.244144,0.793469,0.037720,-0.095705,1.006485
1809,-24.841688,0.671397,1.098650,0.048341,-0.086671,1.038712
1810,-23.193713,0.793469,0.976577,0.047730,-0.116213,1.037613
1811,-20.935378,1.098650,1.037613,0.042725,-0.115724,0.987198
1812,-22.034028,0.732433,1.098650,0.037354,-0.141604,1.020768
1813,-18.799115,0.305180,0.732433,0.035279,-0.130983,1.034562
1814,-16.357671,-0.244144,0.000000,0.031983,-0.147219,1.010147
1815,-13.488975,-0.915541,-0.366217,0.028687,-0.142458,1.021866
1816,-11.841001,-1.709010,-0.183108,0.027588,-0.157717,1.015274
1817,-9.216449,-2.868696,-0.671397,0.016358,-0.110109,1.005997
1818,-11.535821,-4.638743,-1.586938,0.022339,-0.124269,0.997208
1819,-10.925460,-5.676356,-2.258335,0.028565,-0.138064,1.007584
1820,-10.131991,-6.103609,-2.319371,0.051270,-0.135134,1.014054
1821,-10.315099,-5.310140,-2.502480,0.049805,-0.131716,1.020157
1822,-10.742351,-4.699779,-2.075227,0.041138,-0.122438,1.005997
1823,-12.878614,-3.418021,-0.366217,0.081788,-0.118288,1.021622
1824,-14.831769,-0.793469,0.793469,0.033448,-0.134035,1.008682
1825,-15.136950,0.183108,2.014191,0.076905,-0.116579,1.009537
1826,-19.226368,2.685588,3.051804,0.053346,-0.128176,0.997574
1827,-21.057450,4.699779,4.028382,0.075563,-0.144167,1.008927
1828,-23.071641,6.775006,5.127031,0.051514,-0.166751,1.014054
1829,-20.080873,7.324331,5.798428,0.053834,-0.171511,1.036881
1830,-20.325017,8.117800,6.347753,0.046998,-0.177371,1.009537
1831,-18.432898,8.117800,6.103609,0.034302,-0.191897,1.006607
1832,-16.296635,7.751583,5.371176,0.037964,-0.194705,1.018082
1833,-14.221408,7.324331,4.272526,0.036133,-0.187259,1.028458
1834,-12.634470,7.324331,3.356985,0.037110,-0.189334,1.023819
1835,-10.681315,7.324331,2.502480,0.032349,-0.195926,1.004044
1836,-8.911269,7.202258,1.647974,0.045167,-0.197269,1.023819
1837,-8.117800,7.568475,1.464866,0.007813,-0.197391,1.001480
1838,-6.042573,6.775006,1.342794,0.019532,-0.178592,0.985367
1839,-8.300908,6.286717,1.647974,0.023316,-0.202640,1.004898
1840,-5.371176,5.981537,2.014191,0.019532,-0.205570,1.014420
1841,-2.685588,6.103609,1.403830,0.032227,-0.190555,1.005631
1842,-1.464866,6.652934,1.098650,0.013184,-0.184939,1.036393
1843,2.685588,8.606088,1.220722,0.026246,-0.190921,1.016617
1844,1.403830,8.056764,0.366217,0.013794,-0.212894,1.031144
1845,1.403830,8.178836,0.122072,0.021973,-0.166140,0.992691
1846,0.366217,7.812619,-1.403830,0.014038,-0.153811,0.989639
1847,-1.953155,7.202258,-2.380407,0.011109,-0.154177,0.974868
1848,-4.821851,6.042573,-3.173877,-0.013794,-0.143557,0.918227
1849,-9.704738,3.173877,-4.821851,0.004517,-0.106081,0.931533
1850,-18.066682,0.976577,-5.859464,-0.048829,-0.132204,0.845228
1851,-28.686961,-4.516670,-6.164645,-0.058106,-0.062257,0.953872
1852,-40.527962,-9.216449,-11.352712,0.033936,-0.196780,0.996231
1853,-41.748684,-7.263294,-8.422980,0.013428,-0.206912,1.002457
1854,-40.344854,-7.934691,-10.681315,0.024292,-0.217777,0.969131
1855,-46.448463,-8.361944,-10.864424,0.037110,-0.174197,0.990005
1856,-54.016938,-6.897078,-10.620279,0.036378,-0.118898,0.975479
1857,-66.590372,-5.127031,-9.338521,0.046509,-0.173098,1.012222
1858,-71.656367,-2.685588,-8.239872,0.069093,-0.223880,1.004776
1859,-74.341955,-0.244144,-10.925460,0.074586,-0.247196,1.009537
1860,-79.468986,2.624552,-9.826810,0.007202,-0.249516,0.995132
1861,-83.680476,0.000000,-13.611048,0.024903,-0.143679,1.010391
1862,-101.197833,-0.061036,-13.305867,0.023804,-0.156741,0.958877
1863,-123.476005,2.014191,-11.963073,0.097414,-0.267460,1.110491
1864,-117.738613,6.042573,-14.465553,0.050660,-0.215091,1.035416
1865,-130.128939,4.028382,-16.601816,0.022583,-0.134890,1.060319
1866,-150.209812,8.300908,-19.226368,0.142336,-0.162478,1.176043
1867,-160.891127,21.667811,-18.188754,0.028931,-0.058106,1.541039
1868,-145.693141,25.391012,-8.484016,-0.263920,0.313603,1.352071
1869,-145.998322,11.779965,23.315785,-0.707897,-0.058717,1.866606
1870,-48.218509,-44.556344,2.746624,-0.656016,-0.412116,1.999969
1871,128.419928,-29.297322,-0.122072,-0.391119,0.443488,1.808743
1872,90.394446,-28.137636,17.639429,-0.254643,0.284916,1.018326
1873,92.530709,-16.296635,20.447089,-0.109133,0.032349,0.831312
1874,115.297169,-5.859464,16.968032,-0.039551,0.160891,0.622690
1875,99.794003,-5.127031,14.648661,0.033570,0.120485,0.762219
1876,113.588159,-4.211490,8.850233,0.040284,0.146975,0.945693
1877,125.307088,-2.380407,2.319371,0.038941,0.164675,1.032609
1878,136.842908,0.305180,-2.990768,0.008789,0.111940,1.015518
1879,149.660487,3.356985,-6.775006,-0.056764,0.060304,0.883925
1880,153.627832,4.577707,-7.141222,-0.124880,0.007691,0.714000
1881,153.139544,4.577707,-4.821851,-0.155886,-0.019654,0.671885
1882,149.355306,6.591897,-1.770047,-0.152468,-0.026978,0.734997
1883,146.120394,10.620279,1.647974,-0.141970,-0.020752,0.878431
1884,147.158007,12.939651,4.699779,-0.119387,-0.005737,1.025040
1885,151.613642,11.963073,6.897078,-0.072023,-0.014893,1.105486
1886,155.642023,12.085145,7.507439,-0.015747,-0.024903,1.170916
1887,157.534142,18.799115,6.591897,0.013428,-0.064698,1.246967
1888,158.144503,29.236286,6.469825,-0.045411,-0.153079,1.265888
1889,159.487297,36.682689,9.948882,-0.133181,-0.263676,1.202167
