Packet number,Gyroscope X (deg/s),Gyroscope Y (deg/s),Gyroscope Z (deg/s),Accelerometer X (g),Accelerometer Y (g),Accelerometer Z (g)
0,0.305180,0.000000,0.000000,0.002441,-0.000977,0.999405
1,-0.183108,-0.061036,0.000000,-0.001343,0.003540,0.991226
2,0.000000,0.061036,0.000000,0.000488,-0.000855,1.002335
3,0.122072,0.000000,0.000000,0.006104,0.003296,0.998795
4,-0.122072,-0.061036,0.000000,0.006836,-0.003662,0.997696
5,0.122072,0.000000,0.000000,0.000732,-0.000610,1.002213
6,-0.061036,0.000000,0.000000,0.003174,0.000000,0.992691
7,0.000000,0.122072,-0.122072,-0.001587,0.001221,0.994156
8,-0.427253,-0.244144,0.000000,-0.002930,0.001343,0.997086
9,-0.488289,-0.366217,0.000000,0.001343,-0.002197,1.005142
10,-0.061036,-0.244144,-0.183108,0.008545,0.004883,0.998550
11,-0.488289,-0.183108,-0.122072,-0.000244,-0.001831,0.999771
12,-0.183108,-0.244144,-0.122072,0.004517,0.001343,1.001724
13,-0.427253,-0.244144,-0.122072,0.004028,-0.001099,0.997208
14,-0.061036,-0.183108,-0.122072,0.002808,-0.003174,0.995499
15,0.061036,0.061036,-0.122072,-0.001343,-0.000366,1.003677
16,0.000000,0.000000,0.000000,0.006348,0.005859,1.000992
17,0.000000,0.000000,0.000000,0.004395,0.004883,0.996353
18,-0.549325,-0.061036,0.000000,0.002930,-0.001221,0.996963
19,-0.305180,-0.183108,0.000000,-0.001221,-0.002441,0.994522
20,0.000000,-0.244144,0.000000,0.005249,-0.001465,0.999283
21,-0.366217,-0.366217,0.000000,0.003296,0.004150,0.996963
22,-0.366217,-0.305180,-0.122072,-0.003052,-0.006226,1.003433
23,0.183108,-0.183108,0.000000,-0.000977,0.004639,0.989517
24,-0.427253,-0.427253,0.000000,0.001953,-0.000610,1.006363
25,-0.305180,-0.244144,-0.122072,0.002441,0.000122,1.004654
26,-0.366217,-0.488289,0.000000,0.009033,-0.000610,0.998917
27,0.122072,-0.244144,0.000000,0.008301,0.004395,1.001968
28,-0.671397,-0.061036,-0.183108,-0.004761,0.004028,0.993790
29,-0.366217,-0.427253,0.000000,0.001099,-0.005005,1.003799
30,0.183108,-0.183108,-0.183108,0.001343,0.002930,0.997452
31,-0.366217,-0.366217,0.000000,0.008667,0.005249,0.996719
32,-0.244144,-0.061036,-0.244144,0.006836,-0.000610,0.993423
33,-0.488289,-0.244144,0.000000,0.005615,-0.010376,1.002457
34,0.488289,0.122072,0.000000,0.002319,0.002686,1.000015
35,-0.183108,0.000000,0.000000,-0.002319,0.000977,0.999893
36,0.366217,0.122072,0.000000,0.003052,0.001953,1.001846
37,0.122072,0.183108,0.000000,0.002441,0.003052,0.995499
38,0.000000,0.061036,0.000000,-0.000855,0.001587,1.002579
39,-0.305180,-0.244144,0.000000,0.005615,-0.000488,0.995987
40,-0.061036,-0.122072,-0.122072,0.002319,-0.000366,1.002579
41,0.122072,0.000000,0.000000,0.004395,-0.000977,0.992325
42,0.000000,0.000000,0.000000,0.004883,0.000610,0.996231
43,0.061036,0.061036,0.000000,0.000122,0.004395,0.997696
44,-0.061036,0.061036,-0.183108,0.005005,-0.000855,0.995499
45,0.244144,0.061036,-0.183108,0.005005,0.004761,0.989517
46,-0.366217,-0.061036,0.000000,-0.000977,0.000610,0.996353
47,0.000000,0.000000,-0.122072,0.007446,-0.008301,1.004898
48,0.000000,0.061036,0.000000,-0.002564,0.000000,0.996475
49,0.000000,0.000000,-0.122072,0.002808,-0.001099,0.991104
50,-0.183108,-0.061036,-0.183108,0.002808,-0.000732,0.993301
51,0.122072,0.183108,0.000000,0.007080,0.000855,1.000259
52,0.000000,0.122072,0.000000,0.000977,-0.000122,0.997086
53,-0.183108,-0.061036,0.000000,0.004639,-0.002441,1.003311
54,0.122072,0.000000,0.061036,0.000977,-0.000244,1.004532
55,0.000000,0.061036,-0.122072,0.004273,0.000366,0.995377
56,-0.061036,0.000000,0.000000,0.001221,0.005249,0.998917
57,-0.122072,-0.061036,0.000000,0.001099,0.000855,0.994766
58,-0.305180,-0.061036,0.000000,-0.002075,0.006348,0.990738
59,-0.122072,-0.061036,-0.122072,0.000244,-0.002075,1.001968
60,0.000000,0.061036,0.000000,0.004517,0.001587,0.993057
61,0.000000,0.000000,-0.122072,0.001953,0.000855,0.997330
62,-0.305180,-0.061036,-0.122072,0.003418,0.002441,0.998428
63,-0.122072,-0.061036,-0.122072,0.005859,0.003540,0.993545
64,-0.305180,0.000000,-0.122072,0.003052,0.004639,1.000259
65,-0.183108,-0.061036,-0.122072,0.001587,-0.002441,1.001114
66,-0.061036,0.000000,0.061036,0.000855,-0.002441,1.002213
67,0.061036,0.183108,-0.122072,0.003296,0.003174,0.995621
68,-0.122072,0.061036,-0.122072,-0.000732,-0.003296,0.997330
69,-0.122072,0.000000,0.000000,0.005005,-0.000610,1.004898
70,0.000000,0.305180,-0.183108,0.000855,0.004150,1.001602
71,-0.427253,0.183108,0.000000,0.001221,0.000977,1.001358
72,-0.244144,-0.061036,0.000000,0.007568,-0.002808,1.005509
73,0.183108,0.305180,0.000000,0.004883,0.003052,0.993668
74,-0.061036,0.183108,-0.122072,0.001221,-0.000122,1.001968
75,0.061036,0.305180,0.000000,0.002441,0.000122,0.999527
76,-0.122072,0.244144,0.000000,-0.000122,-0.003296,1.000748
77,0.488289,0.366217,0.000000,0.007813,-0.001465,0.995987
78,0.427253,0.488289,-0.122072,-0.000855,0.007080,0.987808
79,-0.122072,0.305180,-0.183108,0.001587,-0.002686,0.996353
80,0.244144,0.305180,-0.183108,-0.001343,0.004883,0.986954
81,-0.610361,0.000000,-0.122072,0.002930,-0.003174,1.000504
82,0.122072,0.366217,-0.122072,0.000000,-0.001587,1.002457
83,-0.244144,0.122072,-0.122072,0.007935,-0.001953,0.991470
84,-0.183108,0.244144,0.000000,0.005005,-0.004150,1.005509
85,0.427253,0.427253,-0.183108,0.005493,0.001221,0.992569
86,0.000000,0.366217,-0.122072,0.001587,-0.003540,0.996475
87,0.061036,0.427253,-0.122072,0.001221,-0.000855,0.997574
88,0.305180,0.488289,-0.122072,0.002075,0.001709,0.998917
89,0.000000,0.427253,0.000000,0.002441,0.005615,0.993912
90,-0.061036,0.366217,-0.122072,-0.001221,-0.001587,1.002090
91,0.061036,0.488289,-0.183108,0.002441,-0.004761,0.999039
92,0.183108,0.671397,-0.183108,-0.003052,-0.001465,1.002335
93,-0.061036,0.610361,0.000000,-0.001831,-0.003540,0.996719
94,0.000000,0.671397,0.000000,0.005859,0.002686,1.000137
95,0.427253,0.732433,-0.183108,-0.002930,0.004395,0.996597
96,-0.061036,0.488289,0.000000,-0.001221,-0.002075,0.988785
97,-0.061036,0.488289,0.000000,0.001831,0.004517,1.000137
98,-0.244144,0.305180,0.061036,0.004395,0.002319,1.007706
99,0.183108,0.488289,-0.244144,-0.010010,-0.000855,0.992813
100,-0.305180,0.000000,-0.183108,-0.001709,0.000488,1.003677
101,0.061036,0.244144,-0.183108,0.000610,-0.001221,1.003555
102,-0.122072,0.244144,-0.244144,-0.005615,0.001587,0.995132
103,-0.427253,0.122072,-0.183108,-0.003174,-0.003418,0.999771
104,-0.366217,0.183108,-0.183108,0.000855,0.002197,0.996475
105,-0.244144,0.183108,-0.183108,-0.000366,0.001343,0.994888
106,-0.244144,0.122072,-0.183108,-0.000855,-0.002197,0.996841
107,-0.305180,-0.061036,-0.122072,0.002808,-0.000488,0.994888
108,-0.122072,-0.061036,-0.183108,0.001343,0.001953,0.991714
109,-0.305180,-0.183108,-0.244144,-0.003784,0.004150,0.999405
110,-0.183108,-0.305180,-0.122072,0.002808,-0.003296,1.003922
111,-0.305180,-0.305180,-0.244144,-0.003296,0.000610,0.995865
112,-0.183108,-0.427253,-0.183108,-0.002197,0.001343,0.994644
113,-0.671397,-0.549325,-0.122072,-0.005982,0.000366,0.995621
114,-0.427253,-0.488289,0.000000,0.002930,-0.007324,1.001968
115,-0.061036,-0.244144,-0.122072,-0.000855,0.001709,0.999283
116,-0.244144,-0.061036,0.000000,-0.005249,-0.002197,0.994644
117,0.061036,0.000000,0.000000,-0.004761,0.000000,1.001846
118,-0.122072,-0.366217,0.183108,-0.006348,0.000855,0.994156
119,-0.610361,-0.549325,0.122072,-0.002197,-0.005493,0.998917
120,-0.061036,-0.549325,0.244144,-0.005127,-0.005127,0.994522
121,-0.061036,-0.732433,0.244144,-0.003906,0.005493,0.999039
122,-0.183108,-0.976577,0.244144,-0.009400,0.003418,0.990494
123,-0.732433,-1.159686,0.122072,0.006470,0.000855,1.004776
124,-0.122072,-1.159686,0.000000,-0.011597,0.000000,0.990127
125,-0.976577,-2.746624,0.427253,0.010864,0.010498,0.993301
126,-2.075227,-1.709010,-0.244144,0.012573,0.001587,1.000259
127,-2.197299,-1.464866,0.183108,-0.015869,-0.025513,1.025162
128,2.624552,-1.281758,-0.183108,0.033448,0.022461,0.983047
129,-2.807660,-0.915541,0.000000,-0.004517,-0.009766,1.009293
130,0.610361,-0.549325,0.000000,-0.002075,-0.013916,1.030411
131,1.403830,-0.122072,0.000000,0.019043,0.004150,0.991714
132,0.122072,0.061036,0.000000,-0.002930,-0.001709,0.998795
133,0.976577,0.000000,0.183108,0.002319,-0.003906,1.002823
134,1.464866,0.000000,0.183108,0.004150,0.009277,0.990249
135,0.488289,-0.366217,0.244144,-0.005371,0.005249,0.991836
136,0.305180,-0.671397,0.305180,-0.001953,-0.005982,1.000381
137,0.854505,-0.854505,0.061036,-0.012573,-0.009522,1.023697
138,2.258335,-1.403830,0.244144,0.014160,-0.015625,1.055192
139,6.897078,-1.647974,-0.427253,-0.049683,-0.016724,1.094865
140,10.681315,-1.525902,-0.915541,0.007813,-0.005859,0.917250
141,5.737392,-1.831083,0.122072,0.006348,0.012573,0.947280
142,2.746624,-2.136263,0.244144,0.006470,-0.021118,1.012955
143,5.188067,-1.098650,0.000000,0.008911,0.012329,0.996475
144,2.929732,-0.488289,0.183108,0.002564,0.004883,0.968643
145,1.647974,-0.610361,0.183108,-0.001587,0.000488,0.997452
146,1.831083,-0.854505,0.122072,0.002075,0.009400,0.990616
147,1.464866,-0.976577,0.000000,0.010742,0.016724,0.991836
148,0.610361,-1.098650,0.122072,0.011231,0.004761,1.010025
149,1.281758,-0.610361,-0.122072,0.006348,0.002319,1.025040
150,2.746624,-0.488289,0.000000,0.018555,0.007691,1.068009
151,4.577707,0.488289,-0.427253,0.006958,-0.027222,1.065812
152,11.047532,0.976577,-0.732433,0.005737,0.007568,1.024674
153,11.963073,1.892119,-1.159686,-0.003540,0.029664,0.953140
154,8.178836,0.915541,-0.366217,-0.003906,0.027100,0.963760
155,7.934691,0.671397,-0.366217,-0.001953,0.048219,0.915297
156,2.319371,-0.549325,-0.671397,-0.015625,0.057130,0.903700
157,-4.882887,-2.624552,0.000000,-0.005737,0.007446,0.994278
158,-1.220722,-2.441444,-0.183108,0.026123,-0.004273,1.032120
159,1.403830,-0.915541,-0.366217,0.012085,0.011109,1.010513
160,1.037613,-0.366217,-0.183108,0.002930,0.020386,1.015274
161,1.770047,-0.244144,-0.366217,0.005371,0.027588,0.978164
162,0.122072,-0.793469,-0.488289,0.004150,0.026978,0.980117
163,-1.403830,-1.464866,-0.244144,0.009888,0.000488,1.004776
164,2.075227,-0.549325,-0.366217,0.005859,0.004150,1.018326
165,2.807660,-0.488289,0.061036,0.000855,0.018067,0.988663
166,2.624552,-0.915541,0.427253,-0.008789,0.033814,0.931289
167,-0.427253,-2.746624,0.793469,-0.017334,0.035035,0.964981
168,-2.746624,-4.089418,0.976577,0.007080,0.009033,0.996719
169,-1.098650,-3.295949,0.854505,0.012818,0.010254,1.049454
170,-0.183108,-1.464866,0.732433,0.019776,-0.012573,1.059098
171,4.333562,0.488289,0.976577,-0.014160,-0.002686,1.023209
172,6.042573,1.159686,1.342794,0.008423,0.011841,0.985977
173,5.493248,0.915541,1.342794,0.015015,0.032837,0.973404
174,4.150454,1.037613,0.915541,0.021118,0.044434,0.941543
175,-0.793469,1.525902,1.342794,0.025391,0.034180,0.973281
176,-1.037613,2.319371,1.159686,0.010986,0.014649,1.008194
177,-0.244144,2.258335,1.342794,0.012207,0.010376,1.007340
178,0.793469,2.563516,0.915541,0.023804,0.004761,1.005142
179,2.014191,2.929732,0.793469,0.013916,0.018189,1.004288
180,2.441444,2.685588,0.671397,0.002197,0.023926,0.995499
181,2.014191,2.014191,0.427253,-0.018555,0.028077,0.974258
182,1.281758,-0.122072,0.244144,-0.015137,0.031250,0.971817
183,-0.427253,-1.586938,0.549325,-0.008301,0.026856,0.984390
184,0.061036,-2.197299,0.488289,-0.009888,0.020142,0.985733
185,0.610361,-2.868696,0.732433,-0.004028,0.028443,0.988540
186,-0.122072,-3.479057,0.732433,0.008057,0.014893,1.022599
187,1.709010,-1.586938,0.549325,0.012818,0.003418,1.052262
188,3.784237,1.098650,0.854505,0.064454,0.020874,1.062882
189,4.577707,6.836042,0.793469,0.030884,0.035767,0.988052
190,1.831083,11.718929,0.427253,0.066407,0.072389,1.009537
191,-4.028382,15.564202,0.488289,0.022339,0.022339,1.011002
192,-2.868696,16.845960,0.671397,0.005005,0.022950,1.003555
193,-2.929732,16.968032,0.671397,0.005127,0.034913,1.000015
194,-4.516670,15.686275,0.976577,-0.023682,0.007691,1.012589
195,-1.831083,13.916228,0.976577,-0.031373,0.011109,1.001602
196,0.000000,11.718929,0.366217,-0.034058,0.025513,0.958633
197,-1.953155,8.422980,0.061036,-0.048341,0.026612,0.958755
198,-2.136263,5.554284,-0.305180,-0.035035,0.022583,0.993668
199,-1.953155,4.150454,-0.488289,-0.020386,0.006714,1.003311
200,-0.427253,4.150454,-0.366217,-0.011109,0.007202,1.025162
201,1.709010,4.699779,-0.305180,-0.010132,0.019654,0.997818
202,1.098650,5.249104,-0.122072,-0.010986,0.031739,0.974014
203,-1.709010,5.004959,0.122072,-0.024292,0.027466,0.970718
204,-2.502480,4.699779,0.244144,-0.025391,0.029297,0.986709
205,-3.356985,4.638743,0.305180,-0.023560,0.022705,0.977066
206,-3.967346,3.967346,0.427253,-0.039307,0.030030,0.967300
207,-6.042573,2.929732,0.244144,-0.030152,0.034791,0.967544
208,-7.812619,2.075227,0.427253,-0.031006,0.020752,0.987808
209,-7.019150,1.159686,0.305180,-0.046387,0.029053,0.960342
210,-10.437171,-0.305180,0.366217,-0.033326,0.015747,0.992935
211,-8.850233,-0.793469,0.000000,-0.023682,0.007935,1.003555
212,-8.667124,-1.403830,-0.305180,-0.038819,0.011475,1.000259
213,-8.850233,-2.502480,-0.488289,-0.028565,0.002441,1.018936
214,-7.446403,-2.746624,-0.610361,-0.026368,0.011475,0.995743
215,-7.080186,-3.234913,-0.854505,-0.013184,0.026856,0.973281
216,-10.620279,-3.967346,-0.549325,-0.025879,0.002319,0.983413
217,-9.521630,-4.760815,-0.366217,-0.031983,0.012207,0.971450
218,-11.474784,-7.141222,0.244144,-0.029786,0.007080,0.964981
219,-13.244831,-9.216449,0.366217,-0.036500,-0.000610,0.982681
220,-12.207218,-10.742351,0.244144,-0.040040,-0.000855,0.978286
221,-12.634470,-12.878614,0.305180,-0.028443,0.005982,0.974624
222,-14.526589,-14.343481,0.427253,-0.034913,-0.016602,0.981094
223,-13.305867,-15.686275,0.305180,-0.016968,-0.006348,0.993423
224,-14.099336,-16.296635,0.366217,-0.024414,-0.017212,0.987198
225,-13.916228,-17.151141,0.732433,0.000977,-0.006958,1.012345
226,-15.564202,-16.052491,0.427253,0.015015,-0.024292,1.009415
227,-13.305867,-14.831769,0.793469,0.018433,-0.026246,1.006729
228,-13.305867,-13.794156,1.098650,0.014405,-0.022095,0.964736
229,-16.052491,-14.282444,2.014191,0.002686,-0.010742,0.969375
230,-17.517357,-16.296635,1.770047,-0.028565,-0.002930,0.950942
231,-20.386053,-18.921187,1.098650,-0.018189,-0.019165,0.976455
232,-22.217136,-20.386053,0.732433,0.021118,-0.055055,1.036759
233,-17.395285,-18.982223,0.976577,0.043091,-0.065675,1.021134
234,-15.686275,-17.761501,2.014191,0.041627,-0.035889,1.026627
235,-17.761501,-15.808347,2.075227,0.044312,-0.038941,0.997940
236,-18.249790,-14.404517,2.319371,0.048707,-0.039063,1.011002
237,-19.531548,-12.390326,2.197299,0.040894,-0.048707,1.022477
238,-20.325017,-10.620279,2.441444,0.053590,-0.053468,1.020645
239,-19.836728,-8.667124,2.319371,0.031739,-0.041260,1.106340
240,-22.217136,-6.958114,2.319371,0.039063,-0.041016,1.028946
241,-24.658579,-6.652934,2.075227,0.049073,-0.058106,1.028702
242,-21.911955,-5.981537,1.464866,0.036011,-0.077150,1.002335
243,-22.522316,-6.225681,0.976577,0.035767,-0.099611,0.986709
244,-20.386053,-7.019150,0.427253,0.052979,-0.023682,1.022232
245,-22.705425,-5.310140,-0.915541,0.066529,0.056397,0.981338
246,-34.851606,-1.464866,-1.159686,-0.002441,0.012573,0.922133
247,-49.134051,-4.760815,1.098650,0.100343,-0.072999,0.998062
248,-44.617380,-0.793469,2.258335,0.017334,-0.079103,1.101823
249,-42.786297,2.746624,0.671397,0.098390,-0.078126,1.024430
250,-45.349813,7.202258,0.305180,0.012451,-0.088136,1.039078
251,-42.969406,8.422980,-0.671397,0.006348,-0.088991,1.008927
252,-37.354086,10.681315,-3.723201,0.019532,-0.142824,0.979263
253,-43.762875,7.629511,-10.559243,-0.024781,0.025269,1.122454
254,-64.881361,8.850233,-27.954528,0.048463,-0.192874,0.990982
255,-59.082933,16.357671,-20.996414,0.131594,-0.331182,1.167742
256,-26.672770,19.165332,-0.610361,0.060304,-0.074342,1.225116
257,-23.193713,20.386053,-8.545052,-0.005249,-0.044678,0.927993
258,-60.669871,20.325017,-3.540093,0.103151,0.031617,0.896376
259,-95.155261,19.348440,11.291676,-0.046143,0.058717,0.801404
260,-115.175097,12.817578,12.756542,-0.061646,-0.005737,0.888685
261,-164.248112,7.324331,25.757229,-0.068971,-0.030640,1.040421
262,-210.940719,2.014191,36.804761,0.117311,0.294072,0.581552
263,-317.326619,26.611734,29.907683,0.286137,0.238529,1.059586
264,-369.939727,30.029755,48.950942,0.326299,0.077150,1.739528
265,-410.528725,87.953002,24.048219,0.514656,0.178958,1.845609
266,-479.499504,139.284352,32.104982,0.381598,0.207034,1.861967
267,-533.516442,196.475166,45.593957,0.306645,-0.409552,1.999969
268,-524.727245,231.998169,96.986343,-0.967910,-0.599374,1.999969
269,-430.609598,121.461814,5.249104,-1.515648,-0.594003,1.999969
270,77.088579,71.107042,-6.103609,-0.830945,0.343999,1.999969
271,154.970626,40.772107,-21.423667,-0.569467,0.632090,1.100603
272,-6.469825,11.535821,40.772107,-0.232670,0.704845,0.925063
273,-87.037461,-17.578393,61.341268,0.169070,0.232303,0.806653
274,30.151827,7.934691,26.550698,0.385626,0.361700,0.799451
275,47.791257,14.221408,-0.793469,0.454841,0.650889,0.514900
276,2.075227,7.568475,-10.193027,0.455451,0.544442,0.737194
277,35.584039,0.000000,-29.358358,0.371466,0.449836,0.863783
278,68.055238,-17.944610,-43.945983,0.317998,0.547005,0.813367
279,68.360418,-40.405890,-50.110628,0.226200,0.483284,0.875257
280,93.080034,-54.566262,-57.862211,0.167605,0.453376,0.995987
281,113.282979,-61.280232,-64.942397,0.082155,0.465339,1.199847
282,130.556191,-60.608835,-69.398032,-0.006104,0.411505,1.402976
283,160.708019,-51.392386,-72.510872,-0.111330,0.340215,1.451438
284,186.587320,-41.138323,-72.327764,-0.221561,0.238529,1.324727
285,205.203326,-32.898451,-66.651408,-0.317998,0.127199,1.084001
286,216.372931,-29.053178,-58.289464,-0.342290,0.046998,0.905409
287,217.410544,-27.893492,-48.279545,-0.314092,0.028931,0.892348
288,217.410544,-26.733806,-40.650034,-0.229496,0.009888,0.933364
289,218.326085,-20.141909,-37.964446,-0.132326,-0.024903,0.917250
290,211.734188,-7.873655,-38.391699,-0.052125,-0.083742,0.777600
291,198.367285,5.432212,-41.870756,0.014527,-0.098756,0.769543
292,179.018845,14.282444,-44.983597,-0.002686,-0.042115,1.230365
293,171.023117,18.432898,-45.349813,-0.077150,0.061158,1.939727
294,189.700160,22.034028,-46.570535,-0.080568,-0.053956,1.999969
295,223.758297,26.062409,-45.838102,-0.072999,-0.145266,1.999969
296,241.214618,28.870069,-42.847333,-0.044434,-0.269413,1.786160
297,242.557412,31.128405,-39.612421,0.022217,-0.360723,1.470359
298,231.265736,27.466239,-38.452735,0.066407,-0.393317,1.463645
299,220.340276,23.743038,-38.941024,0.113771,-0.478645,1.458396
300,214.969100,27.832456,-42.725261,0.146487,-0.501595,1.459861
301,201.235981,28.686961,-44.495308,0.114137,-0.501595,1.488914
302,193.789578,18.188754,-43.884947,0.043214,-0.533577,1.553491
303,193.911650,4.333562,-41.504540,0.007324,-0.553475,1.470603
304,187.502861,-4.028382,-39.002060,-0.007935,-0.559945,1.451804
305,177.615015,-3.845274,-36.682689,-0.030640,-0.574960,1.496117
306,171.450370,4.089418,-35.034714,-0.045167,-0.524788,1.839017
307,166.933700,16.540780,-31.067369,-0.071168,-0.598276,1.999969
308,190.676738,28.503853,-28.198672,-0.034546,-0.695323,1.829862
309,205.935760,33.081559,-26.794842,0.058595,-0.708995,1.311666
310,187.747005,31.738766,-25.268940,0.109621,-0.772961,1.069718
311,173.952850,31.738766,-26.611734,0.122072,-0.838148,1.027115
312,161.501488,35.523003,-29.236286,0.066529,-0.916884,1.033951
313,144.899672,38.757916,-27.771420,-0.019287,-1.054215,0.983291
314,134.157321,38.941024,-23.071641,-0.039551,-1.178729,0.839246
315,116.517891,32.898451,-15.869383,-0.007935,-1.341085,0.666026
316,94.056611,22.461280,-5.249104,0.052857,-1.556176,0.453864
317,70.191501,4.211490,6.347753,0.139773,-1.686061,0.262821
318,43.213550,-14.953841,15.503166,0.237064,-1.707424,0.264286
319,15.930419,-28.015564,21.850919,0.185306,-2.000031,-0.818250
320,-101.808194,-16.662852,32.349126,0.263920,-1.537987,-0.453376
321,-169.741360,-39.734493,30.334936,0.173831,-2.000031,-0.014038
322,-218.631266,-57.557031,26.245518,0.399176,-1.296651,-0.095705
323,-93.934539,-61.890593,-14.404517,0.247684,0.157351,1.533104
324,-118.959335,-33.386740,-25.391012,-0.294438,1.060197,1.999969
325,-217.349508,-52.552071,7.812619,-0.776379,0.465339,0.859266
326,-266.849775,-84.779126,32.227054,-0.550057,-0.540780,0.910414
327,-234.317540,-52.063783,44.129091,-0.079469,-0.462409,1.947662
328,-205.996796,-43.457694,49.011978,0.713268,-0.165408,1.999969
329,-124.757763,-22.766461,26.184482,0.993179,-0.063478,1.999969
330,-47.364004,10.864424,-3.662165,0.555550,-0.005859,1.296529
331,-67.689021,17.822538,-7.446403,-0.225589,0.080201,1.138323
332,-89.051652,5.493248,12.207218,-0.911391,-0.069215,1.162615
333,-73.792630,-35.584039,32.715343,-0.729503,-0.148806,0.813001
334,-60.914015,-76.905470,38.574807,0.157839,0.174807,1.279561
335,-74.280919,-78.919661,27.832456,1.153094,0.183963,1.999969
336,-40.833143,-20.019837,1.342794,0.327276,-0.229129,1.333516
337,-14.648661,-13.672084,0.000000,-0.599863,0.111940,0.885756
338,-55.054551,-47.547112,10.925460,0.076051,0.044556,1.193378
339,-27.649348,-33.447776,1.342794,0.403204,0.007935,1.269673
340,-21.423667,-16.540780,0.000000,-0.077150,0.056031,0.946426
341,-37.232013,-24.170291,4.577707,0.000488,0.069703,1.112200
342,-24.536507,-21.789883,-0.427253,0.100587,-0.001343,1.070695
343,-20.508125,-17.395285,-1.892119,0.002686,0.005005,1.073625
344,-20.386053,-17.944610,-0.183108,0.061402,-0.059205,1.088518
345,-7.568475,-12.207218,-0.366217,0.116091,-0.018799,1.061173
346,-8.300908,-7.080186,2.014191,0.083375,0.007080,1.001236
347,-9.033341,-4.821851,3.051804,0.051026,-0.012940,0.994400
348,-7.873655,-4.577707,3.479057,0.064576,0.028077,1.076677
349,-3.784237,-2.868696,2.685588,0.044434,-0.018067,0.999283
350,-3.845274,-2.319371,2.014191,0.030152,0.005493,1.000381
351,-1.892119,-2.624552,1.464866,0.024292,0.040284,1.040665
352,-0.915541,-2.319371,0.915541,0.028565,0.034424,0.950332
353,-3.295949,-2.868696,1.037613,0.030030,0.067506,0.978042
354,-8.361944,-3.662165,1.342794,0.026368,-0.019898,1.014054
355,-4.638743,-2.319371,1.098650,0.067140,-0.021607,0.980850
356,-5.798428,-0.732433,1.892119,0.053101,0.050172,1.024430
357,-6.591897,0.610361,2.380407,0.033082,0.019409,1.040787
358,-5.920500,1.342794,2.136263,0.056153,-0.044923,0.986221
359,-4.150454,1.953155,2.258335,0.027832,0.028931,1.027970
360,-2.319371,0.488289,2.075227,0.009155,0.014893,1.003677
361,-0.061036,-1.525902,1.159686,0.023316,0.014282,1.003433
362,0.366217,-3.051804,0.488289,0.016480,0.007202,0.981704
363,0.976577,-4.333562,0.061036,0.014160,0.009766,0.966079
364,0.061036,-5.920500,0.061036,0.006836,0.053956,0.909071
365,-7.751583,-7.873655,0.244144,0.038941,0.029664,0.955459
366,-9.399557,-6.897078,0.488289,0.070558,-0.000732,1.023331
367,-6.469825,-4.089418,0.793469,0.053712,0.007446,0.991958
368,-8.728161,-3.356985,1.403830,0.039429,0.011963,0.982071
369,-9.826810,-3.051804,1.342794,0.049439,-0.015869,1.003677
370,-9.521630,-2.868696,1.464866,0.038819,-0.014527,0.985855
371,-9.033341,-3.601129,1.464866,0.033692,0.005371,0.968643
372,-10.620279,-4.943923,1.403830,0.011841,0.023316,0.917006
373,-15.747311,-7.812619,1.342794,0.018067,0.032959,0.912978
374,-21.362631,-10.559243,1.037613,0.020874,0.005493,0.942397
375,-22.278172,-11.474784,0.671397,0.061646,-0.024903,1.024552
376,-18.371862,-9.948882,0.793469,0.074220,-0.017090,1.008194
377,-18.860151,-7.812619,1.586938,0.066041,-0.018311,1.002090
378,-19.897765,-6.775006,2.014191,0.086183,-0.013062,0.990005
379,-21.606775,-4.760815,1.709010,0.071412,0.014405,1.094865
380,-23.498894,-3.479057,2.563516,0.067628,-0.031861,1.008316
381,-24.048219,-3.173877,3.234913,0.069337,-0.013428,0.982193
382,-27.344167,-3.112840,3.356985,0.034791,-0.032471,0.979385
383,-27.100023,-4.150454,3.723201,0.056031,-0.044800,1.006607
384,-26.916915,-4.089418,4.394598,0.054810,-0.053468,0.984024
385,-24.963760,-4.028382,5.554284,0.060670,-0.038697,1.038224
386,-28.137636,-3.601129,5.798428,0.052491,-0.039063,1.018448
387,-26.550698,-4.577707,4.760815,0.031495,-0.044068,0.985367
388,-27.405203,-2.929732,1.892119,0.029908,-0.046876,0.966567
389,-29.846647,-5.127031,-0.183108,0.043091,-0.013794,1.031022
390,-33.569848,-4.821851,-2.685588,0.015381,-0.020020,1.011490
391,-27.527276,-4.211490,-5.065995,0.174319,0.046876,0.965347
392,-52.796216,0.610361,-5.676356,-0.002441,0.027100,1.040421
393,-57.190814,-0.061036,-7.202258,0.091066,-0.066896,1.026261
394,-43.701839,5.981537,-13.672084,0.014771,-0.004883,0.962539
395,-57.495995,4.150454,-21.972992,-0.052735,-0.023438,0.991836
396,-90.150301,8.178836,-37.170977,-0.037476,-0.019165,0.973037
397,-102.845808,8.300908,-49.378195,0.093751,-0.320439,1.042985
398,-64.637217,4.089418,-27.038987,0.301762,-0.321660,1.113054
399,-57.618067,12.207218,3.540093,0.234012,-0.069215,1.136614
400,-81.177996,23.437858,6.836042,0.083986,0.169680,0.956802
401,-133.485924,36.133364,-4.089418,0.058106,0.249271,0.913222
402,-180.605783,33.691920,11.718929,-0.033936,0.015015,0.612070
403,-170.534829,0.732433,45.532921,-0.333867,0.404791,0.717784
404,-254.032197,-15.991455,6.469825,0.212528,1.190814,0.581918
405,-457.770657,-18.677043,-31.189441,-0.032105,-0.496712,1.241962
406,-563.057908,-86.671244,46.021210,-0.351812,0.208133,1.864652
407,-670.664530,-165.102617,43.396658,0.003540,0.028077,1.044816
408,-755.504692,-157.534142,84.473945,0.306035,-0.243412,0.805188
409,-864.576181,-136.598764,129.945830,1.388083,-2.000031,1.999969
410,-756.969558,-0.793469,175.600824,-0.290776,0.104128,1.999969
411,-43.579767,36.194400,-53.223468,0.207523,-0.347173,1.999969
412,210.208286,66.773480,-77.576867,-0.315679,0.909316,1.999969
413,67.444877,60.547799,-84.840162,-0.209110,0.871595,1.999969
414,-43.945983,-21.728847,-6.713970,-0.360845,0.685435,1.676783
415,0.610361,-37.293050,-0.305180,-0.078737,0.292485,1.436301
416,147.890440,-10.376135,-18.371862,-0.105348,0.342046,0.866224
417,135.255970,-4.150454,-18.127718,0.040650,0.449714,0.406989
418,88.990616,5.798428,-17.029068,0.028687,0.270878,0.490730
419,113.527123,23.865110,-24.353399,0.001099,0.205081,0.531380
420,126.955062,29.297322,-27.038987,-0.041505,0.278691,0.551766
421,118.471046,19.043259,-23.437858,-0.070680,0.246464,0.810193
422,139.833677,10.620279,-22.156100,-0.057374,0.249516,1.088884
423,165.651942,9.399557,-23.498894,-0.010498,0.308965,1.380514
424,185.061418,17.090105,-26.184482,-0.006592,0.271122,1.671534
425,217.288472,30.701152,-29.114214,-0.010498,0.156619,1.698756
426,252.811475,42.481117,-31.738766,-0.020874,0.032227,1.518090
427,272.404059,47.180896,-29.602502,-0.030762,-0.064088,1.237079
428,281.925689,44.068055,-25.635157,0.000610,-0.140627,1.095109
429,287.785153,39.429313,-21.972992,0.059205,-0.175296,0.984146
430,287.724117,34.363317,-20.386053,0.160403,-0.175296,1.003433
431,284.550240,28.259709,-21.057450,0.211429,-0.145510,1.151385
432,283.329519,25.329976,-27.405203,0.312627,-0.181765,1.188251
433,279.484245,32.410163,-38.879988,0.366339,-0.296391,1.145403
434,264.774548,50.293736,-50.843061,0.459968,-0.418341,1.053117
435,249.393454,71.717403,-61.707485,0.442390,-0.394415,1.058976
436,229.800870,74.708171,-73.548486,0.348394,-0.367681,1.096452
437,211.123827,71.900511,-79.163806,0.191287,-0.344732,1.428122
438,194.094759,68.909743,-78.309300,0.119631,-0.359380,1.999969
439,195.010300,67.566949,-73.853666,0.044068,-0.498665,1.999969
440,229.190509,71.229114,-70.435645,-0.044923,-0.791394,1.999969
441,258.731975,86.793317,-65.491722,-0.124269,-0.943618,1.999969
442,241.092546,91.859312,-51.392386,-0.188724,-0.942885,1.999969
443,227.603571,81.971466,-32.471199,-0.191287,-1.018570,1.999969
444,265.323873,74.586099,-17.639429,-0.018433,-1.024796,1.999969
445,291.264210,77.637903,-9.765774,0.221073,-0.959487,1.787015
446,270.328832,77.149615,-3.112840,0.299077,-0.986221,1.339742
447,252.811475,68.848707,0.671397,0.274418,-1.027481,1.246357
448,237.186236,59.449149,4.272526,0.133059,-1.088518,1.272480
449,217.593652,51.331350,11.047532,-0.024292,-1.266621,1.274434
450,203.921569,47.119860,18.127718,-0.038819,-1.511742,1.218647
451,185.183490,48.828870,22.217136,0.172610,-1.756497,1.013809
452,160.830091,60.975052,12.756542,0.493538,-2.000031,0.645884
453,131.471733,89.417868,-10.925460,0.649790,-2.000031,0.250858
454,88.075074,116.945144,-25.513085,0.392706,-2.000031,-0.155398
455,35.767147,109.010452,-12.451362,0.070558,-2.000031,-0.322637
456,-10.559243,56.153201,17.883574,-0.200565,-1.901640,-0.016968
457,-33.081559,-17.395285,55.115587,-0.248295,-1.508568,0.435431
458,-119.630732,-105.653468,61.219196,0.204227,-1.868437,-0.896620
459,-241.763943,-134.950790,82.764935,0.714855,-1.525292,-0.100099
460,-182.375830,-74.158846,58.838788,0.267582,-0.431403,0.865614
461,-116.029603,-70.008392,26.855879,-0.072023,0.877577,1.932036
462,-202.151522,-88.807507,51.270314,0.272709,0.908949,1.266499
463,-293.461509,-86.854353,55.298695,0.392950,-0.330327,0.526741
464,-270.695048,-69.886320,51.087205,0.738415,-0.396246,1.270405
465,-261.295491,-48.218509,38.635843,1.197284,-0.168093,1.999969
466,-186.037995,0.671397,12.756542,0.972549,-0.237186,1.999969
467,-73.853666,36.560616,-20.386053,0.335088,-0.227787,1.997589
468,-80.445563,51.758602,-16.235599,-0.660655,-0.035401,1.331685
469,-112.672618,11.779965,17.517357,-1.151629,-0.465705,1.434226
470,-62.256809,-34.973678,35.584039,-0.708263,-0.242557,0.762829
471,-62.073701,-77.454795,39.673457,0.401617,0.409674,1.934356
472,-63.294423,-69.031815,26.550698,0.884779,0.069581,1.749172
473,-31.311513,-21.118486,4.760815,0.018799,0.022461,1.476341
474,-42.908370,-30.273899,11.963073,-0.290776,-0.028321,0.987442
475,-35.034714,-37.842374,4.150454,0.291386,0.085695,1.270527
476,-44.007019,-17.700465,3.234913,0.263066,-0.055177,1.265888
477,-26.489662,-5.310140,2.868696,-0.161624,-0.029419,1.081437
478,-24.963760,-13.061723,3.234913,-0.007935,0.065309,1.018570
479,-27.832456,-12.878614,2.136263,0.052613,-0.006348,1.099016
480,-19.592584,-8.972305,0.488289,0.004395,-0.004150,1.059709
481,-17.395285,-7.263294,-0.671397,0.028687,0.010376,1.029068
482,-19.958801,-4.699779,0.976577,0.051759,-0.002197,1.060197
483,-16.845960,-1.647974,1.709010,0.020630,-0.010010,1.042252
484,-14.587625,-0.976577,2.380407,0.005127,0.006348,1.036271
485,-15.136950,-1.098650,3.051804,0.019898,-0.014038,1.037125
486,-11.291676,-1.403830,2.319371,-0.017090,0.006592,1.004776
487,-10.925460,-3.479057,1.770047,-0.046387,0.036622,1.027848
488,-10.681315,-6.897078,2.441444,0.002319,0.105226,1.003433
489,-11.169604,-5.493248,1.342794,0.007568,0.005249,1.008927
490,-8.972305,-4.760815,0.854505,0.003906,-0.012451,1.035050
491,-7.141222,-3.784237,0.976577,0.018677,-0.001709,1.002579
492,-8.606088,-2.807660,1.525902,0.014771,0.014160,1.008560
493,-8.972305,-2.136263,2.441444,0.017700,-0.005859,1.005631
494,-8.850233,-1.037613,2.502480,0.017090,-0.042725,0.974258
495,-9.887846,-0.976577,2.868696,0.014649,0.011109,0.985245
496,-10.315099,-0.610361,2.502480,-0.049317,0.163699,1.263325
497,-7.690547,-0.549325,3.356985,0.033326,-0.039551,0.947646
498,-10.315099,-1.159686,2.319371,-0.009644,-0.026246,0.958755
499,-10.925460,-2.624552,2.258335,-0.013916,-0.012573,0.976822
500,-10.131991,-4.028382,2.014191,-0.028443,-0.012696,0.942031
501,-15.625238,-7.141222,2.258335,-0.025757,0.012940,0.935927
502,-20.447089,-9.155413,2.380407,-0.007813,-0.005615,0.964370
503,-21.728847,-9.948882,2.380407,0.018189,-0.018311,1.027848
504,-21.789883,-9.155413,2.685588,0.031983,-0.036988,1.016251
505,-17.395285,-7.324331,1.770047,0.039063,-0.057862,0.975723
506,-17.029068,-6.958114,1.342794,0.032715,-0.060914,1.015885
507,-15.442130,-5.676356,2.014191,0.041016,-0.073610,1.061784
508,-9.155413,-3.051804,1.892119,0.034791,-0.083009,0.973281
509,-10.437171,-2.990768,2.502480,0.015869,-0.045045,0.936172
510,-15.381094,-5.004959,2.685588,-0.009522,-0.006836,0.938979
511,-19.897765,-7.873655,2.807660,-0.014771,-0.006226,0.935317
512,-22.827497,-10.193027,2.563516,0.018799,-0.039307,0.985367
513,-24.109255,-10.009918,2.258335,0.029786,-0.065187,1.024430
514,-22.827497,-8.117800,2.197299,0.053223,-0.061402,1.034928
515,-23.498894,-5.676356,2.685588,0.038575,-0.066285,1.041154
516,-23.071641,-3.173877,2.929732,0.035157,-0.064698,1.039689
517,-21.972992,-2.075227,3.356985,0.018677,-0.068360,1.002213
518,-23.010605,-2.136263,3.479057,0.026490,-0.070680,0.988174
519,-23.743038,-2.929732,3.662165,0.005127,-0.075319,1.011490
520,-22.461280,-3.784237,3.662165,0.022705,-0.080568,1.012589
521,-22.522316,-3.112840,4.150454,0.031983,-0.075074,0.988540
522,-24.536507,-3.356985,5.249104,0.047242,-0.107301,0.983413
523,-23.376822,-1.342794,7.507439,0.072755,-0.068238,1.036149
524,-28.686961,2.014191,9.155413,0.014405,-0.093019,1.023331
525,-27.771420,2.990768,9.277485,0.019776,-0.040650,1.008438
526,-29.846647,3.418021,6.469825,0.010376,-0.022217,0.984390
527,-41.443503,2.136263,4.272526,0.001953,-0.039551,0.958511
528,-49.439231,0.366217,1.098650,-0.000610,-0.053223,0.994522
529,-51.148241,0.305180,-2.563516,0.003174,-0.081300,1.016129
530,-50.293736,-0.183108,-6.347753,-0.028443,-0.126345,0.983658
531,-47.119860,-1.403830,-6.042573,-0.060304,-0.102419,1.057145
532,-50.110628,5.004959,-23.804074,-0.138064,0.062257,1.137713
533,-79.774166,7.324331,-53.040360,-0.012085,-0.198001,1.219379
534,-72.388800,12.451362,-46.753643,0.134890,-0.439338,1.132341
535,-34.912642,1.281758,-16.235599,0.062745,-0.221927,1.028946
536,-41.748684,-5.004959,-12.756542,0.054444,0.050050,0.979385
537,-78.614481,1.831083,-17.273213,0.073732,0.149416,0.938247
538,-125.001907,6.530861,-8.972305,0.036378,0.057862,0.969253
539,-130.800336,-8.789197,9.704738,-0.115236,-0.058595,1.072648
540,-151.491569,-5.249104,10.620279,0.038575,0.999649,1.120989
541,-324.467842,-0.732433,-36.743725,0.176272,0.896620,1.134661
542,-583.566033,-8.056764,21.667811,-0.357671,0.473274,1.908965
543,-697.703517,-55.298695,62.073701,-0.306401,-0.243534,1.514672
544,-778.149081,-46.753643,83.558404,0.365118,0.052125,1.168841
545,-816.906996,-39.124132,76.356146,0.828748,-2.000031,1.999969
546,-841.382467,-29.724575,186.343175,-1.093034,-0.157717,1.999969
547,-150.637064,-69.336996,-25.818265,-0.075563,-1.223774,1.999969
548,255.130846,-21.911955,-36.926833,-0.413581,0.758190,1.999969
549,109.864958,-2.380407,-54.993515,0.114382,0.932021,1.505760
550,-44.434272,-35.400931,23.376822,-0.323369,0.873182,1.171527
551,-80.750744,-53.467613,28.992142,0.034302,0.457160,1.155657
552,75.806821,-16.968032,-7.202258,0.010986,0.376226,0.989395
553,102.479591,-13.183795,-23.620966,0.090089,0.607675,0.697398
554,50.782025,-15.503166,-24.292363,0.030396,0.473152,1.016983
555,92.225528,-9.521630,-33.630884,-0.077394,0.349248,1.247944
556,146.059358,-8.911269,-39.612421,-0.177859,0.393317,1.081559
557,151.918822,-21.240558,-35.217823,-0.219974,0.329107,0.966934
558,172.732128,-28.015564,-33.020523,-0.239506,0.258183,0.932753
559,193.118181,-24.475471,-31.494621,-0.246830,0.252201,0.918227
560,198.977646,-15.075914,-28.381781,-0.261357,0.194217,0.954482
561,211.673152,-3.356985,-24.658579,-0.276005,0.127321,0.973281
562,225.711452,4.943923,-19.897765,-0.263920,0.108400,1.007950
563,233.340963,7.263294,-13.611048,-0.215091,0.075807,1.115740
564,247.684443,9.399557,-9.582666,-0.133303,0.056275,1.252705
565,261.539635,12.878614,-8.178836,-0.050294,0.057740,1.415061
566,276.371405,16.418708,-10.681315,0.039185,0.041382,1.530663
567,292.912184,24.048219,-17.578393,0.090455,-0.024537,1.495018
568,298.405432,34.485389,-26.977951,0.147341,-0.250492,1.112200
569,288.944839,53.589685,-36.865797,0.208988,-0.487800,0.596567
570,261.295491,65.674830,-41.443503,0.213382,-0.449226,0.613657
571,224.002441,55.970092,-44.251164,0.175174,-0.327642,1.090959
572,217.959869,41.077287,-48.889906,0.141115,-0.253910,1.624292
573,223.086900,41.870756,-54.016938,0.102907,-0.231571,1.999969
574,225.040055,57.862211,-56.580453,0.113527,-0.323247,1.999969
575,243.289845,71.412222,-60.975052,0.083986,-0.406012,1.999969
576,256.168460,73.914702,-62.867170,-0.033326,-0.478523,1.999969
577,260.563058,67.078660,-59.143969,-0.089113,-0.679820,1.999969
578,271.976806,72.205692,-60.120546,-0.031006,-0.779675,1.727321
579,252.811475,84.168765,-59.937438,-0.028565,-0.772107,1.709621
580,231.876097,89.539940,-57.007706,-0.124392,-0.838148,1.990387
581,240.604257,92.713817,-50.782025,-0.126711,-0.845838,1.999969
582,248.172732,94.605936,-40.772107,0.013794,-0.822889,1.999969
583,248.599985,96.253910,-30.945296,0.096193,-0.861707,1.873808
584,245.426108,92.835889,-19.592584,0.124758,-0.940688,1.707790
585,239.749752,82.703899,-7.812619,0.125978,-1.063493,1.506004
586,225.467308,70.191501,4.028382,0.119509,-1.253437,1.315572
587,207.949950,60.486763,13.550011,0.167849,-1.473411,1.108659
588,183.230335,55.664912,15.991455,0.321294,-1.755764,0.911025
589,148.500801,58.960861,9.826810,0.565805,-2.000031,0.805432
590,111.635004,73.182269,-10.009918,0.733165,-2.000031,0.596933
591,86.427100,96.498054,-31.067369,0.586313,-2.000031,0.190921
592,56.702525,99.732967,-28.809033,0.245609,-2.000031,-0.235721
593,-1.831083,56.031128,-1.892119,-0.075929,-2.000031,-0.316411
594,-44.373236,-12.207218,32.898451,-0.206546,-1.817044,0.183963
595,-61.951629,-57.495995,60.852979,-0.390509,-1.940703,-1.853666
596,-197.146563,-135.500114,82.703899,0.233280,-1.061906,-0.511604
597,-171.267262,-130.495155,79.285878,0.123171,-0.338994,1.267720
598,-131.227588,-57.007706,68.909743,-0.115602,1.001480,1.751492
599,-134.767681,-83.253223,78.004120,0.145266,0.501839,0.239384
600,-288.761730,-141.237507,89.173724,0.948013,0.244144,0.020386
601,-338.872358,-93.690394,97.108415,1.434714,-0.341314,1.469749
602,-307.682918,-57.495995,56.824598,1.614282,-0.343633,1.999969
603,-190.920882,-21.484703,12.390326,1.426047,-0.109499,1.999969
604,-128.969253,19.775692,-22.522316,0.272099,-0.130007,1.966705
605,-134.157321,32.593271,-11.474784,-0.873060,-0.288945,1.835966
606,-132.875563,0.610361,28.870069,-1.426902,-0.314092,1.999969
607,-80.323491,-58.838788,52.613108,-0.452033,-0.294194,0.996597
608,-57.129778,-88.258183,40.894179,0.835584,0.474128,1.999969
609,-70.252537,-60.120546,25.696193,0.955825,0.080934,1.777859
610,-39.429313,-18.249790,11.291676,-0.338506,-0.089479,1.302022
611,-39.917601,-45.899138,14.953841,-0.294560,0.030518,1.102922
612,-32.776379,-52.368963,4.699779,0.488533,0.123171,1.339132
613,-35.523003,-26.123445,3.479057,0.162234,0.018555,1.105364
614,-34.424353,-23.010605,5.432212,-0.150515,-0.020264,1.057023
615,-24.170291,-31.006332,3.234913,0.107546,0.111208,1.195575
616,-22.400244,-23.620966,0.000000,0.128420,0.039185,0.983536
617,-25.879301,-17.761501,1.098650,0.035157,0.023926,1.092668
618,-22.156100,-16.601816,2.929732,0.105470,0.022950,1.032486
619,-23.010605,-11.841001,2.990768,0.084108,0.035889,1.024796
620,-25.391012,-10.437171,4.760815,0.007813,0.030274,1.122576
621,-19.897765,-9.582666,5.249104,0.067750,0.050904,0.995010
622,-24.109255,-7.690547,5.432212,0.047242,0.003296,0.983169
623,-25.024796,-7.019150,4.577707,0.037110,0.022217,1.019059
624,-23.865110,-6.897078,2.929732,0.040772,-0.008179,0.951919
625,-22.034028,-7.141222,2.380407,0.033204,-0.009400,0.957656
626,-23.132677,-7.812619,0.671397,0.072633,0.005982,0.972183
627,-19.043259,-8.667124,0.183108,0.041016,-0.073487,0.977676
628,-19.043259,-9.460594,1.342794,0.046876,-0.023926,1.025162
629,-17.395285,-8.667124,2.014191,0.026978,0.041260,1.067399
630,-14.221408,-8.056764,2.197299,0.058595,-0.000977,1.036881
631,-15.625238,-6.652934,1.709010,0.073487,-0.082521,0.962661
632,-14.770733,-5.065995,1.403830,0.083497,-0.105470,1.005142
633,-14.648661,-3.723201,1.159686,0.063844,-0.073854,0.942763
634,-16.296635,-4.455634,0.854505,0.040528,0.008667,1.010636
635,-16.418708,-5.188067,0.915541,0.057862,-0.062745,1.015518
636,-15.381094,-4.455634,0.305180,0.064088,-0.064698,1.017594
637,-11.230640,-3.967346,0.427253,0.059937,-0.064454,0.998306
638,-9.216449,-3.540093,0.549325,0.051881,-0.058961,0.993912
639,-8.361944,-3.723201,0.793469,0.057008,-0.052735,0.976333
640,-9.216449,-3.967346,0.793469,0.043458,-0.048829,0.973404
641,-9.460594,-5.065995,0.732433,0.047730,-0.022583,0.987442
642,-12.024109,-5.554284,0.915541,0.053956,-0.011475,0.986709
643,-15.197986,-6.347753,0.854505,0.053956,-0.042725,1.000626
644,-14.404517,-6.286717,0.244144,0.059327,-0.049317,0.997330
645,-15.014878,-5.676356,0.732433,0.093019,-0.069459,1.031022
646,-11.169604,-3.662165,1.464866,0.076905,-0.065797,1.032120
647,-8.789197,-2.258335,2.502480,0.080079,-0.055421,1.004532
648,-7.568475,-1.831083,2.746624,0.043214,-0.034180,0.969741
649,-10.620279,-3.356985,2.258335,0.039796,-0.021363,0.960098
650,-13.122759,-5.004959,1.342794,0.043824,-0.047486,0.960708
651,-13.855192,-6.591897,0.732433,0.052613,-0.040528,0.955459
652,-15.930419,-7.995727,0.732433,0.062257,-0.044678,0.995010
653,-20.019837,-7.995727,0.793469,0.073121,-0.066529,0.983291
654,-21.972992,-4.821851,0.671397,0.090578,-0.094484,0.974990
655,-21.301595,-3.723201,1.098650,0.066163,-0.042969,1.014542
656,-25.635157,-2.563516,1.892119,0.086427,-0.037232,1.004654
657,-35.706111,1.953155,3.723201,0.012940,-0.166018,0.990738
658,-31.372549,1.098650,5.371176,0.078859,-0.180545,1.045670
659,-20.752270,2.075227,7.019150,0.068482,-0.100465,1.015885
660,-26.184482,1.770047,7.812619,0.056031,-0.052491,0.966934
661,-24.841688,3.356985,5.920500,0.091310,0.001587,0.981216
662,-45.044633,1.770047,1.770047,0.010132,-0.008179,0.964736
663,-49.073014,1.953155,-2.441444,0.029053,-0.046387,0.986465
664,-58.350500,1.647974,-8.117800,0.054932,-0.064942,1.009903
665,-59.754330,2.502480,-7.446403,0.074708,-0.097292,0.985489
666,-60.486763,4.760815,-11.230640,0.032593,-0.095705,1.092790
667,-58.777752,7.446403,-23.376822,-0.029786,-0.170901,1.021378
668,-58.533608,9.521630,-38.696880,0.074708,-0.167605,0.993423
669,-59.937438,7.995727,-42.908370,0.210086,-0.285283,0.874403
670,-35.095750,6.530861,-14.953841,0.297002,-0.248173,1.097063
671,-26.794842,10.559243,10.864424,0.142824,-0.007568,1.046403
672,-75.440604,24.658579,3.112840,0.043336,0.315557,0.932753
673,-147.341115,36.743725,-9.216449,0.095583,0.260136,0.876234
674,-195.132372,27.893492,8.728161,-0.144533,0.321172,0.281010
675,-168.032349,-23.987182,42.481117,-0.307378,0.701915,0.661265
676,-315.129320,-46.448463,-35.034714,-0.143679,0.413703,1.335592
677,-492.439155,-85.511559,-7.812619,-0.499397,-0.248905,1.503319
678,-632.639048,-193.362325,52.674144,-0.109377,0.303227,1.320333
679,-753.368429,-278.385595,53.467613,-0.147829,-0.161746,1.291279
680,-846.692607,-213.809415,115.541314,0.729259,-0.610849,1.641627
681,-1045.914397,-176.211185,217.715724,-0.582040,-1.134295,1.999969
682,-357.610437,7.080186,41.687648,-0.663096,-1.156634,1.999969
683,249.149310,79.957275,-68.116274,-0.122072,0.766003,1.999969
684,227.969787,87.098497,-83.009079,-0.303471,1.375509,1.609522
685,63.538567,39.429313,-30.945296,-0.764294,0.469734,1.400412
686,-31.311513,-42.908370,44.678416,-0.432136,0.222293,1.000504
687,61.341268,-38.086519,40.039673,-0.193118,0.065064,1.005509
688,178.225376,-18.982223,23.804074,-0.123537,0.364019,0.760143
689,141.847868,-10.376135,23.132677,0.100832,0.436652,0.748058
690,127.016098,7.507439,13.733120,0.155398,0.245975,0.910658
691,173.952850,27.954528,-6.591897,0.214237,0.243900,0.804944
692,188.418402,32.104982,-21.423667,0.235599,0.284184,0.626108
693,182.131685,27.161059,-31.372549,0.227909,0.217655,0.617319
694,194.399939,26.611734,-43.091478,0.192996,0.170291,0.672496
695,200.808728,26.977951,-51.453422,0.135378,0.170901,0.855604
696,204.531930,29.175250,-56.397345,0.051148,0.100832,1.051041
697,222.049287,34.119173,-58.655680,-0.022827,0.039918,1.172137
698,237.735561,39.612421,-57.007706,-0.054566,-0.000244,1.296651
699,249.576562,46.082246,-52.857252,-0.063722,-0.058350,1.432517
700,266.422522,52.674144,-48.828870,-0.022217,-0.116213,1.456809
701,281.376364,60.669871,-47.302968,0.050660,-0.189334,1.315084
702,284.122988,68.970779,-47.608148,0.109010,-0.303593,1.081193
703,273.685817,77.515831,-48.340581,0.162600,-0.456672,0.786389
704,256.351568,86.427100,-49.561303,0.204715,-0.521492,0.641733
705,227.542535,87.159533,-49.683375,0.201175,-0.479255,0.714855
706,201.907378,82.337682,-51.087205,0.211673,-0.409430,1.018204
707,184.634165,79.835203,-52.063783,0.220462,-0.284550,1.663478
708,176.882582,78.553445,-53.284504,0.243656,-0.307500,1.999969
709,196.353094,81.544213,-56.885634,0.275883,-0.385260,1.999969
710,233.279927,89.784085,-62.806134,0.308598,-0.551522,1.999969
711,252.384222,99.671931,-66.468299,0.290654,-0.605356,1.947417
712,239.261463,93.385214,-62.806134,0.239139,-0.665537,1.999969
713,245.426108,80.628672,-59.082933,0.285893,-0.689586,1.999969
714,267.154955,74.586099,-60.059510,0.351202,-0.680797,1.999969
715,271.305409,75.196460,-62.134737,0.389288,-0.686900,1.772610
716,266.483558,76.173037,-66.224155,0.390143,-0.714488,1.495506
717,254.886702,73.060197,-71.046006,0.361822,-0.723522,1.353780
718,239.505608,68.787671,-75.928893,0.316411,-0.734630,1.295918
719,225.040055,68.604562,-80.750744,0.264775,-0.775280,1.230610
720,207.888914,70.618753,-83.863584,0.151492,-0.837903,1.136492
721,187.502861,74.402991,-83.070115,0.010498,-0.942763,1.034684
722,162.478065,78.187228,-77.332723,-0.108522,-1.075700,0.937148
723,136.598764,80.567636,-67.261769,-0.127443,-1.250141,0.897475
724,113.038834,83.863584,-53.223468,-0.083497,-1.455589,0.832166
725,89.967193,85.572595,-35.584039,0.028077,-1.709987,0.667735
726,65.613794,82.215610,-15.197986,0.107546,-1.902129,0.513069
727,40.100710,66.346227,9.948882,0.207401,-1.988922,0.297734
728,21.606775,29.358358,35.217823,0.279423,-1.825711,0.128420
729,-3.601129,-13.488975,60.669871,0.281010,-1.521996,0.295537
730,-33.203632,-40.100710,82.642863,0.240604,-1.247700,0.652598
731,-44.129091,-44.922560,97.657740,0.133913,-1.050797,0.886854
732,-52.124819,-37.781338,111.024643,0.039796,-0.901991,1.014542
733,-55.848020,-28.259709,124.269474,-0.046632,-0.835462,0.009766
734,-158.327611,-83.131151,79.530022,0.943374,-0.049073,-0.202518
735,-108.461128,-95.887694,66.529335,0.744518,0.156619,0.534310
736,-103.212024,-82.520790,60.364691,0.488167,1.392721,0.944961
737,-208.804456,-109.010452,49.805447,0.181033,0.669322,0.264286
738,-308.049134,-100.282292,60.608835,0.206790,-0.498421,0.367437
739,-281.986725,-80.811780,58.716716,0.658213,-0.445686,1.954376
740,-237.064164,-47.119860,43.152514,1.065202,-0.118776,1.999969
741,-179.446098,-24.170291,19.348440,0.880751,-0.141726,1.999969
742,-133.424887,-0.427253,1.342794,0.301518,-0.075196,1.999969
743,-127.931640,11.535821,15.747311,-0.669200,-0.062989,1.999969
744,-96.559091,-25.940337,34.668498,-0.806531,-0.453010,1.572168
745,-48.157473,-53.284504,38.269627,-0.040040,-0.000732,0.799084
746,-71.595331,-68.665599,37.415122,0.744762,0.233280,1.751492
747,-54.444190,-46.753643,23.865110,0.262089,-0.062867,1.335958
748,-45.777066,-40.588998,17.395285,-0.317144,0.024781,1.299825
749,-47.180896,-60.181582,15.747311,0.103029,0.021851,1.047501
750,-40.955215,-51.331350,5.249104,0.299321,0.124758,1.365499
751,-49.134051,-37.598230,4.394598,0.064576,-0.031983,1.184466
752,-30.090791,-32.593271,2.014191,0.031495,-0.006104,1.217914
753,-23.804074,-27.954528,2.563516,0.132448,0.060304,1.154192
754,-22.278172,-17.822538,0.793469,0.122560,0.047120,1.064836
755,-22.522316,-10.559243,0.549325,0.043702,0.044556,1.005753
756,-24.597543,-6.897078,2.563516,0.091554,0.060548,1.009049
757,-28.076600,0.427253,2.868696,0.121340,0.038941,1.067399
758,-27.405203,5.310140,3.356985,0.044923,-0.008911,1.069108
759,-21.179522,7.080186,3.234913,-0.055665,0.119875,1.240131
760,-21.179522,7.873655,4.882887,0.088014,0.063966,1.022110
761,-24.109255,9.460594,4.394598,0.003540,-0.010010,0.994156
762,-21.911955,8.117800,3.356985,0.031128,0.003540,1.034318
763,-21.789883,8.789197,3.112840,0.034546,0.002564,0.994156
764,-22.888533,10.437171,4.028382,0.029297,-0.016602,0.996963
765,-23.804074,10.559243,5.798428,-0.002564,-0.019898,1.009293
766,-21.606775,8.972305,5.554284,-0.018311,-0.013550,0.990494
767,-21.667811,8.545052,2.807660,0.033448,-0.232303,0.834974
768,-19.470512,7.202258,3.906310,-0.008911,-0.010132,1.033951
769,-20.691234,4.882887,4.577707,-0.012696,-0.015869,1.003311
770,-19.165332,3.051804,4.150454,0.000488,-0.034913,0.990616
771,-16.479744,1.647974,2.868696,-0.022095,-0.033570,0.980362
772,-17.029068,-0.732433,2.685588,-0.006714,-0.038331,0.995865
773,-16.845960,-2.075227,2.075227,-0.000610,-0.044068,0.988907
774,-15.259022,-2.746624,1.892119,-0.008545,-0.052613,0.998917
775,-13.733120,-3.967346,1.831083,-0.010498,-0.030640,0.980972
776,-16.845960,-5.554284,2.319371,0.006836,-0.044923,0.997330
777,-14.831769,-6.164645,2.197299,-0.002441,-0.050538,0.995743
778,-14.282444,-7.202258,1.831083,0.006348,-0.042969,0.999527
779,-15.625238,-8.422980,2.014191,0.006836,-0.052247,1.004044
780,-12.329290,-9.094377,1.403830,0.017700,-0.078126,0.974746
781,-12.207218,-9.033341,-0.549325,0.043458,-0.052369,0.899184
782,-14.038300,-13.122759,0.671397,-0.047486,0.010132,1.104631
783,-19.287404,-16.235599,0.000000,-0.002930,-0.068971,0.975601
784,-17.944610,-16.845960,-0.671397,0.037598,-0.097780,1.004776
785,-15.259022,-16.174563,-1.586938,0.007202,-0.031495,1.023697
786,-17.395285,-17.273213,-1.159686,0.036011,-0.015991,1.001114
787,-22.827497,-17.151141,-0.732433,0.054932,-0.055909,0.988540
788,-23.254749,-16.174563,-1.098650,0.034058,-0.060792,1.024063
789,-23.193713,-14.770733,0.671397,0.047852,-0.067628,0.997940
790,-24.353399,-13.794156,1.647974,0.035889,-0.086061,0.943252
791,-23.926146,-15.625238,3.418021,0.009400,-0.062989,1.051164
792,-25.268940,-14.221408,2.746624,0.034180,-0.074708,0.981949
793,-29.175250,-14.282444,2.441444,0.058961,-0.102296,0.992325
794,-29.907683,-10.986496,1.770047,0.093385,-0.075685,1.084367
795,-27.222095,-7.263294,0.915541,0.043214,-0.102174,1.019059
796,-26.245518,-5.371176,3.906310,0.079103,-0.098756,1.002701
797,-29.907683,-3.906310,6.103609,0.051148,-0.140993,1.040421
798,-23.498894,-1.709010,8.178836,0.077394,-0.124514,1.000992
799,-27.649348,-0.061036,11.047532,0.066651,-0.110109,1.034318
800,-30.823224,1.770047,11.413748,0.051026,-0.130251,1.009293
801,-28.564889,2.075227,10.193027,0.029908,-0.097169,0.991104
802,-30.579080,0.793469,6.897078,0.011841,-0.082887,0.958755
803,-32.043946,-1.831083,2.868696,0.024292,-0.073365,0.993057
804,-37.720302,-3.540093,-2.990768,0.000855,-0.100954,0.987808
805,-40.772107,-3.173877,-6.530861,0.016724,-0.144167,0.979019
806,-34.424353,-4.394598,-16.418708,-0.003052,-0.142702,1.047745
807,-47.364004,4.333562,-38.635843,0.004517,-0.055665,0.953017
808,-53.955901,6.408789,-46.326390,0.143069,-0.271122,1.014786
809,-32.227054,0.305180,-25.024796,0.163455,-0.340948,1.065812
810,-9.521630,-0.244144,-7.568475,0.147951,-0.207645,0.969497
811,-14.526589,0.244144,-2.441444,0.111696,-0.016480,1.022110
812,-43.945983,5.859464,-3.418021,0.080201,0.106813,0.986709
813,-101.258869,17.273213,-16.052491,0.123659,0.184329,0.957046
814,-142.885481,23.682002,-19.104295,0.096803,0.204715,0.886488
815,-188.784619,24.170291,-25.207904,-0.022095,0.520638,0.135622
816,-180.361639,-23.682002,5.554284,-0.141115,0.880262,1.139300
817,-345.525292,-23.620966,-38.879988,0.339605,1.256733,1.000992
818,-564.461738,-34.912642,-60.852979,-0.688975,0.026246,1.329610
819,-639.230945,-110.780499,4.028382,-0.182254,-0.023194,1.335958
820,-770.641642,-216.433967,23.254749,-0.161135,-0.194949,0.971084
821,-847.119860,-228.030823,103.089952,0.601816,-2.000031,1.999969
822,-890.333410,-119.813840,253.421836,-0.297978,-1.402243,1.999969
823,-157.595178,-36.865797,-24.414435,-0.289921,-1.594873,1.999969
824,277.958343,16.662852,-37.781338,-0.445686,0.578500,1.999969
825,110.048066,59.632258,-59.876402,-0.185550,0.750744,1.666773
826,-56.336309,12.573434,40.527962,-0.646494,0.680186,1.213031
827,-107.789731,-34.058137,79.530022,-0.239750,0.416022,1.309224
828,25.940337,-8.361944,49.683375,-0.114137,0.151858,1.214374
829,127.077134,2.990768,33.875029,0.062135,0.513924,0.763439
830,87.037461,0.000000,32.898451,0.241825,0.607187,0.815198
831,78.553445,-0.183108,21.606775,0.252323,0.467170,1.088151
832,140.321965,7.263294,1.037613,0.296757,0.464240,1.058732
833,171.938659,7.263294,-14.465553,0.218143,0.464851,0.933852
834,175.112535,0.244144,-23.376822,0.154055,0.351568,0.919203
835,200.259403,0.183108,-32.043946,0.064088,0.226932,0.908949
836,219.546807,1.464866,-36.621653,-0.000855,0.166506,0.878309
837,225.345235,2.746624,-37.170977,-0.108522,0.053101,0.902724
838,236.026551,5.798428,-34.180209,-0.215702,-0.064088,0.981704
839,247.684443,10.498207,-28.198672,-0.282353,-0.148318,1.014786
840,254.703594,15.869383,-19.348440,-0.298100,-0.199466,1.131975
841,260.440986,20.569162,-10.070954,-0.273930,-0.198978,1.341695
842,270.511940,25.757229,-3.479057,-0.209964,-0.262089,1.517479
843,289.005875,34.607462,-1.159686,-0.135622,-0.335210,1.511254
844,298.771649,47.547112,-2.136263,-0.093141,-0.470100,1.298116
845,290.897993,65.552758,-2.868696,-0.073243,-0.684947,0.912367
846,271.000229,82.459754,-2.075227,-0.041627,-0.791028,0.661021
847,238.895247,88.197147,1.586938,0.000610,-0.741222,0.687510
848,207.522698,75.684749,3.540093,0.122927,-0.617197,1.040909
849,192.080568,61.951629,2.746624,0.226810,-0.493294,1.523705
850,190.798810,52.246891,-3.173877,0.389288,-0.400153,1.999969
851,199.710079,50.904097,-16.174563,0.507698,-0.437263,1.999969
852,219.302663,53.528649,-36.499580,0.501350,-0.530404,1.999969
853,228.763256,58.777752,-52.796216,0.363409,-0.592538,1.930327
854,226.993210,55.054551,-61.402304,0.183474,-0.664805,1.938994
855,233.035782,49.317159,-64.637217,0.075929,-0.699107,1.996002
856,244.693675,49.439231,-66.224155,0.035157,-0.692515,1.900298
857,244.144350,53.406577,-66.102083,0.015991,-0.702892,1.727687
858,240.909438,58.228428,-66.956588,0.035767,-0.712169,1.586206
859,234.439612,63.416495,-69.581140,0.051637,-0.711192,1.457542
860,223.025864,69.764248,-72.449836,0.062257,-0.712413,1.406027
861,211.551080,75.867857,-75.440604,0.065675,-0.725109,1.365377
862,199.893187,81.483177,-75.867857,0.077150,-0.716808,1.375143
863,188.418402,83.802548,-73.792630,0.076661,-0.763317,1.341939
864,178.896773,81.605249,-68.726635,0.042725,-0.853162,1.220111
865,167.483024,76.783398,-60.975052,0.028321,-0.980728,1.055314
866,147.951476,70.740826,-50.598917,0.042847,-1.124895,0.969131
867,127.565423,65.735866,-39.612421,0.098634,-1.338643,0.908949
868,110.292210,65.125505,-27.588312,0.226200,-1.594263,0.802014
869,86.366064,65.796902,-16.968032,0.303960,-1.898100,0.562387
870,62.012665,61.890593,-6.958114,0.369024,-2.000031,0.231937
871,35.645075,49.134051,2.807660,0.337774,-1.958282,-0.013184
872,-0.915541,17.029068,21.972992,0.255253,-1.716091,0.037110
873,-32.776379,-22.461280,43.518730,0.126833,-1.462791,0.417365
874,-46.997787,-46.143282,64.148928,-0.006592,-1.203143,0.832776
875,-55.420768,-50.476844,83.070115,-0.143191,-0.909194,1.213397
876,-115.968566,-112.062257,62.012665,0.004150,-0.704845,0.622324
877,-90.272374,-112.184329,83.619440,0.296269,0.941787,1.520531
878,-73.426413,-70.252537,51.392386,0.243168,1.437034,1.060929
879,-82.398718,-88.014038,45.716030,0.085206,0.910903,-0.367559
880,-299.259937,-138.673991,61.097124,0.530037,0.281254,-0.966812
881,-317.875944,-101.991302,83.680476,0.790051,-0.127565,0.458259
882,-314.763104,-62.012665,51.514458,1.054337,0.067628,1.999969
883,-237.369345,-31.250477,22.949569,1.125505,-0.343633,1.999969
884,-150.331884,26.428626,-11.718929,0.316899,-0.038819,1.340352
885,-212.588693,39.612421,17.090105,-1.278218,0.139651,1.999969
886,-193.484398,-39.246204,52.735180,-1.118791,-1.255024,1.999969
887,-27.771420,-79.285878,33.752956,0.277836,-0.184695,1.798611
888,-52.552071,-65.980011,31.616693,1.307027,0.469978,1.946685
889,-52.979324,-7.507439,15.747311,0.236088,-0.010376,0.914076
890,-62.134737,-14.282444,21.240558,-0.787976,-0.042969,1.099870
891,-51.758602,-51.819638,20.630198,0.198367,-0.014405,1.169818
892,-32.898451,-35.950256,2.502480,0.448127,0.188479,1.404685
893,-49.988556,-19.165332,4.699779,-0.190921,-0.106203,0.985977
894,-34.607462,-30.518044,4.150454,-0.027955,-0.037598,1.301167
895,-21.484703,-23.437858,1.770047,0.178347,0.016236,1.182391
896,-21.850919,-14.526589,2.441444,-0.063844,-0.009400,1.007340
897,-19.104295,-17.273213,3.051804,-0.028077,0.017212,1.060319
898,-16.540780,-14.099336,1.525902,0.110964,0.025147,1.029435
899,-19.348440,-9.826810,2.929732,-0.020874,-0.016968,1.042741
900,-16.906996,-9.033341,2.990768,0.080079,0.003540,1.077775
901,-15.991455,-4.577707,4.028382,0.029908,0.007935,1.018326
902,-16.357671,-3.540093,3.784237,0.002075,-0.001343,0.960342
903,-18.493935,-5.004959,3.723201,0.004883,0.008179,0.972061
904,-20.325017,-5.737392,3.723201,-0.024292,-0.000732,0.984878
905,-21.545739,-6.775006,3.234913,-0.020142,0.015015,1.042985
906,-17.395285,-8.545052,3.784237,0.021241,0.050416,1.006363
907,-18.860151,-5.920500,3.540093,0.004639,-0.010498,1.007095
908,-16.968032,-4.760815,2.807660,0.015991,-0.030762,1.078019
909,-13.366903,-2.258335,2.380407,0.028931,-0.017578,1.022232
910,-14.953841,0.610361,2.563516,0.017334,-0.012329,0.977310
911,-18.127718,2.075227,2.441444,0.026368,-0.012696,1.012467
912,-20.019837,3.723201,2.685588,0.011353,-0.033936,1.017227
913,-18.554971,5.310140,2.929732,0.022095,-0.043458,1.016007
914,-17.883574,6.408789,3.784237,0.015869,-0.049805,1.017838
915,-16.968032,7.324331,4.150454,0.001099,-0.043824,1.018326
916,-16.601816,7.080186,4.028382,-0.016968,-0.041260,0.999283
917,-16.906996,5.737392,3.723201,-0.025635,-0.026001,1.017594
918,-13.244831,3.540093,0.854505,-0.068971,-0.000977,1.036637
919,-14.404517,3.051804,1.831083,-0.020996,-0.032349,0.995499
920,-16.662852,1.525902,2.014191,-0.019409,-0.072389,1.062150
921,-10.009918,0.793469,1.403830,-0.007691,-0.073610,1.008316
922,-9.277485,0.610361,1.464866,-0.009400,-0.073121,1.002213
923,-7.995727,-0.244144,1.342794,-0.025757,-0.060426,0.996963
924,-7.995727,-1.709010,0.976577,-0.019409,-0.047120,0.967666
925,-13.122759,-3.479057,1.220722,-0.008301,-0.052979,0.976822
926,-15.320058,-4.150454,1.159686,0.001831,-0.058350,0.977676
927,-18.616007,-4.516670,1.342794,-0.001831,-0.055055,0.998672
928,-17.822538,-4.577707,0.976577,-0.013672,-0.066285,0.993423
929,-18.066682,-5.737392,1.037613,-0.015991,-0.054688,0.980484
930,-20.202945,-7.385367,1.770047,0.011841,-0.057496,0.984146
931,-20.752270,-7.019150,0.793469,-0.022217,-0.064820,0.972793
932,-22.278172,-8.300908,0.549325,-0.000610,-0.076173,0.990738
933,-23.620966,-8.422980,0.732433,-0.019532,-0.083131,0.987442
934,-23.193713,-8.850233,0.732433,0.019043,-0.057862,0.982925
935,-29.236286,-8.117800,0.793469,-0.001343,-0.063966,0.986831
936,-30.457008,-8.484016,0.366217,0.013794,-0.073243,0.995010
937,-34.668498,-7.507439,0.732433,0.027832,-0.088502,1.013199
938,-36.621653,-5.432212,2.258335,0.021973,-0.124636,1.015763
939,-34.180209,-3.234913,4.211490,-0.005493,-0.118288,1.010513
940,-33.813993,-3.051804,6.103609,0.033692,-0.116823,1.010025
941,-38.391699,-2.746624,8.056764,-0.010742,-0.139162,1.019791
942,-35.828183,-4.455634,7.690547,-0.002564,-0.149905,0.985977
943,-33.264668,-5.004959,7.385367,-0.025635,-0.165042,1.014420
944,-32.471199,-5.737392,5.004959,-0.004517,-0.130617,0.977798
945,-31.372549,-6.164645,2.258335,-0.021851,-0.118044,0.965347
946,-35.461967,-7.934691,-0.366217,-0.001709,-0.132815,0.967666
947,-41.687648,-9.948882,-2.868696,-0.009033,-0.144045,1.001236
948,-40.283818,-10.376135,-4.699779,-0.006226,-0.162600,0.980606
949,-38.696880,-12.085145,-8.117800,-0.075319,-0.124514,1.221576
950,-29.419394,-10.437171,-18.616007,-0.075196,-0.118654,1.017960
951,-39.734493,-3.723201,-37.903410,-0.005371,-0.056886,0.914809
952,-56.641489,3.601129,-48.218509,0.091066,-0.305180,1.046281
953,-32.532235,-1.037613,-21.850919,0.145388,-0.347295,1.053483
954,-13.488975,-2.929732,-4.211490,0.020386,-0.145998,1.005753
955,-33.752956,-4.272526,-8.239872,0.030396,-0.130983,1.111101
956,-45.777066,-5.493248,-8.789197,0.033692,-0.075563,0.965591
957,-59.082933,-3.601129,-16.601816,-0.005493,0.067750,0.958755
958,-91.981384,-2.624552,-20.263981,0.090944,-0.105959,0.987442
959,-83.802548,-7.751583,-1.525902,-0.012451,-0.061158,1.102678
960,-111.329824,-4.516670,-14.160372,0.042115,0.305180,0.885634
961,-177.431907,-19.653620,-55.481804,-0.107546,0.516487,1.368185
962,-396.124208,-3.295949,-41.443503,0.204715,0.729747,1.417258
963,-620.126650,-0.427253,-0.610361,-0.415167,0.198856,1.982330
964,-680.674449,-43.457694,26.672770,-0.070069,-0.281621,1.308858
965,-742.442969,-48.157473,40.650034,0.057130,-0.159060,0.863416
966,-803.723201,-73.060197,39.429313,0.188968,-1.384176,1.250141
967,-931.288624,-108.094911,177.126726,-0.895277,-0.943008,1.999969
968,-335.149157,-119.264515,6.591897,-0.666392,-1.569116,1.999969
969,201.907378,-110.353246,-42.359045,-0.247074,0.630625,1.999969
970,184.634165,-71.534295,-50.293736,0.126467,1.352682,1.999969
971,13.366903,-48.706798,-27.405203,-0.183230,0.710704,1.999969
972,-41.565576,-37.659266,10.254063,-0.116457,0.401129,1.489036
973,64.087892,8.484016,-15.014878,-0.144656,0.184817,1.270161
974,147.951476,26.550698,-21.728847,-0.122560,0.398077,0.794202
975,117.433433,11.963073,-12.634470,-0.140261,0.361944,0.710948
976,115.846494,-6.591897,-5.310140,-0.154543,0.187503,0.803113
977,157.717250,-13.794156,-3.356985,-0.141726,0.192874,0.774548
978,167.055772,-23.193713,0.305180,-0.116091,0.239384,0.759289
979,169.680324,-29.785611,1.464866,-0.056641,0.232181,0.900771
980,189.944305,-26.855879,-3.173877,-0.032349,0.248051,1.102678
981,206.607156,-19.897765,-9.826810,-0.033448,0.225711,1.205219
982,223.514153,-9.582666,-16.113527,-0.069581,0.154299,1.228168
983,243.228809,2.380407,-21.301595,-0.115969,0.063111,1.145281
984,255.558099,12.939651,-22.644388,-0.176150,-0.016846,1.088273
985,261.844816,18.860151,-20.569162,-0.213382,-0.086671,1.109026
986,270.084688,21.179522,-16.235599,-0.213138,-0.097169,1.348531
987,280.827039,21.301595,-12.390326,-0.176028,-0.152102,1.550072
988,302.372778,24.780652,-11.108568,-0.106935,-0.239017,1.485008
989,318.486305,33.508812,-13.366903,-0.070558,-0.313603,1.256367
990,311.772335,41.626612,-15.503166,-0.042481,-0.433356,0.937392
991,293.156329,54.322118,-18.493935,0.009766,-0.597543,0.623911
992,262.516213,64.820325,-18.982223,0.024048,-0.521248,0.855604
993,231.204700,58.533608,-17.334249,0.075807,-0.401007,1.335348
994,228.763256,43.091478,-21.789883,0.206302,-0.377325,1.678859
995,239.932860,42.114900,-33.081559,0.309697,-0.294560,1.898833
996,235.477226,51.636530,-45.105669,0.330083,-0.280034,1.999969
997,235.233082,58.655680,-55.420768,0.239750,-0.351080,1.999969
998,246.768902,56.031128,-62.256809,0.133303,-0.431159,1.999969
999,268.497749,53.223468,-66.102083,0.081666,-0.578500,1.999969
1000,293.461509,60.364691,-69.703212,0.102052,-0.669322,1.999969
1001,284.733349,72.388800,-70.740826,0.096559,-0.682261,1.730373
1002,264.164187,79.041733,-69.886320,0.090455,-0.733654,1.716823
1003,260.990311,83.985657,-70.008392,0.084718,-0.737926,1.600488
1004,245.731289,89.112688,-69.275959,0.103029,-0.705455,1.549462
1005,223.331044,99.061570,-70.313573,0.141604,-0.788830,1.499779
1006,206.973373,121.461814,-73.670558,0.133059,-0.913954,1.327901
1007,178.652628,144.289311,-73.365377,0.046265,-1.098650,1.165667
1008,146.913863,153.749905,-64.698253,-0.038209,-1.398947,1.210468
1009,119.630732,147.829404,-46.631571,0.041138,-1.760647,1.482811
1010,92.835889,132.448310,-22.766461,0.272343,-2.000031,1.663600
1011,80.933852,129.579614,-1.342794,0.448249,-2.000031,1.272602
1012,133.363851,127.138170,9.948882,0.496956,-2.000031,0.029053
1013,139.406424,98.268101,11.596857,0.435187,-2.000031,-1.212299
1014,14.953841,15.442130,39.673457,0.300175,-1.921660,-1.182391
1015,-134.340429,-97.474632,62.561990,0.241703,-2.000031,-1.526879
1016,-228.946365,-198.367285,85.633631,0.463874,-1.739773,0.047730
1017,-235.111009,-221.133745,76.722362,0.660288,-1.790311,0.661753
1018,-151.979858,-152.529183,61.524376,0.331548,-0.015503,1.664820
1019,-134.218357,-87.953002,44.068055,-0.059083,0.899794,1.853910
1020,-219.302663,-79.285878,76.539254,0.343755,0.677867,0.629160
1021,-319.157702,-99.244678,75.501640,1.150652,-0.364996,0.629282
1022,-296.391241,-67.750057,53.833829,1.317647,-0.359258,1.999969
1023,-261.173419,-39.124132,26.184482,1.234272,-0.131960,1.999969
1024,-193.667506,-0.366217,0.305180,0.086427,-0.525765,1.999969
1025,-131.166552,-31.982910,9.033341,-1.481590,-0.465461,1.999969
1026,-98.817426,-83.802548,43.579767,-1.365377,-0.528939,0.919692
1027,-76.173037,-142.946517,52.307927,1.046769,0.342901,1.999969
1028,-84.290837,-88.075074,24.048219,1.999969,0.106447,1.999969
1029,-46.326390,3.173877,2.502480,-0.228641,0.036378,1.462303
1030,-60.730907,-24.597543,13.733120,-0.767956,-0.113039,1.049577
1031,-26.428626,-53.833829,4.028382,0.495613,0.079225,1.259663
1032,-38.391699,-23.376822,-3.295949,0.376349,-0.042115,1.371359
1033,-32.288090,-10.620279,3.723201,-0.149783,-0.106203,1.202655
1034,-6.347753,-18.310826,0.976577,0.041749,0.042115,0.954849
1035,-21.728847,-15.686275,0.671397,0.059327,0.057496,0.924575
1036,-31.494621,-15.930419,0.854505,-0.034058,-0.062989,1.095476
1037,-17.517357,-15.808347,2.014191,0.151003,-0.062867,1.093278
1038,-13.061723,-7.751583,2.197299,0.099977,-0.010254,1.025895
1039,-18.310826,-6.042573,3.540093,0.030762,-0.122927,0.955459
1040,-9.948882,-7.568475,5.127031,0.091432,-0.016480,1.035904
1041,-13.122759,-4.516670,5.004959,0.052491,-0.014649,0.998428
1042,-14.709697,-4.333562,5.493248,0.020996,-0.014405,1.020279
1043,-12.695506,-4.333562,4.821851,0.054932,-0.011963,0.982681
1044,-14.770733,-4.089418,3.784237,0.008789,0.043946,0.996597
1045,-19.409476,-7.080186,3.662165,0.006958,0.018921,1.010147
1046,-17.761501,-8.606088,2.685588,0.023560,-0.060304,1.029557
1047,-11.841001,-7.263294,1.831083,0.051270,-0.089723,0.974868
1048,-11.779965,-6.103609,2.563516,0.041627,-0.032837,1.036759
1049,-10.498207,-5.310140,2.807660,0.054810,-0.003296,1.031632
1050,-9.399557,-4.455634,2.685588,0.061402,-0.054322,0.994034
1051,-9.643702,-3.479057,2.258335,0.044923,0.016968,1.025528
1052,-8.789197,-3.601129,2.258335,0.035523,0.036133,1.043839
1053,-9.521630,-3.723201,2.136263,0.050294,-0.000122,1.021500
1054,-8.606088,-3.784237,1.647974,0.029053,-0.007080,0.970108
1055,-11.169604,-4.943923,1.159686,0.031495,-0.020386,0.946059
1056,-13.611048,-6.591897,1.220722,0.031006,-0.037720,0.986221
1057,-13.733120,-6.836042,0.488289,0.043946,-0.074220,0.969497
1058,-14.892805,-7.324331,0.549325,0.061769,-0.060914,1.017227
1059,-12.085145,-6.225681,0.488289,0.055055,-0.058473,1.011490
1060,-11.230640,-5.554284,0.732433,0.034302,-0.009888,1.037736
1061,-10.437171,-5.798428,0.854505,0.049928,-0.046265,0.999649
1062,-11.657893,-6.347753,0.671397,0.053834,-0.056397,0.985855
1063,-12.634470,-6.713970,0.000000,0.042481,-0.041138,1.009903
1064,-11.779965,-6.775006,0.305180,0.066773,-0.055543,1.003922
1065,-11.902037,-6.897078,0.244144,0.052247,-0.064942,0.971328
1066,-12.512398,-6.652934,0.732433,0.072633,-0.074220,1.005631
1067,-12.268254,-5.920500,1.220722,0.062989,-0.071534,0.994278
1068,-10.376135,-6.347753,2.868696,0.053834,-0.015747,0.987320
1069,-16.601816,-5.493248,2.319371,0.074220,-0.046143,0.975113
1070,-20.141909,-5.127031,2.319371,0.056275,-0.065064,0.983658
1071,-20.141909,-3.112840,1.525902,0.088746,-0.069337,1.005997
1072,-22.583352,-1.770047,1.647974,0.066651,-0.074586,1.033097
1073,-19.897765,-0.854505,1.403830,0.061280,-0.086427,1.012711
1074,-19.958801,0.488289,2.075227,0.111452,0.118776,0.966567
1075,-23.987182,-1.586938,1.342794,0.041505,-0.034546,1.007218
1076,-24.597543,-2.441444,1.464866,0.043214,-0.070314,0.959365
1077,-32.532235,-1.342794,1.892119,0.065797,-0.096071,0.965835
1078,-40.039673,0.366217,2.380407,0.049561,-0.101442,1.053605
1079,-35.461967,0.366217,6.713970,0.063355,-0.118166,0.977310
1080,-36.499580,1.770047,6.958114,0.172000,-0.036255,0.999893
1081,-46.448463,7.507439,7.385367,-0.031495,-0.026734,0.997330
1082,-55.420768,2.807660,4.089418,0.093141,-0.116945,1.013809
1083,-46.814679,4.150454,1.525902,0.025025,-0.094972,1.056168
1084,-47.241932,4.333562,-2.563516,0.055787,-0.136355,0.948257
1085,-39.185168,3.418021,-5.859464,-0.002564,-0.114504,0.920668
1086,-38.025483,0.488289,-17.212177,-0.043336,-0.181399,1.071183
1087,-46.509499,2.685588,-30.334936,-0.005005,-0.149294,1.059098
1088,-53.894865,3.295949,-43.640803,0.083253,-0.240116,1.011612
1089,-38.696880,3.845274,-30.640116,0.231449,-0.345586,1.086198
1090,-15.503166,3.601129,-4.028382,0.183719,-0.263554,1.090471
1091,-18.493935,7.202258,10.254063,0.149660,0.022095,1.045670
1092,-60.730907,24.048219,-2.258335,0.091066,0.247562,0.967300
1093,-120.973526,34.180209,-15.503166,0.140017,0.158694,0.916152
1094,-160.830091,35.767147,-12.817578,-0.130861,0.367437,0.753429
1095,-194.705119,-7.507439,-15.136950,-0.420905,-0.003052,0.381720
1096,-218.997482,-34.912642,-3.540093,-0.089235,0.966201,1.368917
1097,-407.415885,-61.829557,-85.145342,-0.410529,0.221317,1.564355
1098,-572.152285,-134.767681,-15.747311,-0.546395,-0.067994,1.469139
1099,-739.696346,-243.961242,30.884260,-0.263188,0.043824,1.472313
1100,-811.108568,-268.253605,84.534981,-0.184939,-0.376349,1.064836
1101,-1003.921569,-189.394980,199.832151,0.565927,-2.000031,1.999969
1102,-619.699397,-17.334249,175.356680,-1.531762,-0.019532,1.999969
1103,121.339742,31.006332,-35.584039,-0.509163,0.249271,1.999969
1104,227.298390,61.463340,-28.259709,-0.816785,1.119402,1.999969
1105,36.377508,49.195087,-7.629511,-0.768688,0.601694,1.839628
1106,-82.337682,-41.992828,87.830930,-0.559091,0.386114,1.315694
1107,-26.672770,-57.251850,100.160220,-0.144289,0.336187,1.378195
1108,126.955062,-36.804761,73.121233,-0.061036,0.432868,1.284199
1109,138.307774,-31.616693,67.200732,0.188357,0.640635,1.147478
1110,117.616541,-24.902724,55.054551,0.336553,0.469612,1.236225
1111,162.050813,-2.502480,30.823224,0.345098,0.372564,1.124041
1112,198.123140,11.841001,5.432212,0.362921,0.402228,0.802502
1113,195.681697,15.320058,-12.390326,0.329595,0.325689,0.655650
1114,197.451743,16.662852,-26.123445,0.224613,0.226932,0.652232
1115,209.231708,16.174563,-37.415122,0.152834,0.195560,0.719005
1116,213.015946,13.611048,-43.518730,0.077272,0.153811,0.828260
1117,220.218204,12.390326,-46.997787,0.035035,0.086671,0.991226
1118,234.866865,17.029068,-49.073014,-0.020752,0.052247,1.164813
1119,247.806516,23.315785,-48.035401,-0.067018,0.005737,1.354147
1120,262.149996,28.381781,-43.884947,-0.080812,-0.069337,1.515404
1121,283.390555,32.898451,-40.100710,-0.019532,-0.146365,1.450462
1122,299.504082,38.696880,-40.772107,0.085328,-0.219242,1.364157
1123,302.372778,45.044633,-42.114900,0.157229,-0.303349,1.098405
1124,293.339437,51.697566,-46.387427,0.202762,-0.468147,0.795666
1125,273.624781,61.646448,-51.087205,0.281010,-0.563729,0.629526
1126,241.519799,65.064469,-52.857252,0.274540,-0.480232,0.907851
1127,217.166400,59.693294,-56.580453,0.253178,-0.464118,1.225238
1128,216.922255,61.585412,-61.585412,0.198734,-0.383673,1.652491
1129,204.715038,69.886320,-61.280232,0.129763,-0.369268,1.999969
1130,207.583734,78.126192,-58.289464,0.087648,-0.518196,1.999969
1131,240.421149,85.816739,-56.458381,0.099245,-0.628672,1.999969
1132,253.482872,89.417868,-49.561303,0.104982,-0.635630,1.999969
1133,252.384222,82.642863,-41.931792,0.174685,-0.800427,1.892241
1134,258.915084,81.422141,-37.720302,0.295659,-0.762707,1.818265
1135,245.426108,76.966506,-35.339895,0.356573,-0.741833,1.906157
1136,247.867552,72.999161,-35.523003,0.394781,-0.768200,1.871122
1137,253.910124,70.862898,-38.452735,0.344366,-0.774914,1.642725
1138,238.406958,65.857939,-37.964446,0.212406,-0.842908,1.492088
1139,224.734875,62.623026,-35.523003,0.075807,-0.946059,1.444968
1140,209.964141,63.050278,-30.457008,-0.098634,-1.096208,1.410056
1141,192.324712,65.796902,-17.395285,-0.277836,-1.318624,1.319234
1142,176.821546,65.980011,0.488289,-0.285405,-1.594018,1.077165
1143,151.979858,62.989242,19.592584,-0.052125,-1.884306,0.903944
1144,117.189288,63.538567,32.166018,0.323003,-2.000031,0.828138
1145,93.873503,74.830243,23.682002,0.667491,-2.000031,0.613779
1146,78.370336,90.699626,7.507439,0.671641,-2.000031,0.509529
1147,52.491035,90.699626,10.742351,0.425910,-2.000031,0.108766
1148,15.991455,53.711757,27.710384,0.173220,-1.800565,0.015137
1149,-17.456321,-3.601129,50.782025,0.036133,-1.516014,0.337407
1150,-34.058137,-47.852293,68.665599,0.123903,-1.590845,-2.000031
1151,-166.628519,-112.916762,64.698253,0.570443,-1.320089,-0.484504
1152,-239.200427,-107.057298,51.514458,0.278325,-1.015763,0.324712
1153,-107.484550,-60.486763,28.381781,-0.157107,0.543832,1.271870
1154,-156.435492,-82.703899,28.809033,-0.280278,0.915785,1.462181
1155,-294.987411,-102.906844,61.158160,0.145266,0.308354,1.070695
1156,-299.931334,-75.074388,72.755016,0.354864,-0.687877,1.262593
1157,-209.903105,-52.429999,49.683375,0.877577,-0.305669,1.999969
1158,-213.931487,-38.391699,37.598230,1.134051,0.022583,1.999969
1159,-155.642023,-9.765774,18.371862,0.544564,-0.318364,1.999969
1160,-106.446937,-17.517357,15.442130,-0.552377,0.000488,1.999969
1161,-105.836576,-43.274586,39.063096,-0.942885,-0.443854,1.339498
1162,-73.792630,-83.070115,35.767147,0.500252,0.084474,1.620874
1163,-71.778439,-54.627298,18.310826,1.269062,0.124147,1.911528
1164,-58.106355,-7.507439,15.869383,-0.075929,0.058595,1.209003
1165,-64.698253,-24.658579,13.855192,-0.560555,-0.116457,1.043473
1166,-49.195087,-50.110628,10.070954,0.232181,0.030640,1.218647
1167,-42.114900,-35.584039,2.685588,0.224857,0.081300,1.205341
1168,-54.505226,-24.963760,2.075227,0.008667,-0.120119,1.237934
1169,-21.240558,-23.926146,-2.746624,-0.012818,-0.049317,1.153826
1170,-16.296635,-23.559930,-3.784237,0.080079,0.003784,1.009781
1171,-26.428626,-21.057450,-0.305180,0.012207,-0.059327,1.111955
1172,-9.460594,-20.080873,-0.976577,0.078981,-0.018311,1.042618
1173,-13.916228,-15.625238,0.549325,0.093385,0.009888,0.968643
1174,-18.432898,-11.902037,2.685588,0.053834,-0.041505,1.007218
1175,-16.235599,-9.338521,3.356985,0.069581,-0.004761,0.992447
1176,-19.653620,-6.225681,3.601129,0.074342,0.010132,1.015030
1177,-23.498894,-4.089418,3.601129,0.032105,-0.019654,1.020890
1178,-21.789883,-3.723201,3.479057,0.048707,0.006714,1.063981
1179,-18.127718,-2.929732,3.051804,0.026612,-0.019409,1.040421
1180,-15.991455,-2.319371,1.770047,0.047364,-0.028443,1.036637
1181,-16.662852,-1.770047,2.197299,0.051026,-0.036988,1.007462
1182,-12.573434,-0.061036,1.647974,0.044678,0.007813,0.982437
1183,-23.071641,0.427253,2.441444,0.046265,-0.017090,1.031632
1184,-19.165332,3.479057,1.159686,0.055177,-0.125002,1.041276
1185,-16.052491,5.432212,2.014191,0.057496,-0.030152,1.024430
1186,-17.212177,6.286717,2.868696,0.051881,-0.042725,1.018448
1187,-16.784924,6.225681,2.807660,0.041260,-0.050416,1.024430
1188,-14.892805,5.310140,2.685588,0.025757,-0.057862,0.990616
1189,-14.099336,3.601129,2.075227,0.021241,-0.043091,0.997696
1190,-16.113527,1.953155,1.709010,0.024292,-0.068238,0.985855
1191,-12.085145,0.671397,1.770047,0.022827,-0.055421,0.975601
1192,-14.770733,-1.098650,1.586938,0.003418,-0.046632,0.969619
1193,-15.136950,-3.479057,1.098650,0.018433,-0.062135,0.977432
1194,-14.526589,-4.455634,0.732433,0.034302,-0.062623,0.998184
1195,-15.197986,-4.943923,0.732433,0.042725,-0.083009,1.012467
1196,-13.183795,-4.638743,0.549325,0.055177,-0.082399,1.031510
1197,-11.352712,-4.028382,0.488289,0.033692,-0.049928,1.055192
1198,-8.972305,-3.723201,0.671397,0.026734,-0.074830,1.038346
1199,-7.629511,-3.845274,-0.244144,0.037110,-0.091432,0.954604
1200,-10.315099,-4.394598,-0.488289,0.050172,-0.088624,0.980240
1201,-12.146181,-4.272526,0.183108,0.040528,-0.075807,1.007218
1202,-10.131991,-4.394598,1.159686,0.051026,-0.072389,0.975601
1203,-12.512398,-4.150454,1.770047,0.040040,-0.068360,0.980362
1204,-14.404517,-4.760815,1.892119,0.041505,-0.069337,0.996353
1205,-15.259022,-4.821851,2.014191,0.038697,-0.071290,0.979873
1206,-17.212177,-5.493248,2.136263,0.035401,-0.076661,0.987930
1207,-18.982223,-6.836042,3.112840,0.051026,-0.075441,1.010391
1208,-19.043259,-6.958114,3.356985,0.064820,-0.053956,0.983658
1209,-25.024796,-6.775006,3.051804,0.024659,-0.060182,0.952895
1210,-29.724575,-5.798428,2.014191,0.078370,-0.111818,1.015518
1211,-24.719615,-3.967346,1.220722,0.039063,-0.098024,1.012955
1212,-26.916915,-3.845274,1.892119,0.059083,-0.116457,1.000137
1213,-30.762188,-2.014191,3.234913,0.098512,-0.113771,0.860853
1214,-24.902724,1.281758,7.141222,0.083497,-0.108156,1.025895
1215,-33.325704,2.319371,8.850233,0.008545,-0.095949,0.975113
1216,-36.621653,1.525902,8.239872,0.048096,-0.042237,0.950576
1217,-51.453422,0.427253,6.836042,-0.010620,-0.055909,0.978042
1218,-56.153201,-2.136263,3.418021,0.017700,-0.105715,1.007340
1219,-56.092164,-2.319371,-0.244144,-0.002686,-0.137087,0.950454
1220,-56.702525,-4.028382,-2.685588,0.017212,-0.152224,1.106828
1221,-44.922560,-2.075227,-9.338521,-0.005737,-0.154910,0.924819
1222,-41.199359,-1.770047,-20.569162,0.027100,-0.069825,0.815076
1223,-59.449149,4.638743,-36.133364,0.014771,-0.137697,1.046891
1224,-61.280232,2.990768,-40.955215,0.111086,-0.355840,0.923964
1225,-43.030442,-1.098650,-26.916915,0.203006,-0.404425,1.040909
1226,-16.418708,-2.075227,-4.943923,0.187503,-0.216312,1.035660
1227,-18.127718,0.610361,6.225681,0.096071,0.151736,0.990372
1228,-87.525750,17.822538,-8.606088,0.125368,0.177493,0.984512
1229,-136.110475,26.977951,-16.113527,0.182498,0.158450,0.826429
1230,-174.013886,24.780652,-9.216449,-0.136843,0.487800,0.757946
1231,-173.952850,-28.320745,13.427939,-0.369635,0.156741,1.159442
1232,-259.159228,-41.992828,9.826810,-0.157229,0.912245,1.768948
1233,-488.166629,-66.651408,-38.574807,-0.399420,0.285283,1.234638
1234,-611.520562,-126.466773,24.719615,-0.059083,-0.056886,1.291890
1235,-753.490501,-179.507134,56.153201,-0.033570,-0.219608,1.312032
1236,-808.361944,-177.920195,96.131838,0.169192,-0.098146,0.931533
1237,-1001.663233,-143.312734,166.506447,0.787366,-2.000031,1.999969
1238,-635.385672,-13.550011,169.802396,-1.206439,-0.131594,1.999969
1239,134.767681,22.339208,-57.984283,-0.100832,0.265263,1.999969
1240,243.228809,53.040360,-58.838788,-0.533455,1.082414,1.999969
1241,48.157473,36.926833,-54.566262,-0.570565,0.532967,1.942168
1242,-66.712444,-37.659266,47.180896,-0.510872,0.385016,1.313375
1243,-23.132677,-44.739452,59.510185,-0.166629,0.260624,1.226093
1244,135.927367,-16.418708,32.471199,-0.119020,0.292363,0.955581
1245,138.246738,-9.460594,28.198672,0.124147,0.481453,0.573007
1246,90.882734,-6.836042,24.109255,0.172000,0.349126,0.770764
1247,124.635691,6.836042,8.300908,0.230838,0.274052,0.886854
1248,161.867704,16.662852,-9.216449,0.190921,0.347662,0.905165
1249,161.257343,12.512398,-17.700465,0.123171,0.293339,1.047868
1250,184.328985,10.742351,-24.048219,0.031006,0.201785,1.217914
1251,216.372931,10.742351,-27.771420,-0.038575,0.151369,1.235004
1252,233.218891,8.056764,-25.452049,-0.102419,0.138918,1.289204
1253,248.722057,9.399557,-24.963760,-0.131106,-0.045655,1.173968
1254,268.619821,15.320058,-23.254749,-0.140383,-0.144656,1.187640
1255,271.976806,20.141909,-18.860151,-0.183597,-0.235966,1.261738
1256,281.559472,26.672770,-13.244831,-0.177859,-0.288945,1.396628
1257,296.940566,34.485389,-8.239872,-0.147097,-0.324468,1.479026
1258,307.438773,40.650034,-2.441444,-0.071534,-0.329839,1.561425
1259,314.946212,43.030442,1.159686,0.037232,-0.398077,1.565820
1260,322.270542,43.457694,-0.305180,0.210697,-0.488289,1.417014
1261,323.125048,44.373236,-11.291676,0.336797,-0.598032,1.205463
1262,313.603418,51.941711,-26.367590,0.447761,-0.642588,1.005020
1263,286.137179,61.280232,-42.542153,0.538094,-0.678111,0.902968
1264,255.558099,61.280232,-56.763561,0.455451,-0.656504,0.932143
1265,231.265736,48.523690,-70.374609,0.365972,-0.623301,1.091203
1266,210.452430,42.420081,-80.201419,0.273320,-0.513680,1.463890
1267,191.103990,41.687648,-86.976425,0.222293,-0.447395,1.999969
1268,194.216831,48.889906,-94.117647,0.185550,-0.480720,1.999969
1269,221.194781,63.111315,-101.197833,0.134035,-0.627329,1.999969
1270,244.205386,77.515831,-104.249638,0.066041,-0.690684,1.999969
1271,245.548180,83.619440,-101.014725,0.061036,-0.761242,1.843168
1272,243.167773,84.962234,-94.605936,0.088869,-0.792493,1.629664
1273,238.406958,88.136110,-88.014038,0.167117,-0.753307,1.515282
1274,222.415503,93.568322,-80.933852,0.199344,-0.745617,1.447166
1275,210.086213,98.817426,-75.196460,0.239872,-0.770275,1.376364
1276,195.742733,102.967880,-69.275959,0.177371,-0.862928,1.250385
1277,176.089113,99.916075,-59.021897,0.083864,-0.974990,1.183246
1278,158.876936,87.769894,-45.838102,0.033570,-1.141863,1.168353
1279,141.603723,71.656367,-32.471199,0.131960,-1.348653,1.342184
1280,123.903258,59.021897,-22.278172,0.368414,-1.655543,1.675807
1281,120.424201,65.491722,-22.156100,0.615000,-2.000031,1.521996
1282,134.767681,92.286564,-37.354086,0.615854,-2.000031,0.822522
1283,140.199893,120.790417,-45.105669,0.455329,-2.000031,-0.248661
1284,79.896239,111.451896,-31.067369,0.195193,-2.000031,-0.983169
1285,-9.582666,56.336309,0.061036,-0.054322,-1.874296,-0.813977
1286,-63.233387,-19.714656,30.762188,-0.155032,-1.545068,-0.051148
1287,-78.553445,-73.487449,54.077974,-0.300420,-1.362570,0.226688
1288,-181.643397,-164.370184,66.407263,0.216678,-1.338643,0.050172
1289,-221.744106,-198.428321,75.501640,0.525032,-0.679332,1.091691
1290,-110.292210,-143.739986,45.899138,0.321050,0.507454,1.976226
1291,-82.276646,-104.127565,29.846647,-0.120363,1.135271,1.999969
1292,-192.385748,-89.845121,66.773480,0.087282,0.510140,0.094972
1293,-243.228809,-105.043107,62.806134,0.881849,-0.362554,-0.608408
1294,-274.479286,-80.933852,47.241932,0.881117,-0.097292,0.559213
1295,-326.604105,-78.614481,38.941024,0.822400,-0.178103,1.999969
1296,-243.350881,-30.884260,28.625925,-0.105348,-0.985489,1.999969
1297,-109.559777,-92.103456,23.987182,-1.018448,-0.620371,1.999969
1298,-64.942397,-116.639963,40.955215,-0.273930,-0.041505,1.680323
1299,-80.933852,-127.016098,42.664225,1.863798,0.298589,1.999969
1300,-49.134051,-29.602502,5.065995,0.918593,-0.058473,1.545556
1301,-52.368963,-0.854505,0.488289,-0.698375,-0.198123,1.207538
1302,-50.232700,-40.283818,15.564202,0.021118,-0.055787,1.280903
1303,-18.371862,-29.419394,-0.305180,0.409186,0.091676,1.250019
1304,-37.293050,-11.047532,-1.831083,-0.014038,-0.107912,1.240375
1305,-13.427939,-12.634470,-2.990768,-0.013916,-0.088258,1.209369
1306,0.244144,-9.582666,-4.821851,0.124269,0.086305,0.949599
1307,-17.822538,-2.197299,-3.601129,0.050904,0.038209,1.055436
1308,-18.127718,0.244144,-2.136263,0.000366,-0.105104,1.117571
1309,-0.549325,3.418021,-1.403830,0.109987,0.004883,1.055314
1310,-7.324331,9.887846,0.854505,0.045899,-0.002808,1.019913
1311,-5.065995,11.230640,2.319371,0.011231,-0.037964,1.053483
1312,-0.732433,12.024109,4.028382,0.040650,-0.008301,1.002335
1313,-1.159686,12.695506,4.577707,-0.016846,0.009522,0.976455
1314,-2.502480,9.887846,4.943923,-0.009277,0.013672,0.954238
1315,-4.150454,7.446403,4.699779,0.003906,0.025025,0.977066
1316,-5.493248,5.310140,3.601129,-0.031495,0.008667,0.977432
1317,-5.065995,1.709010,2.685588,-0.028565,0.003540,0.984634
1318,-4.638743,-0.671397,1.770047,-0.006958,0.004150,0.967910
1319,-5.859464,-2.075227,2.502480,-0.004639,-0.001709,0.992081
1320,-5.249104,-3.479057,2.563516,-0.009277,0.007080,0.993668
1321,-4.089418,-5.676356,3.356985,-0.014893,-0.029297,0.986587
1322,-5.859464,-6.958114,3.540093,0.013184,-0.006104,0.979995
1323,-7.324331,-7.385367,4.028382,0.015869,-0.005371,0.973159
1324,-9.887846,-8.361944,4.211490,0.029786,0.038941,0.952407
1325,-16.296635,-9.826810,4.211490,-0.005859,0.002564,0.892836
1326,-22.095064,-12.939651,4.211490,-0.009400,0.016480,0.910292
1327,-28.931106,-15.564202,3.906310,-0.016724,-0.013794,0.986465
1328,-27.100023,-16.052491,2.685588,0.014160,-0.034791,1.048966
1329,-23.743038,-15.564202,2.258335,0.018921,-0.042725,1.033219
1330,-19.409476,-15.320058,1.159686,-0.004761,-0.004150,0.995499
1331,-23.315785,-14.953841,2.014191,0.012329,-0.014649,0.993179
1332,-23.743038,-15.930419,1.892119,0.020630,-0.036500,1.024063
1333,-19.348440,-15.320058,0.976577,0.051148,-0.062013,1.027726
1334,-19.104295,-13.672084,0.305180,0.036133,-0.065309,1.050553
1335,-14.404517,-12.268254,0.671397,0.050904,-0.056275,1.031632
1336,-15.014878,-11.474784,0.549325,0.042359,-0.056397,0.999283
1337,-14.526589,-11.230640,1.098650,0.053956,-0.046265,1.014542
1338,-14.648661,-10.315099,1.464866,0.050050,-0.041260,0.987198
1339,-18.066682,-10.070954,1.403830,0.039673,-0.046632,0.958999
1340,-21.057450,-10.070954,1.709010,0.048951,-0.042847,1.001968
1341,-24.475471,-9.521630,1.586938,0.054200,-0.053590,0.990494
1342,-23.193713,-8.728161,1.525902,0.053101,-0.065675,0.999893
1343,-23.071641,-8.178836,1.709010,0.059693,-0.047120,0.988785
1344,-26.001373,-8.422980,2.014191,0.046265,-0.063478,1.008316
1345,-30.273899,-6.530861,2.258335,0.067506,-0.080690,0.996475
1346,-31.128405,-5.371176,2.868696,0.058717,-0.082277,1.031998
1347,-30.457008,-1.586938,3.234913,0.076295,-0.102663,0.985855
1348,-30.762188,0.366217,4.577707,0.059449,-0.047730,0.992813
1349,-39.734493,1.770047,5.432212,0.053101,-0.113893,0.872572
1350,-37.964446,1.403830,7.385367,0.052247,-0.153079,1.035660
1351,-30.884260,2.319371,10.070954,0.035401,-0.102907,1.018814
1352,-29.907683,5.493248,11.413748,0.099489,-0.017578,0.928725
1353,-54.627298,4.089418,8.728161,0.005859,-0.090211,1.013687
1354,-47.974365,3.540093,6.164645,0.031739,-0.120851,1.029068
1355,-46.509499,2.380407,3.540093,0.038575,-0.134646,0.970596
1356,-50.904097,1.770047,1.525902,0.043336,-0.157473,1.064714
1357,-37.903410,2.929732,-1.831083,-0.005859,-0.150515,1.013565
1358,-28.870069,1.647974,-9.155413,-0.021851,-0.110231,0.980240
1359,-35.461967,0.244144,-21.667811,-0.041016,-0.192996,1.081682
1360,-59.205005,10.131991,-37.537194,0.061524,-0.159670,1.071305
1361,-61.158160,9.216449,-40.405890,0.073610,-0.328252,1.058366
1362,-29.968719,1.281758,-21.789883,0.180667,-0.350225,1.059586
1363,-7.934691,2.685588,-4.638743,0.125734,-0.096925,1.042863
1364,-35.034714,8.422980,-6.347753,0.075319,0.283207,0.816541
1365,-100.770581,21.606775,-20.447089,0.183108,0.233768,0.907607
1366,-141.786831,31.189441,-15.259022,0.082887,0.149294,0.874891
1367,-180.788891,15.564202,-18.860151,-0.239872,0.276616,0.145388
1368,-185.183490,-19.653620,9.826810,0.147219,1.147723,0.942153
1369,-410.894942,-20.080873,-39.673457,0.238163,0.852552,1.351827
1370,-606.881819,-73.975738,-2.868696,-0.950454,-0.170657,1.999969
1371,-727.916381,-166.140230,54.383154,-0.369879,0.024659,1.679713
1372,-819.775692,-216.739147,84.107729,0.122316,-0.222660,0.709239
1373,-954.421302,-198.367285,158.022431,1.307515,-2.000031,1.999969
1374,-723.887999,-91.187915,218.448157,-0.317998,-0.555184,1.999969
1375,92.774853,-24.170291,-44.861524,-0.112673,-0.424689,1.999969
1376,348.882277,23.010605,-42.603189,-0.447761,1.032975,1.999969
1377,162.050813,38.330663,-51.148241,-0.355352,0.739025,1.332174
1378,-14.038300,-18.554971,44.861524,-0.632212,0.545418,0.635630
1379,-76.722362,-52.307927,76.905470,-0.260380,0.328862,0.641733
1380,53.101396,-17.029068,49.622339,-0.173465,0.075319,0.708629
1381,132.509346,-5.188067,33.264668,-0.032837,0.391608,0.506355
1382,79.530022,-13.550011,38.574807,0.068727,0.450080,0.722789
1383,78.553445,-18.982223,32.776379,0.091188,0.318608,1.039689
1384,140.688182,-13.366903,15.869383,0.154788,0.395880,1.050065
1385,158.937972,-11.291676,2.807660,0.194827,0.453254,0.992203
1386,159.304189,-6.286717,-8.056764,0.176028,0.352911,1.074723
1387,185.732815,5.127031,-21.240558,0.103517,0.268803,1.129168
1388,206.485084,13.061723,-29.480430,0.038819,0.223514,1.181781
1389,218.631266,15.991455,-32.654307,-0.028321,0.129397,1.363302
1390,242.862593,18.127718,-33.264668,-0.068116,0.015869,1.467063
1391,270.939193,22.217136,-31.433585,-0.088746,-0.089967,1.385763
1392,286.991684,21.423667,-26.733806,-0.094606,-0.176028,1.222309
1393,296.452277,20.019837,-22.156100,-0.042237,-0.224125,1.093400
1394,297.306783,23.071641,-20.263981,0.022705,-0.233280,1.097673
1395,292.362860,27.405203,-20.325017,0.095705,-0.220218,1.272724
1396,292.484932,33.447776,-24.109255,0.157351,-0.275029,1.391501
1397,294.010834,45.105669,-32.349126,0.207156,-0.473640,1.156146
1398,284.184024,64.454108,-40.711070,0.191775,-0.543221,1.029679
1399,263.553826,75.806821,-45.777066,0.187381,-0.584848,0.854627
1400,238.467994,78.370336,-49.744411,0.184939,-0.504280,1.035416
1401,205.874723,71.961547,-49.439231,0.151858,-0.391974,1.758206
1402,197.756924,64.332036,-49.378195,0.109987,-0.447150,1.999969
1403,230.716411,66.712444,-48.523690,0.065797,-0.604379,1.999969
1404,266.971847,75.684749,-48.706798,0.059571,-0.713390,1.999969
1405,256.229496,82.093538,-41.321431,0.013550,-0.710216,1.999969
1406,241.763943,69.947356,-30.395972,0.024903,-0.762585,1.999969
1407,269.779507,56.580453,-25.207904,0.125978,-0.813001,1.999969
1408,303.349355,56.397345,-26.184482,0.230838,-0.835462,1.999969
1409,301.335164,61.951629,-28.747997,0.239261,-0.897108,1.705715
1410,282.902266,62.561990,-29.846647,0.168460,-1.018692,1.535668
1411,267.521172,58.899825,-29.419394,0.088380,-1.143084,1.509422
1412,253.360800,56.824598,-26.611734,0.025757,-1.292500,1.484764
1413,235.111009,60.120546,-20.080873,-0.004273,-1.517967,1.336446
1414,211.612116,67.383841,-12.329290,0.076783,-1.864897,1.070817
1415,175.967041,77.088579,-4.699779,0.382208,-2.000031,0.765759
1416,127.626459,94.911116,-12.756542,0.704967,-2.000031,0.531258
1417,92.347601,123.598077,-27.649348,0.602548,-2.000031,0.151125
1418,70.191501,127.687495,-23.682002,0.349371,-2.000031,-0.456062
1419,19.409476,68.421454,-0.732433,0.147585,-2.000031,-0.624277
1420,-44.861524,-23.437858,30.884260,0.072511,-1.764553,-0.039429
1421,-69.825284,-86.549172,53.467613,-0.006714,-1.195697,0.559091
1422,-178.164340,-136.049439,9.582666,0.885267,-1.737453,-0.447517
1423,-197.817960,-97.779812,30.701152,-0.112551,-0.404669,0.944839
1424,-146.547646,-82.948043,24.048219,-0.469734,0.593515,1.622461
1425,-126.222629,-73.548486,21.301595,-0.762829,0.911757,1.404196
1426,-242.923629,-88.868544,61.524376,-0.422004,0.164187,0.096071
1427,-303.166247,-102.723735,85.145342,0.213870,-0.361578,0.748302
1428,-273.746853,-77.271687,75.440604,1.002090,-0.268193,1.999969
1429,-212.832837,-36.743725,52.491035,1.369406,-0.081666,1.999969
1430,-129.274434,-0.183108,14.282444,1.195331,-0.029541,1.999969
1431,-130.067903,26.428626,-4.089418,0.399542,0.085084,1.815824
1432,-127.748531,38.513771,0.305180,-0.608042,-0.036744,1.943877
1433,-115.236133,3.051804,17.517357,-1.125505,-0.536263,1.587793
1434,-59.082933,-41.260395,33.508812,-0.494636,-0.234134,0.805676
1435,-63.660639,-71.656367,29.602502,0.812879,0.295781,1.973785
1436,-57.129778,-41.504540,16.662852,0.728405,-0.016846,1.786648
1437,-31.067369,-13.000687,7.934691,-0.449470,-0.014160,1.173602
1438,-30.090791,-43.701839,9.399557,-0.384283,0.057008,0.872084
1439,-36.011292,-57.190814,4.455634,0.429450,0.136110,1.368307
1440,-35.950256,-29.785611,1.403830,0.195315,-0.002441,1.176287
1441,-26.306554,-24.353399,1.831083,-0.144167,0.051759,0.955215
1442,-32.227054,-33.875029,0.671397,-0.023682,0.143435,1.008438
1443,-37.170977,-29.114214,-4.394598,0.187747,-0.017945,1.083513
1444,-36.560616,-21.606775,-0.671397,-0.023072,-0.011719,1.141619
1445,-23.437858,-20.019837,-0.244144,0.112184,-0.005982,1.057389
1446,-22.949569,-12.024109,1.892119,0.126101,-0.013916,1.031144
1447,-24.536507,-7.446403,4.577707,0.027588,-0.021607,1.120500
1448,-14.770733,-5.188067,4.943923,0.069825,0.040406,1.093645
1449,-15.136950,-2.441444,4.028382,0.042237,-0.034058,1.016007
1450,-15.259022,-2.380407,4.211490,0.019165,0.002197,0.999893
1451,-12.695506,-2.746624,2.563516,0.012085,0.008057,0.967788
1452,-15.259022,-3.967346,2.136263,0.002930,0.024048,0.999283
1453,-12.939651,-4.516670,1.037613,0.064698,-0.032715,0.907240
1454,-13.122759,-5.676356,1.220722,0.039185,0.033204,1.044083
1455,-13.183795,-5.310140,2.197299,0.026368,0.005859,1.002457
1456,-11.963073,-3.784237,2.685588,0.046632,-0.011109,1.019669
1457,-11.657893,-2.136263,3.234913,0.033570,-0.016724,1.027726
1458,-10.254063,-1.709010,3.356985,0.026978,-0.004761,0.986831
1459,-11.535821,-2.075227,3.051804,0.031739,-0.015869,0.994034
1460,-11.169604,-2.197299,2.685588,0.029053,-0.031617,0.991348
1461,-10.803388,-3.356985,2.258335,0.009277,0.000610,0.954116
1462,-14.892805,-5.737392,1.892119,-0.005127,-0.002197,0.937881
1463,-18.554971,-8.545052,1.159686,0.019165,-0.004150,0.972427
1464,-21.423667,-10.009918,0.427253,0.008545,-0.029175,0.981460
1465,-21.362631,-10.559243,0.122072,0.040406,-0.037842,1.010147
1466,-21.240558,-9.094377,0.000000,0.045777,-0.048585,1.046647
1467,-18.310826,-7.385367,0.000000,0.048951,-0.050782,1.024918
1468,-16.540780,-6.408789,0.122072,0.053956,-0.049928,1.010025
1469,-17.151141,-5.920500,0.305180,0.032837,-0.033448,0.983413
1470,-19.104295,-6.652934,0.366217,0.035889,-0.040040,1.001968
1471,-20.691234,-7.019150,0.915541,0.043946,-0.064088,1.013809
1472,-18.493935,-6.652934,1.342794,0.049683,-0.069825,1.018814
1473,-15.259022,-6.713970,1.525902,0.055787,-0.054566,1.010025
1474,-15.259022,-5.798428,2.136263,0.081300,-0.032227,0.995987
1475,-20.569162,-3.418021,2.380407,0.064210,-0.044923,0.989151
1476,-22.461280,-2.441444,3.234913,0.064942,-0.058961,0.998550
1477,-21.423667,-1.586938,3.906310,0.032837,-0.058350,1.018326
1478,-24.109255,-0.427253,4.699779,0.061646,-0.063111,0.975601
1479,-27.222095,0.610361,5.249104,0.053468,-0.073121,1.055680
1480,-23.254749,2.685588,4.699779,0.051637,-0.061036,1.001968
1481,-27.466239,2.624552,4.699779,0.023316,-0.083009,1.003555
1482,-31.311513,1.037613,5.127031,0.040772,-0.109255,0.882094
1483,-23.987182,0.610361,4.577707,0.033082,-0.071046,0.961440
1484,-30.884260,0.122072,5.798428,0.088380,-0.037232,0.969741
1485,-43.396658,3.845274,7.568475,0.011109,-0.098878,0.996597
1486,-47.608148,2.990768,9.033341,0.060060,-0.120119,1.004532
1487,-43.823911,4.211490,8.484016,0.053346,-0.075563,1.038590
1488,-53.040360,5.310140,6.591897,0.036500,-0.135988,1.040665
1489,-45.716030,4.638743,4.882887,0.035889,-0.152712,1.036759
1490,-29.968719,5.615320,0.915541,0.014527,-0.124147,1.007706
1491,-30.518044,5.004959,-3.418021,-0.028565,-0.082399,1.045548
1492,-31.006332,2.197299,-12.695506,-0.008179,-0.172366,0.960464
1493,-27.588312,-3.173877,-18.982223,-0.022705,-0.104494,1.172625
1494,-44.312200,7.751583,-34.485389,0.071656,-0.000855,1.002090
1495,-47.913329,15.930419,-38.330663,0.153689,-0.322637,1.052628
1496,-20.630198,13.672084,-15.869383,0.151614,-0.281865,1.099992
1497,3.356985,8.178836,1.342794,0.049073,0.049195,0.906630
1498,-26.855879,8.117800,-7.507439,0.045533,0.201175,0.823987
1499,-81.422141,12.329290,-14.953841,0.028199,0.048219,1.053605
1500,-129.823758,14.953841,-11.413748,0.042847,0.281010,0.825696
1501,-168.398566,7.629511,-11.963073,-0.011109,0.241703,0.361456
1502,-186.892500,-12.268254,1.403830,0.015137,0.885145,1.268208
1503,-397.528038,-8.545052,-31.494621,0.338262,0.976577,1.232563
1504,-655.832761,-9.094377,-9.399557,-0.479744,0.477180,1.999969
1505,-766.063935,-64.332036,38.818952,-0.167239,-0.044923,1.657862
1506,-862.439918,-59.327077,68.177310,0.250248,0.117311,1.194720
1507,-1026.077668,-60.608835,117.067216,0.401251,-2.000031,1.999969
1508,-672.556649,-15.320058,150.392920,-1.640040,-0.858900,1.999969
1509,189.211872,-11.413748,-64.271000,-0.433722,0.102663,1.999969
1510,374.273289,11.841001,-44.556344,-0.685191,1.088029,1.999969
1511,132.387274,-0.427253,-48.523690,-0.339239,0.671641,0.950698
1512,-20.508125,-54.627298,54.749371,-0.406256,0.502937,-0.064332
1513,-78.187228,-76.417182,54.566262,0.045289,0.377447,0.201297
1514,44.068055,-35.339895,17.090105,-0.045045,0.294682,0.557748
1515,68.299382,-19.470512,-2.746624,0.084108,0.514046,0.492561
1516,17.456321,-18.005646,-3.418021,0.032715,0.481941,0.853529
1517,52.185855,-13.916228,-13.488975,-0.012329,0.418585,1.097673
1518,107.911803,-11.047532,-24.109255,-0.025757,0.542123,1.081804
1519,117.250324,-17.334249,-26.733806,-0.058106,0.533333,1.227070
1520,144.045167,-20.141909,-29.175250,-0.110719,0.424079,1.366842
1521,188.174258,-17.822538,-32.227054,-0.159426,0.365972,1.351705
1522,213.015946,-15.136950,-31.982910,-0.206180,0.252567,1.281880
1523,234.927901,-9.277485,-29.968719,-0.210330,0.105592,1.168475
1524,257.267109,-1.647974,-28.442817,-0.207279,0.024414,1.042496
1525,266.788739,4.455634,-25.940337,-0.173465,-0.036378,1.077653
1526,274.723430,9.826810,-23.865110,-0.113405,-0.085206,1.131121
1527,287.907225,13.733120,-24.109255,-0.053101,-0.112551,1.185687
1528,297.184710,15.075914,-26.489662,0.010132,-0.159426,1.062150
1529,299.076829,19.104295,-30.334936,0.031983,-0.210819,0.865980
1530,282.413977,30.823224,-38.147555,0.119265,-0.422370,0.558602
1531,257.755398,52.857252,-44.007019,0.115602,-0.479866,0.524544
1532,222.293431,62.623026,-47.425040,0.084840,-0.417487,0.804334
1533,200.137331,61.646448,-49.683375,0.044068,-0.276982,1.473899
1534,192.996109,64.637217,-49.927520,-0.069337,-0.258183,1.999969
1535,209.353780,74.708171,-45.227741,-0.116091,-0.413947,1.999969
1536,247.806516,86.305028,-39.734493,-0.099855,-0.568612,1.999969
1537,267.704280,91.981384,-36.255436,-0.024170,-0.649302,1.777005
1538,243.656062,90.760662,-27.893492,-0.028687,-0.656504,1.941070
1539,233.401999,80.079347,-21.850919,0.060060,-0.722789,1.999969
1540,257.206073,74.586099,-21.362631,0.135744,-0.747570,1.999969
1541,279.056992,74.647135,-25.085832,0.177127,-0.754772,1.999969
1542,281.498436,75.867857,-27.222095,0.247562,-0.744152,1.960235
1543,280.521859,78.126192,-30.823224,0.328374,-0.731090,1.776516
1544,275.089647,75.257496,-34.790570,0.362921,-0.695811,1.734279
1545,263.492790,67.017624,-37.659266,0.347173,-0.768322,1.780301
1546,262.027924,59.815366,-39.734493,0.337896,-0.883070,1.733913
1547,256.107424,58.106355,-40.711070,0.268681,-1.070695,1.497215
1548,238.712139,59.510185,-38.452735,0.184695,-1.323751,1.192523
1549,209.781033,61.341268,-32.959487,0.128908,-1.649683,0.890150
1550,169.558251,66.346227,-25.085832,0.233402,-2.000031,0.663706
1551,118.959335,74.036774,-20.080873,0.516732,-2.000031,0.506355
1552,69.275959,84.596017,-22.278172,0.692515,-2.000031,0.277470
1553,48.889906,80.445563,-23.193713,0.633921,-2.000031,-0.107424
1554,22.827497,40.527962,-5.859464,0.487678,-2.000031,-0.262333
1555,-35.156786,-28.809033,24.170291,0.321538,-2.000031,0.079591
1556,-67.566949,-83.802548,50.598917,0.127932,-1.587671,0.712413
1557,-166.201267,-152.956436,12.756542,0.654795,-1.329732,-0.245121
1558,-128.114748,-114.991989,33.875029,-0.036255,0.128908,1.577417
1559,-117.372396,-56.519417,34.180209,-0.500496,0.981216,1.680201
1560,-100.831617,-53.284504,26.367590,-0.806287,0.598520,0.336553
1561,-267.582208,-103.456168,66.712444,-0.404669,-0.018921,-0.343633
1562,-337.041276,-105.714504,99.732967,0.459602,-0.466316,1.523095
1563,-277.347982,-59.449149,83.192187,1.535302,-0.210819,1.999969
1564,-176.272221,-25.391012,37.232013,1.784329,0.013062,1.999969
1565,-149.477379,-4.577707,0.427253,1.252216,0.127199,1.931548
1566,-145.265888,22.705425,-17.395285,-0.132082,-0.028443,1.692409
1567,-135.744259,23.315785,0.671397,-1.642725,-0.234501,1.861112
1568,-124.330510,-47.608148,42.603189,-1.589136,-0.630137,1.192279
1569,-70.130465,-114.137484,52.674144,0.117311,0.038453,1.221454
1570,-84.657053,-117.067216,33.020523,1.961089,0.209110,1.999969
1571,-47.791257,-24.841688,2.502480,0.352544,-0.150027,1.114641
1572,-48.889906,-26.367590,3.723201,-0.966934,0.135988,1.127703
1573,-73.731594,-75.745785,15.442130,0.278813,-0.056153,1.243183
1574,-36.438544,-48.096437,0.061036,0.558358,0.052613,1.380514
1575,-50.110628,-22.156100,2.746624,0.003418,-0.088624,1.316304
1576,-21.362631,-24.536507,2.380407,0.010864,-0.009644,1.131121
1577,-17.273213,-19.470512,-1.159686,0.185183,0.064820,0.998184
1578,-29.846647,-8.972305,2.075227,0.081544,-0.012451,1.083757
1579,-21.667811,-4.272526,3.662165,0.049195,-0.021118,1.032975
1580,-19.897765,0.366217,6.042573,0.174197,0.108400,1.020157
1581,-28.564889,5.004959,6.591897,0.010864,-0.006958,1.019059
1582,-25.574121,3.173877,6.713970,0.003296,-0.009033,1.003433
1583,-24.231327,1.770047,5.127031,0.049561,0.004639,1.009049
1584,-27.344167,1.159686,4.272526,0.047242,-0.095338,0.985000
1585,-22.949569,0.610361,3.906310,0.022217,0.005493,1.020523
1586,-22.217136,0.610361,2.746624,0.028931,0.005615,0.966323
1587,-27.161059,0.915541,3.234913,0.030640,-0.009033,1.015396
1588,-26.428626,1.525902,3.234913,0.039429,-0.038697,1.028946
1589,-23.682002,2.990768,3.723201,0.040772,-0.041382,1.038834
1590,-20.202945,3.662165,4.028382,0.018189,-0.032837,0.999771
1591,-20.569162,1.342794,4.028382,0.012451,-0.031373,0.971695
1592,-20.691234,-0.732433,3.356985,0.028321,-0.093019,0.947036
1593,-21.423667,-3.173877,2.929732,0.007813,-0.044678,1.023819
1594,-19.592584,-4.821851,2.380407,0.020020,-0.036133,0.997330
1595,-18.005646,-5.065995,0.793469,0.013916,-0.060304,0.976089
1596,-20.202945,-6.103609,0.488289,0.021241,-0.044434,1.012589
1597,-17.517357,-6.408789,-0.244144,0.020386,-0.043214,0.992081
1598,-17.883574,-7.263294,-0.488289,0.019409,-0.043946,0.973892
1599,-20.569162,-8.056764,-0.732433,0.034302,-0.065675,1.011734
1600,-18.554971,-7.507439,-1.159686,0.050904,-0.069947,1.024186
1601,-18.188754,-6.897078,-0.976577,0.046143,-0.077882,1.037125
1602,-16.235599,-6.164645,-0.793469,0.048829,-0.087648,1.044327
1603,-12.085145,-5.310140,-0.610361,0.046998,-0.101442,1.003677
1604,-9.338521,-5.371176,-0.549325,0.035767,-0.075441,0.995621
1605,-9.643702,-5.859464,-0.793469,0.028199,-0.053223,0.982193
1606,-10.925460,-6.347753,-1.098650,0.047120,-0.067628,0.989151
1607,-12.939651,-6.042573,-1.220722,0.057374,-0.080201,1.013321
1608,-11.657893,-5.004959,-1.037613,0.055299,-0.077882,1.001358
1609,-13.733120,-4.394598,-0.488289,0.056519,-0.064332,0.984512
1610,-16.968032,-3.906310,0.000000,0.045167,-0.085328,0.982681
1611,-18.860151,-5.127031,0.488289,0.026246,-0.085817,1.000381
1612,-19.836728,-4.638743,0.366217,0.053590,-0.064210,0.980728
1613,-27.405203,-1.220722,-0.610361,0.137697,0.084718,0.959731
1614,-24.780652,-2.136263,0.671397,0.051637,-0.087770,1.072526
1615,-19.897765,-1.892119,0.427253,0.037476,-0.100343,0.961074
1616,-20.874342,-2.624552,-0.183108,0.034791,-0.093019,0.973159
1617,-25.146868,-2.563516,-2.075227,0.051392,-0.110964,0.964858
1618,-24.902724,-5.065995,-2.441444,0.044800,-0.108156,0.954482
1619,-24.902724,-4.882887,-3.479057,0.070680,-0.098512,1.011002
1620,-29.968719,-3.662165,-2.258335,0.068605,-0.119142,1.016373
1621,-27.893492,-0.610361,2.014191,0.103639,-0.129885,1.011490
1622,-35.706111,2.380407,5.554284,0.071778,-0.154665,1.012100
1623,-30.579080,3.967346,8.484016,0.074586,-0.120729,1.013199
1624,-33.813993,5.981537,9.521630,0.010498,-0.107668,0.972915
1625,-38.574807,3.601129,7.812619,0.041138,-0.123171,1.059098
1626,-31.799802,3.295949,4.577707,0.010742,-0.119875,1.007706
1627,-28.198672,1.831083,-0.488289,0.016236,-0.095094,0.985000
1628,-31.311513,1.403830,-5.859464,-0.006470,-0.094850,0.992935
1629,-38.269627,1.159686,-15.503166,-0.025513,-0.156741,1.024186
1630,-33.325704,-2.563516,-22.461280,0.003052,-0.188235,1.024430
1631,-31.616693,0.488289,-30.579080,0.018799,-0.224247,1.048478
1632,-38.452735,0.732433,-33.264668,0.147463,-0.277714,1.017594
1633,-18.066682,0.915541,-17.029068,0.188357,-0.322881,1.029557
1634,-7.751583,0.976577,4.150454,0.150027,-0.065431,1.057755
1635,-33.142596,11.657893,2.746624,0.076905,0.171633,0.981582
1636,-90.699626,22.522316,-14.770733,0.066407,0.186893,0.913832
1637,-132.265202,28.870069,-20.141909,0.064942,0.220706,0.874891
1638,-168.459602,10.681315,-23.865110,-0.198123,0.249760,0.335332
1639,-170.107576,-28.931106,-5.981537,-0.115846,0.822889,0.925917
1640,-285.587854,-45.166705,-57.129778,-0.312383,0.562875,1.606470
1641,-426.886397,-86.671244,-52.918288,-0.444587,-0.080446,0.855238
1642,-580.148013,-226.871138,28.870069,-0.491707,-0.041993,1.665797
1643,-712.718395,-333.989471,59.754330,-0.047120,0.061158,1.138811
1644,-800.549325,-299.320974,106.996262,0.511482,-0.508431,1.111833
1645,-1004.165713,-297.062638,197.756924,0.833753,-1.388937,1.999969
1646,-446.845197,-86.488136,153.810941,-0.469734,0.353643,1.999969
1647,253.910124,18.432898,-82.581827,0.096315,0.892592,1.999969
1648,323.430228,80.506600,-106.569009,0.100710,1.423239,1.362814
1649,151.308461,65.064469,-63.111315,-0.792493,0.533822,0.761364
1650,-22.949569,-12.085145,10.742351,-0.520150,0.185672,0.223636
1651,-33.691920,-16.052491,48.706798,-0.438239,0.038575,0.507210
1652,74.830243,12.390326,35.950256,-0.330205,0.007691,0.749401
1653,136.659800,32.715343,34.363317,-0.177249,0.312383,0.483772
1654,98.084993,34.851606,41.443503,-0.039551,0.387335,0.557137
1655,91.187915,36.804761,40.283818,0.078004,0.331670,0.767834
1656,136.171511,45.349813,28.747997,0.235843,0.428473,0.901259
1657,154.238193,47.669184,17.212177,0.320806,0.493904,0.955703
1658,161.196307,46.448463,6.897078,0.322881,0.398322,1.152239
1659,187.258717,44.068055,-6.591897,0.404913,0.254887,1.260761
1660,216.067750,49.134051,-23.437858,0.384649,0.105470,1.249165
1661,240.421149,56.824598,-38.391699,0.346319,-0.027710,1.135515
1662,245.243000,58.960861,-48.035401,0.281254,-0.201663,1.108659
1663,246.158541,59.327077,-53.711757,0.178225,-0.397101,1.120378
1664,250.247959,58.106355,-55.176623,0.054078,-0.562020,1.078019
1665,254.093233,54.383154,-51.636530,-0.027710,-0.637217,1.080339
1666,248.172732,50.232700,-44.495308,-0.026368,-0.681285,1.151995
1667,239.749752,51.087205,-36.499580,-0.045045,-0.744274,1.247456
1668,236.087587,53.650721,-27.527276,-0.108156,-0.813611,1.276631
1669,233.646143,55.909056,-16.113527,-0.156008,-0.833265,1.262226
1670,226.932174,56.763561,-2.014191,-0.150027,-0.820447,1.272480
1671,217.166400,56.458381,10.742351,-0.035035,-0.762219,1.384543
1672,211.184863,58.167391,19.043259,0.055421,-0.730602,1.465965
1673,211.490043,59.998474,23.193713,0.162234,-0.674205,1.525414
1674,209.292744,59.937438,23.437858,0.219852,-0.607187,1.518334
1675,206.301976,57.984283,21.484703,0.283940,-0.564340,1.526146
1676,204.959182,54.871443,16.540780,0.332525,-0.527718,1.526757
1677,204.592966,51.026169,9.521630,0.358404,-0.507332,1.497704
1678,203.067063,47.241932,1.220722,0.386236,-0.485359,1.472557
1679,199.771115,47.608148,-7.995727,0.379767,-0.478889,1.414084
1680,194.338903,48.218509,-17.151141,0.353887,-0.480720,1.361227
1681,187.441825,48.218509,-24.902724,0.305180,-0.488533,1.287617
1682,178.530556,45.166705,-31.372549,0.249760,-0.496834,1.278462
1683,169.497215,43.213550,-37.537194,0.206546,-0.512215,1.281880
1684,160.402838,45.166705,-43.457694,0.165896,-0.529305,1.320089
1685,150.942245,50.049592,-48.645762,0.131594,-0.566781,1.389059
1686,145.448997,55.909056,-53.406577,0.104860,-0.609140,1.415427
1687,142.580301,62.989242,-57.129778,0.111696,-0.666026,1.474144
1688,134.462501,71.229114,-56.519417,0.114870,-0.770764,1.612207
1689,139.711604,73.731594,-54.566262,0.134401,-0.958389,1.598413
1690,151.125353,75.440604,-52.857252,0.160037,-1.159564,1.421897
1691,149.050126,81.422141,-49.439231,0.205692,-1.457542,1.230854
1692,136.537728,94.972152,-40.527962,0.189822,-1.832670,0.934463
1693,119.325551,108.278019,-31.067369,0.178836,-2.000031,0.537606
1694,98.512245,111.512932,-23.376822,0.105104,-2.000031,0.054444
1695,67.750057,91.371023,-3.845274,0.032715,-2.000031,-0.461799
1696,-7.995727,27.405203,18.310826,-0.174685,-2.000031,-2.000031
1697,-176.577401,-140.199893,65.186542,0.691173,-1.630762,-1.676539
1698,-141.420615,-160.402838,33.630884,0.983291,-0.113161,0.797864
1699,-84.840162,-104.249638,-14.099336,-0.054200,1.390646,1.629786
1700,-149.782559,-106.263828,0.671397,-1.130144,1.084855,1.660426
1701,-319.035630,-143.617914,53.162432,-1.075456,-0.255497,0.537972
1702,-278.324559,-132.875563,81.910430,-0.395636,-0.845716,0.479255
1703,-227.908751,-111.268788,81.116960,0.723033,-0.116823,1.617334
1704,-266.544595,-94.178683,72.144656,1.787381,0.038941,1.999969
1705,-208.499275,-52.368963,25.024796,1.605982,-0.230350,1.999969
1706,-148.561837,-29.846647,7.507439,-0.243656,0.080568,1.999969
1707,-156.618601,-39.185168,29.602502,-0.896986,-0.730358,1.999969
1708,-41.748684,-65.918975,27.466239,0.226932,-0.246098,1.999969
1709,-5.737392,-38.452735,11.291676,0.950454,0.300908,1.789212
1710,-52.307927,-3.295949,13.611048,0.049195,0.056519,1.011734
1711,-51.636530,-6.713970,14.221408,-0.438727,-0.008667,1.001602
1712,-38.025483,-26.550698,11.169604,-0.024048,0.081910,1.016129
1713,-42.236973,-24.414435,4.699779,0.230961,0.112184,1.067033
1714,-54.444190,-18.677043,0.915541,-0.080690,-0.011231,0.953140
1715,-51.758602,-25.513085,-3.601129,-0.088869,-0.067628,1.254536
1716,-28.503853,-23.926146,-7.446403,0.225345,-0.025391,1.196185
1717,-27.832456,-10.986496,-7.507439,0.047242,-0.045899,1.101579
1718,-29.419394,-9.216449,-3.967346,0.044312,-0.096193,1.109636
1719,-15.503166,-4.577707,-0.976577,0.086671,-0.051514,1.086198
1720,-17.822538,-1.953155,2.563516,0.011719,-0.039185,1.046525
1721,-14.465553,-1.403830,3.540093,0.029297,-0.022217,1.022477
1722,-15.808347,-1.037613,2.990768,0.050294,-0.018555,1.006241
1723,-18.554971,-0.610361,3.418021,0.010376,-0.044923,1.041520
1724,-13.122759,-1.342794,2.929732,0.033082,-0.043580,1.026017
1725,-12.451362,-1.586938,2.685588,0.002197,-0.032105,0.987076
1726,-12.817578,-4.455634,1.770047,-0.031495,-0.033814,0.965713
1727,-14.709697,-7.812619,1.464866,-0.005737,-0.050660,1.010636
1728,-11.169604,-8.545052,1.342794,0.020264,-0.069947,1.029801
1729,-7.751583,-8.056764,1.098650,0.024170,-0.048341,1.022843
1730,-8.422980,-7.812619,0.793469,0.027588,-0.046021,1.021988
1731,-7.141222,-8.300908,0.671397,0.026978,-0.052735,1.009171
1732,-4.882887,-8.361944,-0.122072,0.013428,-0.023682,1.004776
1733,-8.422980,-9.155413,-0.122072,0.026490,-0.037964,1.014176
1734,-6.225681,-8.484016,-0.549325,0.027466,-0.031373,0.985245
1735,-9.887846,-8.484016,-0.549325,0.018799,-0.036500,1.007584
1736,-11.474784,-8.056764,-0.244144,0.024170,-0.056764,1.024063
1737,-9.277485,-6.713970,0.000000,0.041871,-0.054810,1.026749
1738,-9.887846,-5.310140,0.488289,0.042603,-0.061769,1.029923
1739,-7.812619,-3.601129,0.732433,0.054322,-0.063355,1.028946
1740,-6.775006,-2.014191,0.671397,0.034913,-0.056519,1.014420
1741,-7.629511,-1.464866,0.976577,0.039673,-0.059937,1.022477
1742,-5.371176,-1.159686,0.366217,0.024048,-0.055421,0.983658
1743,-6.530861,-2.319371,0.122072,0.010986,-0.042725,0.955337
1744,-9.704738,-4.394598,-0.671397,0.000488,-0.036378,0.929824
1745,-13.977264,-6.958114,-1.281758,0.011841,-0.057618,0.962905
1746,-14.953841,-8.484016,-1.525902,0.029297,-0.052003,0.990249
1747,-18.616007,-8.545052,-1.831083,0.036866,-0.074220,1.014908
1748,-16.296635,-7.690547,-1.647974,0.056397,-0.087770,1.046647
1749,-13.611048,-5.371176,-1.220722,0.056275,-0.098268,1.039322
1750,-11.535821,-3.662165,-0.854505,0.056519,-0.092042,1.033829
1751,-9.887846,-1.770047,-0.305180,0.064698,-0.093141,1.038590
1752,-9.765774,0.061036,0.000000,0.052369,-0.097414,1.042008
1753,-6.591897,0.976577,0.366217,0.044190,-0.070558,0.987320
1754,-9.582666,1.464866,0.549325,0.051270,-0.069947,1.001480
1755,-13.000687,2.258335,0.549325,0.047120,-0.098878,1.006851
1756,-9.643702,3.295949,1.098650,0.046387,-0.091310,0.990738
1757,-11.169604,3.723201,1.342794,0.043458,-0.075319,0.998672
1758,-13.733120,3.845274,1.342794,0.029541,-0.086427,0.998672
1759,-13.488975,3.418021,1.098650,0.030884,-0.100832,1.007950
1760,-11.291676,3.173877,0.915541,0.032959,-0.104250,1.011124
1761,-9.643702,2.746624,0.671397,0.032349,-0.103883,1.022965
1762,-9.887846,2.807660,0.549325,0.040162,-0.117067,1.022110
1763,-6.652934,2.929732,0.305180,0.038209,-0.124392,1.029923
1764,-3.906310,3.967346,0.732433,0.048829,-0.121584,1.019425
1765,-3.173877,4.516670,1.709010,0.013428,-0.123659,1.005142
1766,0.305180,3.662165,1.586938,0.017456,-0.083497,0.985611
1767,-3.723201,2.807660,0.793469,0.020630,-0.089845,1.002213
1768,-3.234913,2.807660,0.366217,0.027588,-0.099489,0.997818
1769,-2.990768,2.624552,0.305180,0.017212,-0.079957,0.978897
1770,-4.760815,1.709010,-0.366217,0.028077,-0.067384,0.956313
1771,-10.681315,0.732433,-1.159686,0.007202,-0.079103,0.979507
1772,-11.230640,-0.366217,-1.342794,0.034546,-0.118654,1.008194
1773,-10.986496,-0.305180,-1.525902,0.032471,-0.093874,1.012711
1774,-11.535821,-0.366217,-1.709010,0.034058,-0.108278,1.010636
1775,-10.131991,-0.366217,-2.380407,0.042481,-0.121706,1.012833
1776,-8.850233,0.366217,-1.709010,-0.002441,-0.113283,0.965957
1777,-12.207218,0.183108,0.671397,0.096559,-0.098512,1.013199
1778,-15.259022,2.807660,1.098650,0.008179,-0.128786,1.000748
1779,-12.207218,2.990768,2.197299,0.065675,-0.114382,1.002701
1780,-15.136950,4.760815,2.990768,0.044434,-0.111940,0.992447
1781,-16.540780,5.310140,4.089418,0.031495,-0.115480,1.000870
1782,-17.029068,5.859464,4.333562,0.038209,-0.121462,1.005753
1783,-16.296635,6.652934,4.821851,0.026368,-0.117800,1.019059
1784,-16.662852,6.897078,5.493248,0.022095,-0.133547,1.007218
1785,-16.968032,6.775006,5.065995,0.021363,-0.109255,1.016495
1786,-19.043259,6.897078,4.455634,0.026001,-0.124880,1.010391
1787,-18.432898,7.751583,3.723201,0.020996,-0.113771,0.983658
1788,-19.348440,7.873655,2.502480,0.001587,-0.106691,0.969986
1789,-21.057450,7.202258,1.342794,0.006226,-0.100343,0.960952
1790,-24.841688,6.042573,-0.854505,-0.011475,-0.070314,0.955337
1791,-28.320745,4.333562,-5.554284,-0.026001,-0.086549,0.941665
1792,-25.024796,3.601129,-8.728161,-0.053101,-0.027344,0.947402
1793,-32.471199,0.732433,-16.357671,-0.000610,-0.207156,0.919448
1794,-51.331350,-3.601129,-17.456321,-0.023926,-0.082765,1.011124
1795,-59.388113,-7.446403,-17.395285,-0.019532,-0.132448,0.952285
1796,-68.726635,-10.070954,-17.517357,0.041138,-0.126833,0.936660
1797,-83.436332,-10.925460,-15.075914,0.068238,0.008667,0.944228
1798,-107.301442,-5.981537,-12.634470,0.151247,-0.079347,0.944717
1799,-130.189975,1.464866,-0.671397,0.082765,-0.192996,0.976577
1800,-125.673304,5.493248,-6.286717,0.033326,-0.163333,1.055924
1801,-131.349660,1.098650,-10.681315,-0.061646,-0.093019,0.943496
1802,-177.004654,0.976577,-4.760815,0.208133,-0.106569,1.306905
1803,-177.431907,16.113527,-9.399557,0.159915,0.011475,1.250263
1804,-191.042954,29.846647,-16.845960,0.126101,0.149172,1.499779
1805,-148.256657,38.208591,-17.395285,0.098512,0.520882,1.480247
1806,-151.247425,43.579767,2.746624,-0.218387,0.188602,1.845243
1807,-122.499428,-26.184482,14.526589,-0.864149,0.074586,1.999969
1808,120.607309,-17.334249,-22.705425,-0.166751,0.350469,1.908965
1809,151.125353,-3.906310,-28.198672,-0.385016,0.364752,0.759655
1810,63.965820,-19.775692,3.356985,-0.226688,0.211673,0.811170
1811,93.995575,-12.634470,8.056764,-0.266728,0.039063,1.110246
1812,145.998322,-10.742351,6.591897,-0.249882,0.100710,1.162615
1813,145.510033,-14.953841,14.770733,-0.273442,0.032593,1.253193
1814,170.107576,-12.695506,18.554971,-0.251102,-0.081422,1.178973
1815,194.155795,-0.793469,20.325017,-0.239017,-0.106935,0.900649
1816,187.747005,11.963073,24.231327,-0.218509,-0.204715,0.705943
1817,181.582361,27.405203,28.015564,-0.238041,-0.317876,0.572641
1818,173.647669,36.194400,34.241245,-0.274418,-0.355718,0.510994
1819,159.426261,36.377508,43.945983,-0.274296,-0.398932,0.547127
1820,149.660487,33.630884,54.139010,-0.227909,-0.384283,0.715831
1821,142.641337,30.151827,62.073701,-0.117311,-0.352667,0.941054
1822,140.566110,29.175250,65.796902,0.002564,-0.357794,1.054826
1823,142.885481,30.518044,63.294423,0.131960,-0.333501,1.121233
1824,140.566110,31.677729,57.251850,0.206058,-0.286992,1.207294
1825,140.932326,31.128405,49.805447,0.221561,-0.273686,1.168597
1826,143.373770,28.503853,41.138323,0.219364,-0.229252,1.037491
1827,134.828717,19.592584,33.936065,0.187625,-0.197024,0.927016
1828,122.987716,9.826810,26.245518,0.149783,-0.170657,0.920546
1829,112.306401,7.507439,17.334249,0.088014,-0.193118,0.948013
1830,-105.043107,-11.047532,15.686275,0.645762,-1.855619,-2.000031
1831,-292.240787,-163.515679,56.763561,0.309087,-2.000031,1.165911
1832,-362.127108,-61.524376,58.350500,1.266621,-0.971328,1.999969
1833,170.473793,23.987182,-7.873655,-0.243900,-1.195331,1.999969
1834,572.945754,44.068055,-44.617380,0.105470,0.363165,-2.000031
1835,189.333944,41.138323,-134.584573,0.195071,1.680079,-0.631724
1836,-85.328450,2.624552,-19.104295,-0.393561,0.565682,0.629526
1837,-225.955596,-63.233387,116.945144,-0.043458,-0.345586,-0.056886
1838,-259.708553,-48.645762,75.562676,0.508431,-0.701915,1.448631
1839,-16.601816,1.953155,-6.225681,0.000000,-0.499519,1.902495
1840,59.510185,9.582666,-24.353399,0.029786,0.065431,0.722545
1841,-54.749371,-9.765774,5.676356,0.006470,0.059327,1.023209
1842,-32.654307,-1.342794,3.784237,0.129030,-0.136599,1.264057
1843,10.193027,8.911269,-1.220722,-0.024048,0.036133,1.017594
1844,-15.136950,2.014191,1.098650,-0.039429,0.024292,0.942397
1845,-7.263294,1.586938,-1.342794,0.014893,0.015259,1.008194
1846,-11.902037,0.915541,-1.525902,-0.026612,-0.018677,1.019425
1847,-10.498207,-0.793469,-0.427253,-0.007935,-0.061646,1.099626
1848,4.028382,1.098650,-0.671397,-0.001343,-0.006714,1.010758
1849,-0.854505,0.061036,0.122072,-0.036255,0.025391,0.944228
1850,-5.188067,-2.685588,0.183108,-0.036255,0.013672,0.954482
1851,-7.263294,-4.760815,-0.366217,-0.013672,0.021241,0.967666
1852,-10.376135,-5.981537,-0.488289,-0.008179,0.000244,0.985367
1853,-10.070954,-6.469825,-0.732433,-0.012573,-0.010132,1.021622
1854,-9.338521,-6.775006,-0.976577,0.013428,-0.027588,1.047745
1855,-5.004959,-5.676356,-1.037613,0.017945,-0.031373,1.048600
1856,-1.770047,-4.577707,-1.037613,0.015015,-0.011353,1.012955
1857,-2.563516,-3.723201,-0.915541,0.019043,-0.018799,1.017105
1858,-1.159686,-2.624552,-0.671397,0.026856,-0.029053,1.035782
1859,1.403830,-0.976577,-0.488289,0.023194,-0.015747,1.024918
1860,1.831083,0.244144,-0.183108,0.014405,-0.012818,0.997330
1861,1.525902,0.854505,-0.122072,0.015015,-0.015259,1.002945
1862,1.770047,1.342794,0.000000,0.007080,-0.008057,0.988663
1863,1.342794,1.159686,-0.122072,0.001343,-0.003662,0.987686
1864,0.915541,0.854505,-0.305180,-0.002930,-0.007935,0.985489
1865,-0.183108,-0.061036,-0.488289,-0.001953,-0.005249,1.001602
1866,0.488289,-0.244144,-0.671397,0.003296,-0.014160,1.007218
1867,0.610361,-0.366217,-0.549325,0.004761,-0.016602,1.001114
1868,1.342794,0.000000,-0.427253,0.008423,-0.016602,1.020890
1869,3.051804,0.671397,-0.183108,0.006714,-0.022705,1.018814
1870,4.211490,0.915541,0.061036,0.002686,-0.015869,0.999649
1871,4.577707,0.976577,0.000000,0.007324,-0.007080,0.991836
1872,4.089418,0.732433,0.061036,0.004273,-0.002197,0.991104
1873,3.662165,0.549325,0.000000,-0.006104,0.006836,0.955459
1874,0.366217,-0.244144,-0.183108,0.003662,0.007202,0.977066
1875,-1.770047,-0.610361,0.000000,0.005493,-0.005127,1.004532
1876,-0.671397,-0.366217,0.000000,0.004517,-0.010254,1.008438
1877,-1.098650,-0.244144,0.061036,0.013306,-0.016968,1.024308
1878,1.586938,0.854505,0.061036,0.020020,-0.023560,1.025895
1879,1.770047,1.892119,0.488289,0.022461,-0.029419,1.034928
1880,5.432212,2.685588,0.732433,0.001099,-0.026123,1.031632
1881,9.399557,2.746624,0.671397,0.008667,-0.020508,1.024308
1882,10.070954,2.990768,1.220722,-0.005493,-0.001587,0.984512
1883,10.620279,2.136263,0.793469,-0.033326,0.063966,0.914076
1884,-0.427253,-1.281758,0.244144,-0.022705,0.043702,0.928847
1885,-4.150454,-3.356985,-0.244144,-0.002197,-0.005737,1.022599
1886,-0.122072,-2.624552,-0.732433,0.020020,0.010620,1.011368
1887,-3.601129,-1.403830,-0.305180,0.023926,0.011475,0.999649
1888,-4.272526,0.244144,0.061036,0.006470,-0.019287,1.008804
1889,-3.173877,0.000000,0.549325,0.000855,-0.050172,1.053361
1890,5.371176,0.244144,0.549325,-0.003296,-0.026123,1.026017
1891,7.629511,0.732433,0.549325,0.013306,0.040650,0.985122
1892,0.732433,0.244144,1.403830,-0.015137,-0.011963,0.981216
1893,4.516670,-2.014191,0.854505,-0.036866,0.014405,0.928359
1894,0.732433,-5.371176,0.122072,-0.007324,0.061891,0.913344
1895,-7.873655,-6.897078,-0.793469,0.008545,0.012696,0.996109
1896,-6.836042,-6.042573,-0.915541,0.039551,-0.025391,1.056291
