-----Packet number,Gyroscope X (deg/s),Gyroscope Y (deg/s),Gyroscope Z (deg/s),Accelerometer X (g),Accelerometer Y (g),Accelerometer Z (g)0,-0.732433,-0.488289,0.000000,0.001953,-0.004150,1.000748
1,-0.610361,-0.366217,0.000000,0.000244,0.001587,0.997696
2,-0.549325,-0.244144,-0.122072,-0.001709,-0.005005,0.994156
3,-0.427253,-0.366217,0.000000,-0.006348,-0.000855,1.006363
4,-0.244144,-0.183108,-0.122072,-0.000488,-0.001953,1.000259
5,-0.305180,-0.366217,-0.244144,-0.003052,-0.003174,1.005142
6,-0.122072,-0.488289,0.000000,-0.001099,-0.002808,0.999893
7,-0.549325,-0.610361,-0.183108,-0.001831,-0.007324,0.998428
8,0.000000,-0.427253,-0.122072,-0.000610,0.002686,1.000748
9,-0.488289,-0.488289,0.000000,-0.001221,-0.000610,1.008560
10,0.122072,-0.183108,0.000000,-0.000366,0.001465,0.995377
11,-0.305180,-0.427253,0.000000,-0.003540,0.005371,0.992935
12,-1.037613,-0.610361,-0.122072,-0.001221,0.000488,0.995621
13,-0.671397,-0.488289,-0.183108,-0.006592,-0.002930,1.000870
14,-1.098650,-0.549325,-0.183108,-0.000244,0.002197,0.992081
15,-0.854505,-0.427253,0.000000,-0.005371,-0.004028,1.000748
16,-0.976577,-0.549325,-0.122072,-0.000732,-0.004639,0.998672
17,-0.366217,-0.366217,-0.183108,-0.003540,-0.002808,0.994156
18,-0.793469,-0.427253,0.000000,-0.002441,-0.001953,1.004532
19,-0.122072,-0.305180,0.000000,-0.001099,-0.000855,0.994766
20,-0.488289,-0.427253,0.000000,0.000000,-0.003296,0.999039
21,-0.488289,-0.488289,-0.183108,-0.006470,-0.000122,0.994522
22,-0.732433,-0.549325,0.000000,0.003418,-0.004150,1.000015
23,-0.305180,-0.549325,0.000000,0.001221,0.000855,1.006729
24,-0.854505,-0.427253,-0.122072,0.001709,0.002441,1.001846
25,-0.793469,-0.244144,0.000000,-0.004639,0.001709,1.002457
26,-0.732433,-0.061036,0.000000,-0.004028,0.000000,1.000015
27,-0.732433,0.061036,0.000000,-0.000122,-0.004639,1.000748
28,-0.427253,0.061036,0.000000,0.002686,-0.001709,1.001724
29,-0.244144,0.122072,0.122072,-0.006226,-0.005493,1.000137
30,-0.244144,0.000000,0.061036,0.005737,-0.002197,1.002945
31,0.061036,0.122072,0.000000,-0.008667,-0.000122,0.996597
32,-0.061036,0.000000,0.122072,-0.001221,0.000610,1.004288
33,0.122072,0.000000,0.061036,-0.002197,-0.001343,1.000870
34,0.000000,-0.122072,0.061036,-0.003174,0.000366,0.995010
35,-0.244144,-0.305180,0.000000,-0.006348,-0.005493,0.995743
36,-0.183108,-0.549325,0.000000,-0.006348,-0.001221,0.992203
37,-0.610361,-1.037613,0.000000,-0.001709,-0.003296,0.997574
38,-0.549325,-0.976577,0.000000,-0.001831,-0.001343,0.994156
39,-0.610361,-1.159686,-0.122072,-0.007080,0.000855,0.992813
40,-0.976577,-1.342794,0.000000,0.000244,0.000610,0.999527
41,-1.403830,-1.281758,-0.183108,-0.001709,-0.002319,0.995254
42,-1.342794,-1.281758,0.000000,0.002075,-0.001343,0.997452
43,-1.586938,-1.037613,0.000000,0.001709,-0.002075,1.003922
44,-1.159686,-0.854505,0.061036,-0.001343,-0.007080,1.013321
45,0.305180,-0.549325,0.000000,-0.004517,0.004150,1.005997
46,-1.281758,-0.732433,-0.122072,0.001709,-0.007935,0.990982
47,0.305180,-0.671397,0.000000,-0.003296,-0.003174,0.986954
48,-0.549325,-0.732433,0.000000,0.005615,0.001587,0.998062
49,-0.549325,-0.793469,0.000000,-0.004395,0.000488,1.012100
50,-0.061036,-0.732433,-0.122072,-0.003662,0.005615,0.995254
51,-0.976577,-1.159686,0.000000,-0.004761,-0.006226,0.998428
52,0.122072,-0.915541,-0.244144,0.013428,0.000610,0.989395
53,-1.403830,-0.671397,0.000000,-0.027710,-0.011353,1.006363
54,1.281758,-0.671397,0.000000,0.020386,0.011231,0.991104
55,-2.258335,-0.366217,0.000000,-0.028687,-0.009888,0.999161
56,0.915541,-0.488289,0.000000,0.012696,0.000732,1.002213
57,-1.037613,0.000000,0.061036,-0.003052,-0.004883,1.004410
58,0.183108,0.122072,0.000000,0.006958,-0.005615,1.008560
59,-0.061036,0.183108,0.000000,-0.005005,-0.001343,0.998917
60,0.000000,0.183108,0.000000,-0.001465,0.000244,1.003922
61,0.000000,0.305180,0.000000,-0.006958,-0.005127,0.993301
62,0.366217,0.244144,0.000000,-0.006348,0.004150,1.000015
63,-0.305180,-0.244144,-0.122072,-0.009277,-0.002686,0.989151
64,-0.366217,-0.366217,-0.183108,0.003662,-0.009277,1.005142
65,0.122072,-0.305180,0.000000,-0.006104,0.001587,1.000626
66,-0.122072,-0.305180,0.000000,-0.002075,-0.006104,1.000015
67,0.122072,-0.122072,0.061036,-0.006104,-0.003540,1.001236
68,0.061036,-0.366217,0.000000,-0.000855,-0.002197,1.003311
69,-0.122072,-0.488289,0.000000,-0.005371,0.001709,0.994766
70,-0.244144,-0.610361,0.000000,-0.003052,0.002686,0.990616
71,-1.220722,-0.854505,-0.183108,-0.003540,-0.006226,1.000626
72,-0.427253,-0.671397,0.000000,0.004639,-0.002686,1.013199
73,-0.244144,-0.427253,0.122072,0.000244,-0.001343,1.003067
74,-0.305180,-0.610361,0.122072,-0.002319,-0.005371,1.004776
75,-0.061036,-0.488289,0.061036,-0.003784,-0.007691,0.993423
76,0.000000,-0.610361,0.122072,-0.005005,-0.006470,0.999039
77,0.488289,-0.854505,0.122072,-0.004150,-0.003296,0.999161
78,0.671397,-0.915541,0.122072,0.000977,-0.010010,1.009537
79,1.586938,-0.854505,0.122072,0.000855,-0.010132,1.007706
80,2.624552,-0.610361,0.122072,0.003052,-0.009522,1.021866
81,4.455634,0.183108,0.000000,0.010498,-0.001221,1.052750
82,6.897078,0.976577,-0.122072,0.000488,-0.015259,0.973404
83,4.577707,0.000000,0.183108,-0.021729,0.011963,0.989517
84,5.249104,0.244144,-0.305180,-0.014527,-0.005615,0.984756
85,4.699779,-0.610361,-0.183108,-0.008179,0.007935,0.984024
86,4.150454,-1.037613,-0.244144,0.008911,0.007324,1.017716
87,5.310140,-0.793469,-0.488289,-0.003540,0.012940,0.972549
88,2.990768,-1.403830,-0.305180,0.009644,-0.008789,1.000259
89,3.845274,-0.976577,-0.305180,0.005005,0.006714,1.011978
90,4.272526,-0.854505,-0.305180,0.002564,0.015869,0.982071
91,2.441444,-0.854505,0.000000,0.004395,0.004517,1.009049
92,3.845274,-0.366217,-0.183108,0.002197,0.012085,1.014908
93,3.845274,-0.366217,-0.183108,0.004761,-0.021729,0.978531
94,4.333562,0.061036,0.000000,0.010132,-0.008545,0.980606
95,4.455634,0.305180,-0.122072,-0.001465,-0.010498,0.974014
96,4.333562,0.000000,0.000000,-0.003052,0.023072,0.978042
97,2.502480,0.000000,-0.122072,-0.000122,0.019287,0.984024
98,2.136263,-0.610361,0.000000,-0.010376,0.006836,0.992935
99,1.953155,-0.976577,0.183108,0.004761,0.016602,0.986709
100,1.159686,-0.671397,0.061036,-0.008179,0.013062,0.996475
101,1.647974,-0.915541,0.427253,-0.002686,0.013306,0.995621
102,2.075227,-0.732433,0.427253,0.005859,0.028687,0.998795
103,0.854505,-0.793469,0.671397,-0.001343,0.020264,0.992447
104,1.831083,-0.793469,0.366217,0.006226,0.016846,0.997452
105,0.976577,-0.793469,0.305180,-0.005737,0.014405,0.996231
106,1.281758,-0.732433,0.427253,-0.000244,0.013306,0.999649
107,1.525902,-0.671397,0.671397,-0.009400,0.009888,0.976211
108,1.586938,-1.403830,0.671397,-0.001953,0.017945,0.997452
109,1.647974,-1.770047,0.671397,-0.011353,0.023072,0.987564
110,1.281758,-2.502480,0.732433,-0.006958,0.024292,0.993179
111,2.136263,-2.624552,0.366217,0.009033,0.006714,0.973404
112,0.427253,-2.624552,0.671397,0.011109,0.013184,0.998795
113,1.464866,-2.197299,0.671397,-0.003418,0.021485,1.001236
114,1.586938,-2.624552,0.732433,-0.001099,-0.011109,0.974502
115,1.831083,-2.319371,1.098650,0.014160,0.009644,0.994888
116,2.990768,-1.403830,1.098650,-0.002564,-0.015991,0.967178
117,2.868696,-1.770047,1.647974,-0.020386,0.015869,1.007828
118,4.394598,-2.502480,2.014191,-0.026612,0.024048,0.987442
119,3.601129,-3.601129,1.770047,0.015015,0.033814,1.005631
120,4.516670,-3.356985,1.709010,0.002686,0.022950,0.981949
121,4.516670,-3.234913,1.770047,0.003052,0.021851,0.969131
122,2.868696,-3.723201,1.831083,0.011231,0.023194,0.977676
123,3.967346,-3.540093,1.342794,0.023316,0.041505,0.990005
124,1.586938,-2.990768,0.732433,0.030152,0.041138,0.991836
125,0.305180,-1.342794,0.732433,0.028809,0.015381,1.066545
126,4.760815,0.976577,0.915541,0.023926,0.021363,1.024552
127,3.723201,1.770047,1.342794,-0.000610,0.064088,1.024674
128,4.150454,1.647974,1.159686,0.010498,0.020874,1.010636
129,5.065995,1.831083,0.671397,0.012451,0.039551,0.992935
130,3.479057,1.831083,0.549325,-0.001099,0.030396,1.001358
131,4.089418,1.586938,0.122072,-0.009400,-0.016968,0.929213
132,2.990768,0.427253,0.488289,0.000366,0.039185,0.968643
133,1.953155,-0.366217,0.549325,-0.007080,0.061646,1.001114
134,1.647974,-1.342794,0.305180,0.009155,0.038331,1.008682
135,0.000000,-1.586938,0.061036,0.007813,0.023438,0.976822
136,1.281758,-1.709010,-0.183108,0.001465,0.063966,0.961318
137,-4.333562,-2.258335,-0.244144,0.017823,0.031250,1.001480
138,-2.075227,-1.586938,-0.427253,0.016602,0.030762,1.005997
139,-3.112840,-0.549325,-0.366217,0.031373,0.044923,1.000748
140,-3.967346,0.610361,-0.305180,0.017090,0.026368,1.002945
141,-3.601129,1.159686,-0.183108,0.022827,0.030762,0.998917
142,-4.455634,1.647974,0.000000,-0.000732,0.022217,0.996597
143,-3.356985,1.342794,0.000000,-0.006470,0.025391,0.986831
144,-3.784237,0.305180,-0.122072,-0.006836,0.023316,0.987198
145,-3.173877,-0.244144,-0.244144,-0.001953,0.020874,1.010636
146,-2.258335,-0.610361,-0.305180,0.007324,0.018555,1.005997
147,-1.525902,-0.671397,-0.427253,0.000732,0.014527,1.026505
148,0.061036,-0.671397,-0.427253,0.016846,0.024537,1.005142
149,0.183108,0.000000,-0.610361,-0.002686,0.023926,1.004044
150,0.061036,-0.244144,-0.244144,0.004273,0.027100,1.001480
151,0.488289,-0.244144,-0.366217,0.008423,0.025391,0.995499
152,0.488289,-0.183108,-0.122072,0.001709,0.028443,0.979995
153,0.000000,-0.854505,0.183108,-0.000732,0.039673,0.957412
154,-2.258335,-2.014191,0.061036,-0.003052,0.033570,0.965957
155,-3.906310,-3.051804,0.183108,-0.001221,0.034668,0.982681
156,-4.638743,-3.295949,0.061036,0.007446,0.029175,0.993423
157,-4.577707,-3.418021,0.061036,0.004883,0.027832,0.987198
158,-5.310140,-3.723201,0.000000,0.019409,0.019043,0.996353
159,-4.699779,-3.418021,0.000000,0.014282,0.023682,0.990127
160,-4.943923,-3.418021,0.000000,0.014893,0.017334,0.994278
161,-4.150454,-3.418021,-0.244144,0.012451,0.016724,1.000504
162,-4.760815,-3.662165,-0.183108,0.009644,0.011231,0.988296
163,-3.662165,-3.723201,-0.244144,0.011719,0.030274,0.968521
164,-6.530861,-3.967346,-0.183108,0.012085,0.035767,0.970352
165,-8.850233,-4.577707,0.305180,0.026368,0.023682,0.972305
166,-9.094377,-4.394598,0.000000,0.019043,0.040162,0.956558
167,-13.488975,-5.188067,0.244144,0.019898,0.020996,0.981704
168,-13.611048,-4.150454,0.671397,0.027832,0.008911,1.004166
169,-13.855192,-2.929732,1.098650,0.022339,0.010498,1.002090
170,-14.770733,-1.892119,1.831083,0.032959,-0.006836,1.016251
171,-12.268254,-1.464866,2.319371,-0.002808,0.005859,0.952285
172,-15.564202,-3.112840,2.014191,-0.004761,0.001953,0.863905
173,-24.780652,-6.775006,3.234913,-0.001465,0.007691,0.951431
174,-26.184482,-8.972305,3.723201,0.004028,0.003418,0.986221
175,-26.611734,-10.131991,3.479057,0.020752,-0.016358,0.984146
176,-27.100023,-9.704738,4.028382,0.035889,-0.029786,1.033829
177,-22.400244,-7.873655,3.112840,0.031373,-0.007935,1.021744
178,-25.940337,-7.690547,3.356985,0.018799,-0.014649,1.009049
179,-24.231327,-7.385367,2.868696,0.023072,-0.011109,0.991104
180,-26.489662,-7.385367,2.319371,0.030030,-0.008057,1.010025
181,-28.076600,-7.080186,1.342794,0.022950,-0.032227,1.008682
182,-26.367590,-8.117800,-0.793469,0.010498,0.005371,1.023209
183,-24.109255,-9.521630,-3.784237,0.078492,0.040528,0.981582
184,-34.546426,-8.178836,-6.713970,0.043458,0.071412,0.964370
185,-42.236973,-5.432212,-6.042573,0.002686,0.022339,0.955825
186,-52.429999,-6.958114,-3.540093,0.085695,-0.027222,1.027115
187,-49.256123,-3.540093,-5.371176,-0.013306,-0.049073,0.984512
188,-48.523690,-4.821851,-7.446403,0.018677,-0.034424,0.959121
189,-47.730220,-2.319371,-3.356985,0.100587,-0.050660,1.122820
190,-49.439231,0.854505,-9.155413,-0.037598,-0.088380,0.969375
191,-63.416495,-5.554284,-19.104295,0.021607,-0.143191,1.055436
192,-60.914015,-5.920500,-11.841001,0.086427,-0.140505,1.040909
193,-62.134737,2.075227,-8.667124,0.059327,-0.032471,0.930556
194,-63.843748,4.211490,-8.789197,0.120485,-0.238651,1.148455
195,-12.329290,21.057450,-5.249104,0.124758,-0.426154,0.590341
196,-47.547112,7.873655,-8.300908,0.110475,0.114626,1.077165
197,-82.520790,11.657893,-2.685588,0.028321,0.106813,0.839734
198,-116.884108,13.916228,1.037613,0.042603,0.149538,0.869276
199,-147.341115,12.817578,8.606088,0.095338,-0.001953,0.845106
200,-160.158694,12.329290,7.141222,-0.065797,0.275639,0.702159
201,-195.437552,2.868696,-13.733120,0.162478,0.160037,0.882704
202,-307.072557,-3.906310,-1.220722,-0.109865,0.200931,1.183612
203,-409.369039,-7.751583,-8.972305,-0.120241,-0.131350,1.336446
204,-457.709621,-37.354086,5.615320,-0.136477,0.051148,1.341573
205,-520.943008,-61.036088,-5.554284,0.172366,-0.094728,1.456443
206,-597.848478,-39.124132,9.948882,0.197635,-0.162844,0.981094
207,-666.514076,-30.457008,43.640803,0.369268,-1.928130,1.999969
208,-610.177768,4.333562,88.319219,-1.022721,-0.337163,1.999969
209,-22.522316,8.239872,-31.921874,-0.241093,-0.342657,1.999969
210,221.011673,37.781338,-50.232700,-0.522225,0.802747,1.983551
211,58.350500,26.977951,-30.151827,-0.337530,0.611948,1.230976
212,-75.440604,-23.987182,21.606775,-0.231815,0.261479,0.868055
213,7.080186,-14.099336,19.775692,-0.053468,0.257572,0.824720
214,75.196460,-1.098650,1.770047,0.000977,0.476326,0.488655
215,18.493935,-5.920500,4.211490,0.063355,0.437018,0.695079
216,29.480430,-0.793469,-0.366217,0.053223,0.289189,0.902480
217,75.440604,2.807660,-7.934691,0.038453,0.430060,0.850477
218,73.548486,-3.356985,-7.629511,-0.022461,0.453132,0.902602
219,87.037461,-6.164645,-8.667124,-0.047120,0.332403,0.973770
220,113.344015,-4.638743,-8.850233,-0.107668,0.358038,1.017350
221,123.781186,-4.516670,-6.530861,-0.126833,0.302983,1.116350
222,142.946517,-1.770047,-3.601129,-0.144533,0.247562,1.265034
223,167.849241,1.403830,-0.427253,-0.145754,0.220218,1.285908
224,187.685969,4.821851,3.356985,-0.118166,0.169924,1.276265
225,204.287785,8.178836,6.591897,-0.091432,0.096681,1.184100
226,217.898833,9.399557,9.277485,-0.036133,0.045167,1.078141
227,224.002441,7.385367,10.620279,0.003174,0.028809,1.059342
228,228.336004,4.821851,10.620279,0.074708,0.028931,1.131121
229,233.463035,3.723201,7.568475,0.135500,0.039918,1.275654
230,239.932860,5.065995,1.831083,0.187137,0.022461,1.414450
231,249.881743,10.376135,-6.225681,0.210452,-0.009888,1.503197
232,258.548867,15.991455,-14.953841,0.203250,-0.060060,1.554467
233,266.300450,19.531548,-22.583352,0.195926,-0.119509,1.532738
234,270.634012,19.714656,-29.846647,0.218631,-0.198245,1.466941
235,266.849775,20.263981,-37.170977,0.231693,-0.264775,1.442283
236,260.624094,23.315785,-45.654994,0.244144,-0.333135,1.466453
237,252.445258,30.701152,-54.200046,0.259525,-0.377203,1.476463
238,242.435340,36.133364,-62.378882,0.250248,-0.365850,1.510643
239,230.655375,35.217823,-69.825284,0.239139,-0.371710,1.651026
240,221.194781,31.799802,-74.891279,0.160037,-0.316777,1.999969
241,228.641184,30.151827,-79.652094,0.117922,-0.351812,1.999969
242,247.623407,35.156786,-82.825971,0.053712,-0.444221,1.999969
243,266.239414,39.978637,-82.948043,0.034913,-0.535409,1.999969
244,268.558785,43.518730,-82.948043,0.070069,-0.639170,1.808255
245,257.877470,49.683375,-82.948043,0.132448,-0.672984,1.675685
246,240.726329,59.510185,-84.107729,0.243778,-0.753796,1.678370
247,227.359426,69.764248,-87.159533,0.388556,-0.848524,1.659449
248,219.302663,80.384527,-91.859312,0.471443,-0.982071,1.537133
249,205.203326,84.229801,-94.483864,0.456184,-1.211078,1.332906
250,184.206912,80.567636,-92.835889,0.353277,-1.583398,1.182269
251,161.257343,77.759976,-85.511559,0.194095,-2.000031,1.046036
252,132.997635,83.802548,-69.459068,0.088258,-2.000031,0.905653
253,104.371710,101.380941,-45.716030,-0.127199,-2.000031,0.453010
254,93.263142,106.691081,-22.583352,-0.370489,-2.000031,-0.282109
255,52.552071,71.839475,21.728847,-0.465461,-2.000031,-0.833631
256,-29.114214,0.610361,74.341955,-0.367193,-1.994293,-0.392828
257,-70.679789,-55.054551,109.315633,-0.005493,-1.576318,-1.197528
258,-178.286412,-114.381628,100.587472,0.972671,-0.564218,0.359991
259,-126.039521,-66.041047,74.830243,0.462776,0.261967,1.999969
260,-73.548486,-44.129091,59.205005,-0.002564,0.827283,1.800076
261,-80.140383,-84.473945,56.580453,0.269535,0.889418,0.465095
262,-180.361639,-95.826658,52.857252,0.633188,0.412116,-0.291997
263,-246.829938,-75.196460,47.302968,0.741833,0.100343,0.534310
264,-256.229496,-51.270314,38.513771,0.715343,-0.045533,1.999969
265,-206.057832,-33.630884,21.362631,0.750011,-0.047364,1.999969
266,-137.148089,-5.188067,1.647974,0.465095,-0.138796,1.721462
267,-129.457542,3.051804,-3.051804,-0.123049,0.061036,1.517113
268,-148.378729,5.859464,7.812619,-0.623423,-0.134401,1.587427
269,-127.443351,7.080186,24.231327,-0.641611,-0.119265,1.592065
270,-107.057298,-1.831083,36.804761,-0.206424,-0.060426,1.382956
271,-91.798276,-37.048905,35.400931,0.296635,-0.073121,1.784817
272,-45.777066,-35.156786,22.827497,0.072267,0.059083,1.235859
273,-48.523690,-42.786297,22.644388,-0.147585,0.087648,0.965835
274,-55.848020,-65.186542,26.001373,0.030030,0.101320,1.500023
275,-37.048905,-67.566949,17.883574,0.295171,0.048219,1.363302
276,-26.977951,-49.988556,5.920500,0.274052,0.129885,1.323018
277,-34.241245,-39.795529,6.469825,0.024903,0.055787,1.110979
278,-26.184482,-38.208591,4.577707,0.009033,0.076173,1.225483
279,-21.789883,-35.217823,2.319371,0.183719,0.074464,1.167864
280,-18.127718,-25.635157,-0.549325,0.107424,0.063111,1.097185
281,-19.775692,-20.508125,0.183108,0.021851,0.036988,1.098405
282,-12.939651,-16.174563,0.549325,0.051270,0.047364,0.953262
283,-14.526589,-12.695506,2.563516,0.106935,0.074342,1.011368
284,-18.860151,-7.934691,4.150454,0.050904,0.032959,1.051652
285,-14.038300,-6.164645,4.150454,0.067628,0.062623,1.089616
286,-6.286717,-3.418021,3.540093,0.026612,0.077028,1.065934
287,-6.897078,-1.403830,2.197299,-0.010498,0.066407,1.012100
288,-5.737392,-1.831083,1.220722,0.035889,-0.001587,0.949111
289,-1.098650,-1.953155,0.427253,0.027588,-0.024537,0.854749
290,-6.103609,-3.540093,1.586938,0.013428,0.045899,0.923720
291,-9.948882,-5.554284,1.831083,-0.025269,0.070924,0.916884
292,-13.550011,-8.056764,2.502480,0.022461,0.097047,0.946181
293,-17.639429,-7.568475,2.807660,0.019043,0.052247,0.995621
294,-19.897765,-7.751583,3.418021,0.035279,0.059327,1.040543
295,-13.916228,-7.019150,3.112840,0.016236,0.043091,1.075212
296,-11.596857,-6.286717,1.770047,0.021851,0.008301,0.919936
297,-14.282444,-7.568475,1.342794,0.024537,0.035889,1.008316
298,-12.512398,-7.995727,0.122072,0.030274,0.011475,0.982803
299,-12.573434,-8.484016,0.671397,0.019165,0.027100,1.014664
300,-11.047532,-8.545052,0.549325,0.004883,0.006348,1.046891
301,-7.995727,-8.300908,0.427253,0.023072,0.051392,1.015152
302,-8.606088,-8.911269,-0.183108,0.008667,0.051026,0.959731
303,-13.550011,-10.986496,-0.183108,-0.001099,0.093629,0.983413
304,-15.381094,-13.061723,0.122072,0.026978,0.055543,0.971939
305,-19.287404,-13.916228,-0.549325,0.033448,0.027588,1.019425
306,-17.578393,-14.831769,-4.821851,0.148928,-0.171023,0.806897
307,-18.493935,-13.550011,-0.366217,0.074586,-0.076173,0.992569
308,-15.930419,-8.361944,-1.037613,-0.002197,0.034546,1.029557
309,-14.648661,-9.826810,-0.610361,0.115846,0.024292,0.956558
310,-23.987182,-7.690547,-0.488289,0.045533,0.041382,1.048844
311,-22.522316,-6.286717,1.037613,0.034058,0.003662,0.990616
312,-21.972992,-6.347753,0.976577,0.074220,0.039429,0.941299
313,-31.128405,-5.493248,1.342794,0.046021,-0.001465,0.966934
314,-29.358358,-6.164645,1.709010,0.055421,-0.011841,0.999771
315,-29.724575,-6.225681,2.014191,0.045655,-0.004395,0.969375
316,-32.898451,-6.775006,2.319371,0.070069,-0.000855,0.979019
317,-33.875029,-6.530861,2.380407,0.045167,-0.013672,0.984390
318,-34.058137,-6.958114,2.990768,0.069947,-0.011353,0.983658
319,-36.621653,-8.239872,2.441444,-0.003662,-0.051881,1.050187
320,-38.574807,-4.150454,1.709010,0.046021,-0.052125,0.961807
321,-37.537194,-3.723201,2.014191,0.048219,-0.010132,1.007950
322,-44.495308,-2.014191,2.563516,0.084230,-0.041382,1.046647
323,-44.312200,-0.427253,3.112840,0.089357,-0.090944,1.061662
324,-39.185168,2.075227,4.394598,0.064820,-0.093751,1.081682
325,-33.020523,7.202258,4.028382,0.138674,-0.035157,0.945815
326,-61.280232,10.559243,5.432212,-0.015503,0.005005,1.078630
327,-61.036088,8.850233,3.356985,0.050782,-0.093874,1.016617
328,-50.171664,9.887846,-1.525902,-0.006958,-0.020508,0.957290
329,-58.838788,5.615320,-3.845274,-0.014649,-0.115358,1.098772
330,-53.772793,4.028382,-8.850233,-0.070558,-0.162844,1.051408
331,-43.213550,5.859464,-21.362631,-0.015503,-0.045289,1.022843
332,-51.819638,3.051804,-31.311513,0.076661,-0.211551,1.088762
333,-36.072328,1.709010,-15.259022,0.191043,-0.208011,1.049577
334,-25.207904,3.173877,-6.042573,0.129641,-0.291752,1.072648
335,-29.602502,7.446403,5.493248,0.066041,0.033082,1.030411
336,-64.454108,16.052491,-4.760815,0.118654,0.264408,0.986709
337,-119.020371,27.649348,-16.479744,0.112184,0.241703,0.910170
338,-176.211185,34.851606,-12.207218,-0.068116,0.279545,0.727062
339,-187.014572,-5.432212,4.089418,-0.367071,0.166873,0.592416
340,-216.678111,-30.090791,2.075227,0.023438,0.914076,1.034073
341,-337.590600,-64.148928,-29.907683,-0.339849,0.304692,1.799344
342,-499.519341,-152.162966,-13.183795,-0.652110,0.050660,1.190814
343,-660.227359,-224.734875,28.992142,0.125734,0.053590,1.022599
344,-771.190967,-233.279927,45.838102,0.315679,0.168093,1.127214
345,-854.810407,-212.771801,62.073701,0.943862,-1.897734,1.999969
346,-987.502861,-152.346075,204.654002,-0.472908,-0.520882,1.999969
347,-66.529335,1.525902,-20.263981,-0.172610,-1.106096,1.999969
348,400.335699,68.299382,-68.604562,-0.242069,0.530037,1.999969
349,285.282673,64.942397,-67.811093,-0.334966,0.958511,1.116716
350,80.384527,-8.911269,4.333562,-0.689464,0.561288,0.208988
351,-49.378195,-62.317845,39.246204,-0.365972,0.384894,0.435920
352,37.964446,-32.654307,32.227054,-0.226566,0.103151,0.594369
353,131.837949,9.521630,15.747311,-0.025147,0.363531,0.237430
354,73.792630,22.522316,10.864424,0.092164,0.437507,0.394537
355,51.148241,31.189441,6.469825,0.031128,0.296025,0.708019
356,97.901884,35.706111,-3.540093,0.044923,0.377325,0.803235
357,109.681849,26.428626,-7.751583,0.028199,0.459968,0.880385
358,113.160906,13.183795,-9.521630,0.021241,0.417487,1.150164
359,146.303502,13.000687,-14.404517,0.024170,0.407111,1.357443
360,174.685283,20.630198,-19.409476,0.021485,0.399542,1.482200
361,196.292058,29.907683,-22.705425,-0.000732,0.310796,1.514916
362,225.711452,40.161746,-25.635157,-0.050294,0.176028,1.423117
363,250.614176,48.767834,-25.024796,-0.088869,0.070192,1.305562
364,261.600671,51.331350,-19.836728,-0.123903,-0.042847,1.175921
365,272.831312,50.476844,-13.244831,-0.108156,-0.140627,1.080217
366,280.155642,45.166705,-6.897078,-0.039429,-0.117678,1.147723
367,281.132219,42.236973,-4.699779,0.036744,-0.099367,1.383078
368,285.221637,49.500267,-7.019150,0.110964,-0.198245,1.391867
369,293.583581,57.007706,-13.061723,0.148684,-0.356085,1.162005
370,281.193256,62.561990,-20.752270,0.282719,-0.464118,0.935317
371,261.234455,70.130465,-26.672770,0.358160,-0.430182,1.080217
372,241.763943,64.637217,-36.194400,0.359503,-0.380255,1.224506
373,233.340963,58.167391,-48.767834,0.343633,-0.336187,1.494530
374,219.485771,65.308614,-57.801175,0.210575,-0.336675,1.871733
375,207.644770,78.675517,-60.364691,0.071412,-0.466926,1.999969
376,218.081941,89.784085,-56.580453,-0.030152,-0.638682,1.999969
377,238.162814,90.516518,-47.913329,-0.101930,-0.714366,1.999969
378,250.125887,82.642863,-34.241245,-0.093996,-0.761120,1.999969
379,264.469368,77.698940,-21.301595,0.004273,-0.825208,1.999969
380,282.719158,80.445563,-12.268254,0.104128,-0.883803,1.999969
381,284.428168,84.107729,-5.371176,0.147341,-0.915175,1.761868
382,269.596399,81.483177,-0.366217,0.135256,-0.979751,1.575097
383,255.313954,77.332723,1.342794,0.130739,-1.054215,1.517967
384,237.796597,78.797589,1.037613,0.069581,-1.208026,1.507958
385,216.189822,85.145342,2.807660,0.045533,-1.496605,1.464866
386,192.874037,92.652781,7.507439,0.306767,-1.939361,1.353414
387,161.135271,102.906844,7.141222,0.747814,-2.000031,1.084245
388,141.481651,136.354620,-2.624552,0.871229,-2.000031,0.510628
389,128.358892,167.360952,-28.870069,0.847303,-2.000031,-0.478401
390,72.144656,134.035248,-12.756542,0.508186,-2.000031,-1.088029
391,-16.601816,34.302281,15.320058,0.260502,-1.951812,-0.757580
392,-57.618067,-66.651408,37.048905,0.182864,-1.498070,0.181888
393,-73.731594,-113.221942,47.547112,-0.121828,-1.291890,0.217777
394,-191.042954,-168.886854,42.481117,0.279667,-1.614282,-0.465705
395,-207.339590,-160.036622,55.298695,-0.119997,-0.652842,0.878065
396,-154.726482,-82.520790,58.106355,-0.230472,0.649546,1.999969
397,-190.127413,-67.566949,69.092851,-0.024170,0.941421,1.734890
398,-276.371405,-102.906844,74.036774,0.549203,0.016480,1.008072
399,-247.135119,-68.116274,59.143969,0.689342,-0.338872,0.585458
400,-253.604944,-44.373236,54.810407,1.071061,-0.039918,1.271138
401,-270.450904,-34.668498,33.508812,1.332662,-0.114748,1.999969
402,-201.907378,1.586938,1.342794,0.414191,-0.439582,1.999969
403,-123.231861,12.451362,-9.643702,-0.510994,-0.289311,1.883818
404,-128.786145,-18.860151,18.249790,-1.282246,-0.203372,1.999969
405,-87.830930,-74.036774,40.588998,-0.314702,-0.262943,1.483299
406,-32.837415,-85.999847,22.705425,1.313130,0.104860,1.999969
407,-46.692607,-39.551385,5.676356,0.688609,0.025025,1.347677
408,-59.937438,-24.902724,0.732433,-0.601938,-0.106569,1.369284
409,-40.405890,-59.266041,13.061723,-0.014405,0.003052,1.132341
410,-23.193713,-49.134051,2.746624,0.454597,0.104616,1.182513
411,-51.331350,-27.466239,1.525902,0.056764,-0.087404,1.296895
412,-23.132677,-26.977951,1.220722,-0.084108,-0.024170,1.176776
413,-5.432212,-28.747997,-1.831083,0.110597,0.119265,0.954360
414,-29.358358,-25.574121,1.464866,0.033936,0.014160,1.016373
415,-25.268940,-21.911955,0.915541,0.064698,0.006592,1.113909
416,-17.151141,-17.151141,2.197299,0.185428,0.073732,1.013443
417,-22.278172,-10.131991,3.784237,0.113405,-0.026734,1.032242
418,-19.836728,-5.676356,4.089418,0.084108,-0.046143,0.978408
419,-17.273213,-4.333562,3.906310,0.078614,-0.032837,0.958389
420,-19.714656,-3.479057,4.943923,0.057862,-0.004761,1.069718
421,-16.113527,-2.502480,4.577707,0.040040,0.057374,1.114275
422,-10.315099,-2.319371,3.356985,0.027832,-0.027100,1.031754
423,-10.376135,-3.601129,2.319371,0.030152,-0.038453,1.040909
424,-9.521630,-4.333562,1.586938,0.046632,0.077028,1.041154
425,-10.803388,-4.943923,2.014191,0.039673,-0.009400,0.995377
426,-12.390326,-4.394598,1.770047,0.031983,0.006348,1.014298
427,-11.047532,-3.234913,1.403830,0.050050,0.003662,1.001602
428,-9.765774,-1.831083,0.915541,0.087404,-0.068482,0.946670
429,-9.582666,-1.159686,1.525902,0.058961,0.036500,1.038712
430,-11.535821,-1.403830,2.319371,0.041505,0.004150,0.992813
431,-9.155413,-1.220722,0.854505,0.036378,-0.040040,0.996597
432,-13.855192,-2.685588,1.159686,0.048341,-0.040772,0.966812
433,-13.488975,-3.479057,0.061036,0.052369,-0.044190,0.998672
434,-17.273213,-4.089418,0.854505,0.054322,-0.036866,0.942885
435,-18.432898,-4.638743,0.244144,0.060060,-0.082033,0.917128
436,-23.682002,-6.286717,1.342794,0.062013,-0.043091,0.993668
437,-19.409476,-5.981537,0.488289,0.052491,-0.044068,1.009415
438,-19.470512,-6.347753,0.427253,0.063844,-0.063111,1.016739
439,-16.296635,-5.615320,0.244144,0.064820,-0.067628,1.016373
440,-14.526589,-5.310140,0.366217,0.072023,-0.056641,1.014298
441,-13.733120,-4.882887,0.671397,0.057740,-0.062013,1.017716
442,-11.108568,-5.004959,0.976577,0.064942,-0.065187,0.997696
443,-9.765774,-5.981537,2.319371,0.099611,-0.021851,1.019547
444,-12.085145,-4.089418,2.746624,0.084474,-0.055177,1.001724
445,-13.550011,-1.403830,2.502480,0.075563,-0.073365,0.975357
446,-13.244831,-0.915541,2.502480,0.068238,-0.057740,1.013321
447,-16.479744,0.122072,2.685588,0.067506,-0.041260,0.984878
448,-16.845960,0.427253,2.380407,0.044678,-0.035645,0.971572
449,-20.569162,0.305180,2.014191,0.068360,-0.038697,0.966567
450,-25.574121,1.098650,1.892119,0.066896,-0.056764,0.969863
451,-26.306554,1.525902,1.342794,0.059815,-0.063355,1.000137
452,-32.166018,0.793469,1.464866,0.051759,-0.084474,1.015396
453,-30.334936,4.089418,1.709010,0.131960,0.070802,1.076921
454,-28.625925,-0.671397,0.793469,0.062013,-0.026856,1.129656
455,-32.288090,1.098650,1.586938,0.085573,-0.092653,0.912490
456,-34.302281,6.164645,4.577707,0.105715,-0.074586,0.984878
457,-48.340581,6.530861,7.934691,0.058595,-0.087892,1.007340
458,-44.312200,8.117800,6.713970,0.043214,-0.069581,1.003677
459,-48.157473,7.446403,4.577707,0.058106,-0.139651,1.039200
460,-40.833143,7.080186,0.915541,0.002564,-0.138796,1.008560
461,-33.264668,6.103609,-4.028382,0.005859,-0.073243,0.969375
462,-35.767147,3.540093,-10.193027,0.039185,-0.165774,0.861341
463,-35.217823,4.333562,-12.329290,-0.109987,-0.121584,1.162127
464,-48.584726,4.943923,-25.635157,0.110842,-0.219730,1.008682
465,-35.034714,2.136263,-14.709697,0.229374,-0.285649,1.012589
466,-9.155413,3.601129,-2.075227,0.201175,-0.274296,1.171893
467,1.770047,11.169604,1.525902,0.119997,-0.111696,1.081071
468,-17.334249,18.493935,-3.662165,0.103517,0.155886,0.952041
469,-62.012665,28.259709,-15.197986,0.107546,0.205570,0.931411
470,-110.048066,34.302281,-14.099336,-0.037110,0.405646,0.932998
471,-179.568170,37.293050,-12.329290,-0.082277,0.503792,0.749279
472,-222.537575,3.723201,7.263294,-0.147829,0.794568,0.909560
473,-357.427329,-4.760815,-1.892119,0.087037,0.975235,1.953033
474,-584.115358,-13.427939,19.470512,-0.291875,0.369879,1.749538
475,-743.846799,-57.068742,62.867170,-0.311284,-0.105715,1.236225
476,-804.760815,-48.096437,90.394446,0.132448,-0.136477,0.942519
477,-854.566262,-63.416495,74.647135,0.062745,-0.687388,1.056168
478,-1096.940566,-118.348974,167.971313,-1.218036,-0.774792,1.999969
479,-374.151217,-65.003433,58.655680,-1.173602,-1.471946,1.999969
480,190.920882,-9.399557,-24.597543,-0.418097,0.590219,1.999969
481,184.206912,4.272526,-2.990768,-0.515633,1.172869,1.999969
482,22.888533,-12.024109,22.522316,-0.375982,0.732677,1.999969
483,9.765774,-44.312200,45.349813,-0.180911,0.346929,1.150042
484,127.748531,-31.372549,29.968719,-0.008179,0.325078,0.555062
485,145.571069,-33.508812,19.836728,0.037354,0.509773,0.196048
486,90.821698,-38.391699,13.427939,0.121706,0.388067,0.350713
487,100.404364,-28.564889,0.366217,0.106935,0.289921,0.519905
488,129.884794,-19.592584,-15.259022,0.120485,0.396246,0.498177
489,124.391547,-22.400244,-26.001373,0.091066,0.424323,0.663218
490,132.692454,-26.794842,-35.461967,0.035645,0.362188,0.914199
491,161.440452,-29.297322,-44.922560,-0.024292,0.380133,1.096941
492,180.910964,-31.494621,-51.270314,-0.079469,0.369390,1.299702
493,202.029450,-31.311513,-55.237659,-0.147829,0.274784,1.460960
494,233.035782,-26.306554,-58.838788,-0.169070,0.170901,1.554101
495,265.506981,-17.334249,-60.852979,-0.173709,0.074952,1.577783
496,289.494163,-10.559243,-60.425727,-0.177005,-0.026368,1.522240
497,312.321660,-4.699779,-59.876402,-0.160037,-0.132204,1.415305
498,329.106584,2.136263,-59.693294,-0.117067,-0.199954,1.312398
499,334.294652,10.376135,-60.181582,-0.049439,-0.267826,1.189715
500,335.393301,17.517357,-62.500954,0.030030,-0.274418,1.069108
501,329.716945,24.719615,-70.557717,0.075441,-0.406622,0.801648
502,307.255665,38.696880,-78.370336,0.068482,-0.509041,0.617807
503,276.615549,57.740139,-81.422141,0.052125,-0.478157,0.768811
504,242.313268,65.857939,-82.337682,0.099001,-0.416022,1.222553
505,231.204700,72.022583,-86.854353,0.143679,-0.319585,1.785916
506,231.509880,84.901198,-90.699626,0.029175,-0.331792,1.999969
507,236.087587,107.301442,-86.121920,-0.117189,-0.545418,1.999969
508,257.022965,124.513619,-71.839475,-0.230716,-0.696300,1.999969
509,273.136492,122.804608,-50.843061,-0.224491,-0.770520,1.999969
510,281.132219,105.836576,-28.747997,-0.108522,-0.840467,1.999969
511,305.851835,91.004807,-16.540780,0.154421,-0.930312,1.999969
512,315.861753,98.573281,-17.639429,0.584970,-1.040299,1.464012
513,282.536049,124.147402,-28.686961,0.933242,-0.972427,1.327291
514,226.077668,120.607309,-36.316472,0.680552,-0.996597,1.834623
515,230.960555,91.065843,-42.298009,0.623301,-1.141375,1.999969
516,250.431067,73.792630,-48.096437,0.499763,-1.272236,1.705959
517,228.580148,68.238346,-47.669184,0.340215,-1.505516,1.423606
518,197.756924,65.430686,-43.823911,0.193851,-1.959380,1.137713
519,176.211185,73.853666,-37.293050,0.285649,-2.000031,0.877455
520,135.927367,87.464714,-32.166018,0.474250,-2.000031,0.717052
521,101.686122,108.644236,-31.250477,0.521004,-2.000031,0.263920
522,86.121920,115.785458,-27.222095,0.320073,-2.000031,-0.451911
523,31.616693,69.703212,0.793469,0.153323,-2.000031,-0.755749
524,-45.105669,-6.286717,34.363317,-0.372076,-2.000031,-1.685451
525,-181.765469,-151.613642,86.915389,0.218143,-1.776028,-1.155901
526,-240.604257,-224.979019,86.488136,0.824231,-0.797864,1.904570
527,-114.686809,-79.163806,62.317845,0.149416,0.581430,1.999969
528,-101.991302,-44.983597,70.008392,-0.130495,0.991470,0.734142
529,-228.397040,-129.335470,79.957275,0.597177,0.695201,-0.156252
530,-302.861067,-103.273060,72.083619,1.030655,-0.172610,0.477302
531,-338.689250,-59.632258,65.247578,1.125261,-0.062745,1.999969
532,-289.433127,-46.326390,42.542153,1.466697,-0.364508,1.999969
533,-150.820172,10.131991,-2.319371,0.550790,-0.296757,1.916045
534,-142.397192,16.357671,-7.568475,-0.661997,-0.022583,1.386130
535,-194.033722,-4.455634,34.424353,-1.760891,-0.207767,1.999969
536,-147.096971,-83.985657,56.397345,-0.946426,-0.705333,1.523949
537,-54.688334,-127.626459,51.758602,0.800793,0.180667,1.999969
538,-62.989242,-88.258183,19.897765,1.984527,0.174075,1.999969
539,-22.827497,-2.868696,-9.704738,-0.076295,-0.003662,1.216571
540,-35.950256,-29.602502,-9.460594,-0.748425,-0.167483,1.270527
541,-33.264668,-57.923247,6.713970,0.575814,-0.000855,1.304219
542,-19.165332,-20.263981,-5.615320,0.353277,0.037354,1.217670
543,-42.236973,-12.573434,1.586938,-0.259892,-0.096559,1.189960
544,-8.056764,-22.217136,-2.807660,0.111818,0.015015,1.089738
545,-11.596857,-14.892805,-3.051804,0.140383,0.039185,1.056413
546,-22.278172,-10.742351,2.441444,0.015259,-0.074708,1.135515
547,0.000000,-6.775006,1.342794,0.100343,-0.003418,1.056046
548,-8.056764,-2.624552,3.601129,0.090700,0.049317,1.018570
549,-11.535821,-1.159686,5.249104,0.018677,-0.022339,1.041276
550,-4.943923,-0.366217,3.601129,0.047852,0.002197,0.935317
551,-13.550011,0.305180,4.211490,0.046265,-0.008667,0.960464
552,-11.963073,0.793469,3.234913,0.011719,-0.029908,0.945571
553,-10.742351,-0.366217,2.197299,0.012696,0.040406,0.951186
554,-16.906996,-1.709010,2.258335,0.018311,0.000366,1.008438
555,-13.183795,-1.709010,2.075227,0.027466,-0.013672,1.015396
556,-10.620279,-1.220722,1.892119,0.019898,0.018189,0.968032
557,-15.320058,-1.831083,2.075227,0.000855,-0.007691,0.971817
558,-13.916228,-3.234913,2.502480,0.016968,0.006592,1.046159
559,-13.183795,-3.906310,2.685588,0.024170,0.004639,1.002701
560,-14.282444,-4.943923,2.258335,0.024903,0.005127,1.004776
561,-13.977264,-4.760815,1.403830,0.006714,0.000977,0.990494
562,-12.878614,-5.493248,0.488289,0.030640,-0.043336,0.934463
563,-16.601816,-6.286717,0.793469,0.026246,-0.008545,0.995010
564,-17.090105,-5.981537,0.549325,0.014160,-0.000122,1.028336
565,-15.503166,-5.432212,1.220722,0.054444,0.005737,0.972549
566,-18.066682,-4.760815,1.220722,0.026490,-0.017700,0.982803
567,-18.554971,-5.554284,1.098650,0.020508,-0.029541,1.004898
568,-17.700465,-5.859464,0.732433,0.035401,-0.041871,1.023453
569,-15.564202,-5.981537,0.671397,0.032227,-0.045411,1.014298
570,-15.259022,-6.225681,0.671397,0.043946,-0.066041,1.041764
571,-8.728161,-5.493248,0.366217,0.038819,-0.058473,1.008438
572,-7.690547,-5.859464,-0.244144,0.025879,-0.038697,0.953140
573,-11.657893,-7.202258,-0.610361,0.031495,-0.039307,0.956435
574,-12.207218,-7.873655,-1.220722,0.036744,-0.035035,0.972671
575,-14.709697,-7.812619,-1.342794,0.038209,-0.044068,1.009415
576,-14.770733,-6.958114,-0.854505,0.073854,-0.052247,1.004898
577,-15.442130,-4.821851,-0.305180,0.057374,-0.031250,0.983169
578,-17.151141,-4.455634,0.122072,0.039307,-0.025025,0.982193
579,-18.860151,-4.760815,-0.732433,0.043214,-0.042969,0.974868
580,-20.019837,-5.554284,-1.220722,0.043580,-0.027588,0.962539
581,-25.146868,-5.920500,-1.586938,0.048463,-0.040528,0.980850
582,-27.405203,-5.981537,-0.976577,0.048829,-0.060548,1.005386
583,-26.367590,-6.042573,-0.366217,0.041993,-0.071168,0.990860
584,-27.222095,-6.775006,0.305180,0.016114,-0.051514,0.990616
585,-28.442817,-6.713970,0.244144,0.037964,-0.095583,1.022599
586,-28.320745,-2.563516,0.915541,0.064820,-0.114504,0.937270
587,-31.250477,-3.051804,2.990768,0.058473,-0.098878,1.062028
588,-26.794842,-1.647974,3.540093,0.043458,-0.112428,0.987808
589,-25.207904,-1.220722,3.723201,0.135744,-0.009400,0.936172
590,-43.884947,3.051804,4.577707,-0.038941,0.016480,0.976577
591,-50.293736,-0.488289,-0.732433,0.055421,-0.076539,0.996109
592,-45.166705,0.793469,-5.920500,0.009033,-0.015015,1.014054
593,-54.566262,0.061036,-10.193027,0.018677,-0.036133,0.994766
594,-56.031128,-0.305180,-15.686275,-0.030762,-0.158572,1.073259
595,-55.054551,3.601129,-20.996414,0.012940,-0.136355,0.879774
596,-64.271000,0.854505,-26.733806,0.157595,-0.333379,1.042130
597,-38.635843,-1.159686,-6.469825,0.244022,-0.266972,1.118914
598,-23.620966,5.859464,2.502480,0.178592,-0.213626,1.063859
599,-43.091478,14.831769,7.568475,0.078248,0.075441,1.049088
600,-68.787671,23.743038,-5.127031,0.122927,0.167117,0.931044
601,-107.972839,29.907683,-9.948882,0.023072,0.409308,0.877577
602,-182.681010,31.494621,-22.095064,-0.220951,0.181643,0.403693
603,-189.394980,-14.282444,-0.732433,-0.290776,0.300420,0.488655
604,-272.037842,-36.743725,-18.738079,0.097414,0.534066,1.148089
605,-479.133288,-61.524376,-21.423667,-0.162600,-0.084962,1.143938
606,-643.503471,-145.815213,36.682689,-0.206180,0.043580,1.399313
607,-736.888685,-197.329671,51.941711,0.023804,-0.315190,1.151873
608,-784.313726,-179.324025,64.759289,0.391241,-0.092531,0.942763
609,-872.144656,-167.666133,75.623713,0.783581,-2.000031,1.999969
610,-928.358892,-109.681849,202.212558,-0.114015,-1.003067,1.999969
611,-130.495155,-46.753643,-29.541466,-0.035889,-0.925917,1.999969
612,234.378576,13.855192,-32.959487,-0.352911,0.956924,1.999969
613,143.984131,19.836728,-34.485389,-0.254765,1.045792,1.999969
614,49.744411,-14.831769,23.498894,-0.686656,0.755627,1.823758
615,82.520790,-29.968719,33.569848,-0.355352,0.315435,1.227436
616,178.042268,-4.394598,26.367590,-0.237552,0.331304,0.745495
617,169.741360,3.784237,24.353399,-0.081422,0.394049,0.489998
618,144.838636,13.855192,22.705425,-0.019532,0.247318,0.574228
619,169.253071,28.442817,13.000687,0.014282,0.164065,0.573007
620,182.558938,36.804761,5.432212,0.028931,0.172488,0.548959
621,178.408484,33.875029,1.586938,0.070558,0.160403,0.600473
622,191.042954,27.771420,-4.150454,0.121828,0.181033,0.798474
623,203.372244,21.911955,-10.803388,0.137209,0.210208,1.050553
624,216.250858,17.639429,-16.968032,0.137453,0.174197,1.262715
625,238.834211,19.775692,-23.743038,0.126223,0.125368,1.371481
626,259.769589,26.733806,-30.395972,0.126345,0.041260,1.317403
627,276.371405,36.194400,-35.095750,0.105715,-0.040894,1.251240
628,286.320287,41.687648,-36.255436,0.116945,-0.102296,1.254047
629,295.048447,41.321431,-35.461967,0.168338,-0.133669,1.339010
630,302.128634,36.987869,-36.743725,0.274418,-0.195682,1.447044
631,312.016480,32.898451,-42.664225,0.484504,-0.270146,1.472313
632,320.439460,32.959487,-57.740139,0.528939,-0.358038,1.415793
633,325.322347,41.199359,-75.867857,0.537118,-0.430182,1.185199
634,303.227283,52.735180,-92.286564,0.518807,-0.604746,0.954360
635,274.052033,76.478218,-103.456168,0.433356,-0.710826,0.934707
636,241.886015,82.276646,-106.630045,0.256840,-0.683360,1.223896
637,226.199741,71.229114,-108.522164,0.131472,-0.672740,1.567407
638,230.838483,76.661326,-105.653468,-0.034058,-0.653452,1.792264
639,217.410544,92.408637,-91.798276,-0.170901,-0.748547,1.877226
640,209.719997,99.855039,-70.496681,-0.225101,-0.821546,1.999969
641,212.466621,91.187915,-47.364004,-0.150637,-0.851087,1.999969
642,228.641184,80.811780,-25.635157,0.001221,-0.828260,1.999969
643,256.046387,75.928893,-9.887846,0.162478,-0.837415,1.999969
644,273.685817,76.356146,0.305180,0.287602,-0.868299,1.908843
645,265.995270,72.449836,7.812619,0.327520,-0.902602,1.530297
646,248.966201,62.684062,10.376135,0.306523,-0.956680,1.441794
647,232.181277,55.481804,7.629511,0.292119,-1.067033,1.440208
648,218.448157,59.143969,2.929732,0.199710,-1.242451,1.407736
649,198.611429,64.637217,1.159686,0.152590,-1.505516,1.244160
650,178.774701,66.163119,2.441444,0.349371,-1.814603,0.960464
651,149.294270,65.003433,-5.554284,0.733654,-2.000031,0.651743
652,117.799649,81.788357,-26.062409,1.021012,-2.000031,0.308843
653,82.825971,103.089952,-45.899138,0.880873,-2.000031,-0.083986
654,39.734493,88.502327,-40.344854,0.510872,-2.000031,-0.354131
655,-10.681315,24.963760,-18.738079,0.199954,-2.000031,-0.084962
656,-36.865797,-46.387427,6.591897,0.010864,-1.551049,0.489754
657,-114.991989,-131.044480,13.611048,-0.051392,-1.909941,-1.162982
658,-226.749065,-188.540475,41.077287,0.379156,-0.442634,0.936172
659,-135.500114,-82.825971,25.635157,-0.061891,0.257450,1.886503
660,-111.940185,-34.912642,35.461967,-0.522713,1.039078,1.350362
661,-232.913710,-107.484550,50.049592,-0.101808,0.400397,0.201663
662,-295.292592,-98.023957,60.303655,0.137942,-0.531136,0.436896
663,-271.549554,-74.036774,64.820325,0.505501,-0.244022,1.590112
664,-266.788739,-67.444877,56.885634,1.084001,-0.105959,1.999969
665,-207.827878,-23.132677,30.395972,0.743664,-0.444709,1.999969
666,-120.180056,-3.356985,13.000687,0.084474,-0.367437,1.450828
667,-154.726482,-43.945983,31.860838,-0.726574,-0.193240,1.999969
668,-90.089265,-70.862898,39.002060,-0.162356,-0.083375,1.999969
669,-51.697566,-79.591058,15.564202,1.098405,0.146365,1.999969
670,-43.091478,-26.977951,3.356985,0.529427,-0.039307,1.367819
671,-35.889220,-14.343481,1.586938,-0.468879,0.007080,1.273945
672,-43.701839,-42.236973,7.812619,0.054688,-0.019409,1.169207
673,-17.761501,-27.527276,-3.051804,0.390265,0.161257,1.244892
674,-42.053864,-10.315099,0.366217,0.039796,-0.017700,1.077775
675,-31.189441,-6.958114,-1.892119,-0.066651,-0.079957,1.202899
676,-12.207218,-5.920500,-4.028382,0.147097,0.065431,1.089372
677,-22.827497,0.610361,-1.464866,-0.035157,0.016846,1.047745
678,-14.099336,1.403830,-0.976577,0.047852,0.019776,1.053605
679,-15.014878,4.699779,-0.732433,0.066407,-0.000488,1.046159
680,-13.916228,6.775006,1.464866,0.006714,-0.009644,1.025650
681,-10.681315,5.981537,2.746624,0.024292,0.018799,0.997208
682,-12.756542,5.432212,4.028382,0.019898,0.010010,0.969986
683,-13.916228,3.845274,4.577707,-0.005005,0.021118,0.960830
684,-16.540780,0.427253,4.455634,0.008423,0.040284,0.945815
685,-21.301595,-1.403830,4.028382,-0.001221,0.021363,0.965469
686,-22.400244,-3.051804,3.356985,-0.004150,0.009277,0.980117
687,-23.437858,-3.784237,3.051804,0.024048,-0.001099,1.008194
688,-23.498894,-2.319371,1.037613,0.035767,-0.199954,0.860365
689,-19.043259,-3.112840,2.441444,0.027588,-0.018799,1.084855
690,-16.662852,-2.807660,2.685588,-0.000977,-0.018433,1.042985
691,-13.977264,-3.784237,2.258335,-0.002686,-0.014038,1.008194
692,-12.756542,-5.004959,1.342794,0.023194,-0.016846,1.010880
693,-12.268254,-5.004959,1.037613,0.016724,-0.024781,1.024186
694,-10.681315,-4.699779,0.732433,0.015625,-0.012085,0.995621
695,-11.718929,-4.638743,0.671397,0.014038,-0.010620,0.995254
696,-13.855192,-4.455634,1.159686,0.025147,-0.011353,1.023819
697,-13.305867,-3.967346,1.647974,0.031617,-0.017334,0.988785
698,-14.709697,-3.662165,2.014191,0.008057,-0.018677,0.966690
699,-16.662852,-4.638743,2.319371,0.007324,-0.038819,0.957900
700,-18.188754,-5.920500,2.502480,0.007080,-0.021241,0.972305
701,-21.118486,-7.385367,2.380407,0.015015,-0.016114,1.004532
702,-21.667811,-7.995727,2.014191,0.041138,-0.034546,1.032486
703,-18.432898,-7.019150,0.793469,0.039063,-0.061891,1.011856
704,-17.639429,-6.225681,0.671397,0.043702,-0.045777,1.033097
705,-16.296635,-5.065995,0.854505,0.040284,-0.052979,1.018204
706,-15.075914,-3.906310,1.342794,0.039307,-0.058839,1.024918
707,-13.244831,-3.112840,1.892119,0.033326,-0.067262,1.005875
708,-13.366903,-2.990768,2.502480,0.028077,-0.026978,0.973892
709,-16.357671,-3.051804,2.258335,0.018799,-0.038697,0.971817
710,-19.104295,-3.418021,2.014191,0.037110,-0.036255,1.013809
711,-19.897765,-3.051804,1.464866,0.031250,-0.053223,1.013077
712,-20.996414,-2.258335,1.525902,0.059083,-0.059205,0.995865
713,-22.583352,-1.098650,1.831083,0.041382,-0.067018,0.991958
714,-23.010605,-0.244144,2.380407,0.038209,-0.064210,1.010147
715,-25.268940,0.183108,2.929732,0.031006,-0.070802,0.971939
716,-29.907683,-0.366217,3.723201,0.019043,-0.053834,0.985122
717,-26.794842,-1.403830,2.746624,0.021485,-0.037354,0.967788
718,-28.870069,-0.366217,2.197299,0.044923,-0.037110,1.011368
719,-38.025483,-1.342794,2.990768,-0.029053,-0.105348,0.961807
720,-33.264668,-2.014191,4.455634,0.102663,-0.087526,1.088762
721,-34.851606,1.770047,6.286717,0.026368,-0.099855,1.051896
722,-32.166018,3.051804,5.920500,0.041382,-0.110475,0.998184
723,-34.973678,4.394598,6.042573,-0.001831,-0.083253,0.994400
724,-34.485389,3.173877,4.455634,-0.007568,-0.104005,0.989517
725,-30.762188,2.868696,1.342794,-0.014282,-0.093019,1.008927
726,-24.902724,2.868696,1.892119,0.046143,-0.164920,0.842176
727,-38.025483,-2.746624,-5.798428,-0.110475,-0.054810,1.021256
728,-42.786297,-4.760815,-17.212177,-0.043091,-0.164065,0.938857
729,-64.209964,-7.446403,-30.029755,0.082277,-0.205203,0.977920
730,-58.289464,-5.554284,-15.014878,0.114382,-0.348760,1.041032
731,-37.354086,-1.953155,-5.615320,0.096071,-0.220829,1.103532
732,-20.141909,-2.685588,-11.291676,0.014282,-0.151003,0.968887
733,-35.523003,-3.479057,-13.122759,0.058717,0.044312,0.962661
734,-71.107042,1.464866,-16.174563,0.092287,0.142824,0.949599
735,-125.246052,8.239872,-20.691234,0.105959,0.140383,0.827161
736,-127.382315,12.146181,-11.230640,0.080201,0.411139,0.668956
737,-165.041581,-8.850233,-42.664225,-0.025879,0.334112,0.838514
738,-274.052033,-17.639429,-44.007019,-0.071534,0.882216,1.104387
739,-498.908980,-21.972992,-38.330663,-0.068116,0.672618,1.526513
740,-645.700771,-84.351873,13.427939,-0.533089,0.078614,1.237446
741,-791.577020,-182.436866,48.279545,-0.117067,-0.052735,1.195819
742,-867.261769,-204.165713,71.473259,0.342168,-0.593271,1.187640
743,-1149.370565,-220.645457,214.908064,-1.050553,0.005005,1.999969
744,-323.552300,-142.946517,104.127565,-1.100481,-0.617563,1.999969
745,331.792172,-20.691234,-42.420081,-0.143801,0.857435,1.999969
746,325.444419,57.434958,-37.170977,0.112184,1.317769,1.256855
747,102.418555,43.457694,-5.676356,-0.601083,0.756847,0.612558
748,-45.410849,-2.868696,39.063096,-0.194217,0.232181,-0.135378
749,-14.892805,6.225681,38.269627,-0.025391,0.010010,0.040772
750,82.703899,23.743038,18.554971,-0.030884,0.282353,0.277470
751,67.811093,18.005646,14.526589,0.153689,0.489998,0.313848
752,42.542153,6.347753,10.742351,0.149294,0.404791,0.622446
753,83.924620,-1.647974,-0.732433,0.172366,0.448615,0.804700
754,114.564736,-7.690547,-11.779965,0.153811,0.529671,0.852064
755,120.363165,-13.488975,-18.921187,0.101320,0.471687,1.019669
756,145.937285,-13.794156,-26.611734,0.053590,0.392218,1.123308
757,178.591592,-10.742351,-33.752956,-0.007691,0.347295,1.134295
758,194.644083,-7.507439,-36.377508,-0.099123,0.251469,1.162005
759,212.771801,-0.488289,-36.011292,-0.201297,0.110842,1.235859
760,234.378576,10.376135,-31.616693,-0.273320,-0.010864,1.263203
761,250.675212,18.799115,-22.888533,-0.278080,-0.091676,1.312642
762,266.849775,23.010605,-13.488975,-0.221683,-0.163577,1.288228
763,282.963302,24.109255,-7.080186,-0.079469,-0.180301,1.302266
764,289.188983,25.024796,-4.699779,0.063844,-0.204227,1.380514
765,295.597772,27.893492,-9.216449,0.187991,-0.306889,1.358419
766,304.753185,39.917601,-20.508125,0.244633,-0.421271,1.049821
767,293.522545,56.946670,-32.837415,0.219364,-0.580941,0.692027
768,262.821393,69.398032,-36.865797,0.159426,-0.610727,0.560433
769,230.045014,65.491722,-37.720302,0.073243,-0.580819,0.708141
770,207.400626,48.523690,-37.232013,0.100587,-0.443732,1.196429
771,189.272908,36.316472,-37.232013,0.152590,-0.302861,1.999969
772,194.094759,40.527962,-41.748684,0.259281,-0.328985,1.999969
773,233.096819,60.303655,-53.284504,0.314702,-0.471077,1.999969
774,266.300450,78.675517,-64.942397,0.254154,-0.596078,1.999969
775,264.957656,81.605249,-66.407263,0.127321,-0.668833,1.999969
776,262.638285,69.214923,-61.707485,0.088746,-0.745617,1.999969
777,281.742580,61.585412,-59.082933,0.163943,-0.789441,1.999969
778,284.245060,67.078660,-58.716716,0.248417,-0.813001,1.745388
779,267.887388,76.905470,-58.411536,0.287846,-0.817151,1.607202
780,247.806516,74.280919,-58.472572,0.297246,-0.819593,1.764797
781,241.336690,68.238346,-59.937438,0.291997,-0.914199,1.884428
782,240.787366,68.482490,-62.928206,0.249271,-1.080217,1.719020
783,228.824292,74.464027,-63.172351,0.111574,-1.319234,1.433127
784,207.034409,77.821012,-55.970092,-0.045533,-1.644556,1.157122
785,178.591592,82.948043,-44.861524,0.064942,-2.000031,0.883803
786,144.411383,90.699626,-31.677729,0.336553,-2.000031,0.689097
787,106.446937,102.662699,-25.085832,0.587045,-2.000031,0.296635
788,84.168765,110.780499,-23.010605,0.606821,-2.000031,-0.270756
789,41.870756,82.459754,-6.042573,0.431037,-2.000031,-0.655406
790,-27.649348,11.535821,21.545739,0.265263,-1.799344,-0.284794
791,-64.271000,-55.603876,42.908370,0.159182,-1.371603,0.542245
792,-84.718090,-87.220569,52.002747,0.076051,-1.827909,-2.000031
793,-197.573816,-176.638437,78.004120,0.241947,-0.283085,0.457404
794,-151.735714,-132.570382,61.097124,0.260014,-0.072389,1.991363
795,-95.948730,-34.119173,57.740139,-0.190799,0.974990,1.768338
796,-151.186389,-77.332723,67.200732,0.129274,0.680430,0.005982
797,-238.834211,-109.315633,63.660639,0.769299,-0.079347,-0.125124
798,-254.520485,-75.989929,55.237659,0.764294,-0.088991,0.783825
799,-276.859693,-65.918975,47.302968,1.080217,0.098268,1.999969
800,-235.843442,-24.048219,26.794842,0.976577,-0.340948,1.999969
801,-150.392920,9.460594,0.000000,-0.017823,0.006958,1.999969
802,-126.588846,22.095064,1.403830,-0.654551,-0.052247,1.685451
803,-168.703746,-32.349126,37.232013,-1.142596,-0.361089,1.999969
804,-90.943771,-80.018311,44.922560,-0.025513,-0.123293,1.951812
805,-63.965820,-90.943771,17.212177,1.422751,0.148074,1.999969
806,-41.992828,-21.667811,4.089418,0.411994,0.021973,1.169696
807,-57.434958,-16.113527,0.122072,-0.616953,0.005249,1.120256
808,-65.125505,-51.453422,9.704738,0.050782,-0.021729,1.110735
809,-41.077287,-38.147555,-3.601129,0.478523,0.125124,1.581445
810,-51.575494,-16.968032,0.549325,-0.010620,-0.180545,1.167498
811,-14.648661,-21.118486,-2.319371,-0.145388,-0.030396,1.093400
812,-16.235599,-24.841688,-3.234913,0.215335,0.101198,1.014786
813,-32.959487,-16.113527,2.014191,0.028809,-0.048829,1.142229
814,-14.160372,-11.108568,0.305180,0.082399,-0.016236,1.054459
815,-15.564202,-5.310140,1.342794,0.127810,0.073732,0.995254
816,-26.245518,-1.709010,4.028382,0.021729,0.005249,1.068132
817,-17.273213,-0.854505,4.028382,0.057252,0.013428,1.016129
818,-20.019837,0.488289,4.272526,0.053101,-0.023560,0.972793
819,-19.409476,-0.488289,4.577707,0.015259,-0.023560,1.036515
820,-16.052491,-1.464866,3.418021,0.030640,-0.015259,1.069841
821,-12.573434,-1.098650,2.685588,0.022583,-0.022827,1.041642
822,-10.315099,-1.403830,2.502480,0.022339,-0.007691,1.026627
823,-8.545052,-0.793469,2.014191,0.029908,-0.013428,1.013443
824,-8.606088,0.000000,2.014191,0.016480,-0.005005,1.009781
825,-6.408789,0.488289,2.136263,0.019532,-0.001221,0.992447
826,-9.094377,0.122072,2.258335,0.022827,0.003784,1.001480
827,-8.056764,0.122072,2.197299,0.036133,-0.017090,1.004654
828,-8.178836,-0.183108,2.197299,0.032227,0.001343,1.024918
829,-6.286717,0.427253,1.342794,0.029175,-0.017823,0.990860
830,-8.178836,0.488289,0.671397,0.023682,-0.026490,0.988785
831,-7.141222,0.671397,0.976577,0.034302,-0.006836,0.990738
832,-9.704738,0.427253,1.159686,0.021729,-0.015137,0.986099
833,-11.047532,-0.183108,1.525902,0.028931,-0.014893,0.976089
834,-13.916228,-1.281758,1.831083,0.009644,0.002808,0.967910
835,-16.784924,-2.197299,2.075227,0.018921,-0.004028,0.974990
836,-19.775692,-3.540093,2.075227,0.015869,-0.023560,0.981094
837,-17.273213,-4.333562,1.098650,0.021729,-0.032715,0.984512
838,-18.127718,-4.760815,0.671397,0.027832,-0.045533,1.008927
839,-17.761501,-4.638743,0.183108,0.040528,-0.059205,1.033829
840,-14.404517,-3.540093,0.244144,0.039185,-0.058717,1.024674
841,-13.305867,-2.197299,0.305180,0.043458,-0.073243,1.025528
842,-11.596857,-1.098650,0.915541,0.057252,-0.088869,1.037369
843,-9.216449,-0.183108,1.159686,0.029786,-0.073610,1.001602
844,-7.629511,-0.549325,1.342794,0.024537,-0.016114,0.975235
845,-12.207218,-1.831083,1.159686,0.014038,-0.030030,0.942275
846,-15.136950,-3.662165,0.732433,0.007813,-0.022705,0.941909
847,-19.409476,-4.760815,0.183108,0.032715,-0.022339,0.953994
848,-25.024796,-4.760815,0.427253,0.041138,-0.044800,0.972061
849,-26.062409,-3.845274,0.488289,0.034913,-0.052857,0.990249
850,-28.747997,-3.540093,0.915541,0.043580,-0.056519,1.023941
851,-27.527276,-2.014191,1.647974,0.041871,-0.058839,0.988540
852,-29.297322,-2.258335,2.319371,0.039429,-0.082765,1.000870
853,-28.625925,-2.990768,2.380407,0.028565,-0.076051,0.994888
854,-28.076600,-3.540093,1.770047,0.051392,-0.080568,1.040909
855,-28.686961,-3.356985,0.549325,-0.005859,-0.106081,1.041398
856,-28.015564,-0.976577,0.671397,0.040040,-0.053101,0.936049
857,-40.650034,0.488289,2.746624,0.062867,-0.103029,1.037125
858,-37.903410,1.770047,3.906310,0.044312,-0.134401,1.037003
859,-33.264668,3.601129,4.211490,0.038575,-0.107057,0.995010
860,-38.941024,4.638743,5.920500,0.034791,-0.085939,0.999405
861,-40.711070,4.394598,5.798428,0.024292,-0.139528,1.022477
862,-34.851606,4.516670,4.150454,0.013306,-0.110231,1.002335
863,-33.081559,4.638743,0.549325,0.018433,-0.139895,1.000748
864,-28.870069,6.286717,-2.685588,0.008911,-0.139651,0.943984
865,-19.653620,4.150454,-4.943923,0.006958,-0.205081,0.969253
866,-24.719615,-0.671397,-14.526589,-0.077272,-0.104128,1.090959
867,-48.584726,-0.427253,-27.710384,0.071290,-0.288579,1.076921
868,-42.298009,4.150454,-8.361944,0.123903,-0.303349,1.120867
869,-21.301595,6.103609,-0.488289,0.025635,-0.120851,1.090105
870,-24.170291,4.516670,-10.681315,0.075807,-0.045899,1.041886
871,-41.931792,8.239872,-13.305867,0.027710,0.180789,0.890883
872,-88.441291,12.146181,-23.743038,0.129030,0.182254,0.922499
873,-119.935912,15.259022,-22.949569,-0.032105,0.343633,0.596323
874,-168.032349,7.202258,-31.921874,-0.085084,0.397223,0.722423
875,-239.139391,-2.563516,-30.212863,0.310063,0.988174,0.928725
876,-435.004196,-12.817578,-45.044633,0.001221,0.652720,1.426047
877,-620.859083,-52.796216,1.892119,-0.476936,0.308598,1.999786
878,-721.446555,-130.617227,25.268940,-0.230961,-0.315557,1.012833
879,-772.838941,-152.468147,49.988556,0.078126,-0.284672,0.900526
880,-886.182956,-164.431220,106.263828,0.393439,-2.000031,1.999969
881,-649.546044,-114.259556,151.430533,-1.153704,-1.390402,1.999969
882,90.638590,-89.845121,-5.920500,-0.415412,0.209354,1.999969
883,310.673686,-32.532235,5.615320,-0.860731,1.006485,1.999969
884,113.588159,-10.803388,6.347753,-0.309331,0.763806,1.501244
885,-36.865797,-41.260395,64.820325,-0.365118,0.589609,0.587411
886,-31.616693,-40.344854,67.872129,-0.099977,0.291386,0.558724
887,67.078660,-8.422980,43.762875,-0.000610,0.328740,0.421881
888,63.050278,-4.394598,33.142596,0.060426,0.538582,0.368292
889,29.480430,-8.239872,28.198672,0.070069,0.414923,0.677867
890,67.566949,-10.070954,15.869383,0.031373,0.429572,0.905776
891,96.192874,-18.249790,7.019150,-0.046876,0.498421,1.033829
892,105.836576,-30.395972,3.356985,-0.103761,0.436530,1.187762
893,139.101244,-32.288090,-2.563516,-0.100465,0.393072,1.284321
894,168.337530,-25.757229,-9.460594,-0.129030,0.377691,1.323018
895,186.709392,-16.540780,-14.892805,-0.149050,0.286748,1.359640
896,210.940719,-0.854505,-20.141909,-0.150637,0.191897,1.365621
897,232.730602,15.197986,-23.254749,-0.175174,0.085206,1.347433
898,249.698634,27.344167,-21.667811,-0.211063,-0.033448,1.333272
899,268.925002,35.278859,-17.090105,-0.251957,-0.158816,1.266743
900,283.207446,39.063096,-8.911269,-0.238651,-0.244144,1.197650
901,291.081102,36.865797,0.000000,-0.168704,-0.301152,1.125994
902,296.818494,30.884260,6.713970,-0.073976,-0.325933,1.092668
903,298.283360,21.911955,9.948882,0.034546,-0.313970,1.071672
904,292.301823,20.569162,5.004959,0.205081,-0.357794,1.028336
905,281.681544,30.395972,-7.629511,0.357305,-0.430060,1.007095
906,263.248646,46.570535,-23.193713,0.376959,-0.448859,1.089982
907,244.022278,60.852979,-37.781338,0.341314,-0.464729,1.270039
908,234.012360,64.209964,-48.828870,0.238529,-0.446052,1.424704
909,224.612802,59.327077,-54.810407,0.199954,-0.461555,1.782742
910,218.692302,58.655680,-56.763561,0.154788,-0.509773,1.999969
911,230.594339,61.158160,-58.350500,0.094240,-0.570565,1.999969
912,243.839170,67.383841,-57.068742,-0.024537,-0.699596,1.999969
913,250.492103,70.191501,-50.415808,-0.112795,-0.756115,1.999969
914,249.454490,66.102083,-40.955215,-0.104128,-0.803845,1.962921
915,250.980392,64.515145,-33.508812,-0.022583,-0.803845,1.981231
916,251.102464,66.407263,-29.358358,0.056519,-0.780529,1.999969
917,252.811475,67.322805,-28.931106,0.145388,-0.811292,1.991852
918,254.276341,70.313573,-30.701152,0.194705,-0.893935,1.798001
919,249.759670,75.013352,-33.264668,0.258549,-0.980972,1.603296
920,236.270695,80.018311,-35.156786,0.292973,-1.086320,1.432761
921,219.485771,80.506600,-34.485389,0.265873,-1.234760,1.253071
922,201.480125,75.745785,-31.006332,0.248051,-1.410910,1.078508
923,176.821546,71.412222,-24.109255,0.291508,-1.647974,0.895644
924,142.824445,70.313573,-21.301595,0.420905,-1.949981,0.819593
925,111.146716,77.454795,-22.217136,0.527108,-2.000031,0.623545
926,86.366064,91.920348,-30.884260,0.450935,-2.000031,0.231449
927,59.632258,91.859312,-25.268940,0.234257,-2.000031,-0.244144
928,-24.780652,25.818265,-1.464866,-0.139528,-2.000031,-2.000031
929,-168.703746,-117.311360,49.622339,0.217655,-2.000031,-0.917739
930,-232.730602,-188.662547,62.745098,0.883680,-2.000031,-0.163821
931,-184.267948,-150.820172,39.368276,0.573983,-0.284184,1.843656
932,-125.795377,-96.803235,15.564202,-0.182620,0.790051,1.999969
933,-153.749905,-76.050965,35.584039,-0.425910,0.733532,1.155169
934,-251.773861,-117.128252,48.523690,-0.026246,-0.147951,0.077272
935,-271.183337,-104.371710,58.106355,0.232670,-0.381598,1.104509
936,-261.966888,-82.154574,58.472572,0.803845,-0.133547,1.999969
937,-210.757610,-48.584726,41.687648,1.329854,-0.132570,1.999969
938,-132.326238,-7.629511,6.591897,0.883680,-0.188968,1.534447
939,-124.330510,25.391012,-3.112840,-0.348394,-0.048096,1.317891
940,-166.567483,-11.474784,27.100023,-1.418112,-0.332647,1.953765
941,-103.578241,-75.257496,40.894179,-0.443610,-0.350591,1.891508
942,-40.894179,-99.183642,19.043259,1.271870,0.217166,1.999969
943,-31.921874,-34.058137,1.770047,0.763928,0.077028,1.330465
944,-48.157473,-10.376135,-2.624552,-0.552743,0.012696,1.126970
945,-56.275273,-42.664225,7.934691,-0.123537,-0.045167,1.185687
946,-19.165332,-38.513771,-2.685588,0.375616,0.094728,1.222187
947,-34.302281,-18.066682,-4.638743,0.135500,-0.049561,1.247944
948,-17.944610,-13.794156,-2.441444,-0.046387,-0.051637,1.195453
949,0.366217,-14.953841,-4.089418,0.074220,0.086671,0.945571
950,-14.038300,-10.681315,-3.173877,0.026123,0.078859,0.961440
951,-19.409476,-8.178836,-1.525902,0.051270,-0.004028,1.077043
952,-12.573434,-0.976577,0.183108,0.135744,-0.000366,1.093523
953,-12.024109,9.216449,1.464866,0.100954,0.028199,1.051408
954,-15.625238,13.916228,3.356985,0.055421,-0.001465,1.058000
955,-11.902037,14.953841,3.906310,0.032715,-0.004761,1.044816
956,-10.315099,15.259022,4.211490,0.027466,-0.004395,1.041032
957,-8.545052,15.259022,4.028382,0.023316,0.009766,1.043839
958,-6.958114,16.296635,3.112840,0.013550,0.010254,1.006607
959,-6.836042,15.442130,2.685588,-0.028687,0.015137,0.979873
960,-8.117800,12.817578,2.502480,-0.027832,0.026612,0.945327
961,-9.277485,10.131991,1.709010,-0.033570,0.049317,0.956435
962,-13.672084,7.873655,2.258335,0.003662,-0.010864,1.003433
963,-8.606088,8.178836,2.197299,-0.003540,-0.011841,1.004898
964,-8.178836,7.446403,2.563516,0.001831,0.002930,0.993912
965,-8.789197,7.202258,2.868696,-0.007080,0.011841,0.978042
966,-9.948882,6.103609,2.685588,-0.019409,0.008301,0.964370
967,-12.146181,4.150454,2.380407,-0.019287,-0.001953,0.986709
968,-12.024109,2.929732,2.075227,-0.019165,-0.012329,1.005386
969,-10.437171,1.770047,2.014191,-0.017578,-0.011719,0.983780
970,-9.704738,0.793469,1.525902,-0.021607,-0.003052,0.977798
971,-11.596857,-0.610361,1.647974,-0.024537,0.000488,0.991592
972,-10.925460,0.732433,-1.037613,0.037842,-0.255863,0.688731
973,-10.498207,-2.014191,0.183108,-0.027832,0.018799,1.071794
974,-14.160372,-3.540093,1.525902,-0.007813,-0.023194,1.016861
975,-10.498207,-3.356985,1.342794,0.007446,-0.034913,1.004044
976,-9.033341,-2.380407,1.403830,-0.002564,-0.030152,1.006485
977,-8.606088,-2.258335,1.525902,0.008057,-0.028199,1.024063
978,-7.751583,-1.831083,1.709010,0.001221,-0.034913,1.011978
979,-5.981537,-1.281758,1.770047,0.001709,-0.023926,0.994644
980,-6.469825,0.854505,0.000000,0.129885,-0.070069,0.726940
981,-6.530861,-0.244144,0.854505,-0.032105,0.024781,1.083635
982,-13.122759,-1.709010,1.831083,-0.002808,-0.010376,0.938003
983,-14.953841,-1.220722,2.197299,-0.002075,-0.009277,0.977432
984,-14.770733,-1.464866,1.831083,-0.015747,-0.005737,0.959121
985,-19.470512,-3.173877,1.586938,-0.024537,-0.029419,0.954238
986,-22.522316,-4.699779,2.014191,-0.022217,-0.024292,0.991104
987,-24.658579,-6.042573,2.075227,0.001343,-0.023194,0.981827
988,-26.794842,-6.713970,1.403830,-0.005371,-0.022705,1.023697
989,-27.649348,-7.690547,1.342794,-0.016846,-0.047364,0.969741
990,-26.977951,-8.972305,0.366217,-0.001953,0.010254,0.992691
991,-31.677729,-8.178836,0.183108,-0.002686,-0.017090,0.947280
992,-38.391699,-9.338521,-0.671397,-0.040162,-0.029419,0.959487
993,-39.795529,-9.338521,-0.732433,0.008179,-0.061280,0.987442
994,-43.762875,-8.484016,1.342794,-0.040040,-0.078981,1.007706
995,-40.955215,-8.117800,4.028382,0.068849,-0.092653,1.057633
996,-40.283818,-4.943923,4.394598,-0.028199,-0.106935,1.015152
997,-32.166018,-5.249104,3.112840,0.025513,-0.119509,0.944839
998,-23.193713,-3.234913,4.943923,0.044190,-0.151492,0.898817
999,-28.503853,-5.615320,-0.122072,-0.012573,0.003296,1.125872
1000,-38.635843,-7.202258,-7.568475,-0.041382,-0.073487,0.948623
1001,-51.514458,-12.146181,-13.550011,-0.029297,-0.085328,1.013809
1002,-52.307927,-9.155413,-23.987182,0.013184,-0.119631,1.006729
1003,-60.852979,-13.183795,-18.921187,0.054322,-0.158206,1.109392
1004,-55.603876,-2.929732,-10.437171,0.082033,-0.231937,1.117693
1005,-42.359045,-3.540093,-4.211490,0.015991,-0.145388,1.069474
1006,-40.466926,-4.516670,-10.315099,0.006226,-0.044190,1.021134
1007,-62.684062,-1.892119,-17.395285,0.034791,0.128176,0.911757
1008,-91.493095,-3.540093,-18.677043,0.098268,0.194095,0.875135
1009,-133.913176,1.342794,-13.061723,-0.044190,0.258915,0.687999
1010,-188.235294,-0.549325,-30.945296,0.168826,0.309087,0.584482
1011,-257.938506,-0.366217,-37.964446,0.097536,0.957046,1.223896
1012,-479.438468,-2.929732,-42.969406,0.023560,0.537972,1.217670
1013,-673.472190,-9.582666,2.685588,-0.251957,0.243900,1.530175
1014,-758.007172,-38.513771,23.620966,0.169314,-0.229862,1.377096
1015,-815.564202,-55.176623,39.002060,-0.066041,-0.492195,0.654429
1016,-995.559625,-111.879149,151.308461,-1.204608,-1.888579,1.999969
1017,-515.938048,-115.419242,87.708858,-1.582788,-1.749783,1.999969
1018,146.791791,-106.507973,-0.976577,-0.615976,0.562631,1.999969
1019,242.557412,-64.393072,12.207218,-0.655039,1.323384,1.999969
1020,36.926833,-41.138323,36.621653,-0.198123,0.839734,1.604883
1021,-90.394446,-52.918288,71.229114,-0.203250,0.598520,1.136858
1022,-0.427253,-15.197986,61.463340,0.111818,0.322759,0.945327
1023,99.244678,18.921187,25.696193,0.108522,0.504646,0.498177
1024,57.618067,12.268254,18.432898,0.187015,0.588510,0.497932
1025,47.364004,2.075227,10.070954,0.162966,0.438727,0.883925
1026,103.578241,-4.638743,-3.234913,0.129763,0.488899,1.063371
1027,128.480964,-20.569162,-9.765774,0.039551,0.520882,1.156023
1028,148.989090,-35.400931,-13.733120,0.032593,0.415290,1.207050
1029,187.075608,-36.926833,-21.301595,0.017090,0.367193,1.068986
1030,205.508507,-33.020523,-27.954528,-0.012329,0.319463,0.943496
1031,213.138018,-25.268940,-32.776379,-0.076417,0.209598,0.947036
1032,228.397040,-15.197986,-35.706111,-0.152712,0.129519,1.011124
1033,242.191196,-7.873655,-34.668498,-0.231937,0.079225,1.087541
1034,254.642557,-2.685588,-30.334936,-0.271855,0.016114,1.172869
1035,270.145724,2.563516,-24.536507,-0.274540,-0.020996,1.253193
1036,283.573663,7.690547,-18.616007,-0.235843,-0.070069,1.319966
1037,296.574350,10.498207,-14.343481,-0.157351,-0.091798,1.392233
1038,307.804990,12.207218,-14.526589,-0.039307,-0.175174,1.332174
1039,313.603418,13.061723,-19.470512,0.010010,-0.311406,1.004532
1040,303.105211,24.231327,-28.137636,0.111696,-0.468025,0.743908
1041,275.333791,42.481117,-33.813993,0.117189,-0.494514,0.773449
1042,247.379263,49.256123,-38.696880,0.123049,-0.406256,0.992691
1043,234.744793,48.950942,-45.105669,0.138552,-0.308110,1.397116
1044,220.157168,49.988556,-49.561303,0.074952,-0.308354,1.903227
1045,221.805142,66.285191,-51.514458,0.067994,-0.368902,1.999969
1046,231.876097,76.966506,-51.209277,0.004028,-0.438972,1.999969
1047,244.998856,78.187228,-47.119860,-0.045289,-0.591928,1.999969
1048,257.022965,73.975738,-40.527962,-0.079347,-0.722545,1.999969
1049,267.154955,69.581140,-34.485389,-0.031373,-0.818372,1.999969
1050,271.976806,70.313573,-30.395972,0.008911,-0.838270,1.999969
1051,278.446632,72.388800,-29.114214,0.062501,-0.918227,1.999969
1052,285.831998,77.576867,-31.067369,0.233036,-0.964126,1.893339
1053,278.568704,83.192187,-36.438544,0.349126,-1.004166,1.610986
1054,257.022965,84.657053,-41.931792,0.380133,-1.098161,1.509056
1055,242.313268,87.953002,-46.204318,0.358038,-1.214374,1.471214
1056,224.856947,89.051652,-44.983597,0.281865,-1.405783,1.355001
1057,203.311208,86.732280,-35.217823,0.161257,-1.691432,1.174456
1058,178.225376,79.896239,-20.202945,0.146975,-1.994049,0.942397
1059,148.195621,68.665599,-4.455634,0.376104,-2.000031,0.660288
1060,111.451896,64.209964,-6.164645,0.654063,-2.000031,0.345586
1061,83.802548,70.008392,-22.766461,0.791638,-2.000031,-0.100832
1062,44.739452,56.092164,-30.029755,0.612558,-2.000031,-0.451301
1063,-16.479744,2.624552,-15.930419,0.311894,-1.941680,-0.170413
1064,-114.381628,-97.169451,5.493248,0.043702,-2.000031,-1.176165
1065,-242.252232,-205.569543,35.461967,0.826917,-1.667140,0.101442
1066,-145.021744,-114.869917,20.996414,0.381720,-0.164431,1.999969
1067,-85.023270,-30.090791,-4.394598,-0.501228,0.936416,1.999969
1068,-127.931640,-54.810407,15.747311,-0.588754,0.599741,-0.157961
1069,-270.023651,-93.507286,38.208591,-0.327886,-0.024170,-0.337163
1070,-348.271916,-80.140383,63.660639,0.021851,-0.382208,1.411765
1071,-318.303197,-47.180896,71.656367,0.745739,-0.409674,1.999969
1072,-205.081254,10.131991,36.865797,1.186664,-0.195682,1.999969
1073,-158.449683,41.199359,1.525902,0.566049,0.015991,1.999969
1074,-189.150835,-2.319371,16.662852,-0.960220,-0.364630,1.999969
1075,-90.272374,-41.016251,36.560616,-1.061295,-0.700206,1.217060
1076,-25.513085,-93.995575,29.541466,0.192874,0.285161,1.251118
1077,-87.525750,-80.384527,37.232013,1.373434,0.274174,1.999969
1078,-53.040360,-15.747311,11.413748,0.039185,-0.108034,1.642359
1079,-39.063096,-24.048219,11.841001,-0.597665,-0.071168,1.008316
1080,-32.776379,-44.068055,10.925460,0.348028,0.146609,1.229389
1081,-34.485389,-20.386053,1.403830,0.314092,0.067750,1.314473
1082,-33.325704,-6.408789,-0.122072,-0.178225,-0.071046,1.061418
1083,-24.292363,-9.826810,1.403830,0.094972,0.028321,1.168231
1084,-22.644388,-0.793469,3.051804,0.103517,-0.004273,1.167864
1085,-13.488975,5.004959,3.234913,-0.093751,0.009888,1.031022
1086,-13.794156,2.868696,4.882887,0.050050,0.041505,1.051896
1087,-12.390326,8.117800,4.333562,0.001221,0.059937,0.991714
1088,-15.503166,8.117800,4.882887,-0.045411,0.028565,1.020279
1089,-15.075914,8.667124,4.882887,0.029419,0.007691,1.064469
1090,-11.413748,12.329290,4.150454,-0.010254,0.031128,1.019303
1091,-14.831769,13.366903,4.577707,-0.023194,0.025757,1.021378
1092,-13.733120,14.770733,4.577707,-0.027710,0.025391,1.020890
1093,-14.099336,15.503166,4.821851,-0.016114,0.002564,1.054826
1094,-12.085145,18.493935,5.127031,-0.008911,-0.016358,1.056657
1095,-7.507439,20.141909,5.371176,-0.065064,0.009155,0.980484
1096,-10.070954,18.371862,5.554284,-0.044312,0.020874,0.996719
1097,-9.277485,16.968032,5.127031,-0.088991,0.015747,0.942519
1098,-10.498207,13.000687,4.882887,-0.088624,0.020996,0.952285
1099,-12.085145,9.338521,4.272526,-0.058228,0.011841,0.971450
1100,-9.887846,8.789197,3.418021,-0.073243,0.014527,1.012589
1101,-9.704738,7.629511,2.563516,-0.061036,-0.000488,1.034562
1102,-8.178836,7.751583,2.380407,-0.051392,-0.011841,1.006485
1103,-5.310140,8.422980,2.075227,-0.073610,0.011963,0.979385
1104,-8.117800,6.103609,2.502480,-0.095705,-0.010010,0.972305
1105,-6.347753,3.967346,2.441444,-0.070924,-0.001709,0.990494
1106,-5.554284,2.136263,2.197299,-0.088014,-0.002075,0.976699
1107,-6.103609,-0.671397,1.647974,-0.090211,0.011841,0.944472
1108,-7.751583,-4.211490,1.342794,-0.096803,-0.001221,0.954238
1109,-9.582666,-7.263294,1.342794,-0.077150,-0.011597,0.981827
1110,-7.385367,-8.667124,0.976577,-0.077760,-0.005615,0.963638
1111,-8.789197,-10.315099,1.098650,-0.070924,0.006714,0.939712
1112,-12.085145,-12.573434,1.342794,-0.109499,0.003906,0.929702
1113,-14.038300,-16.601816,1.098650,-0.098146,0.002930,0.949233
1114,-16.235599,-16.906996,-1.037613,0.045289,-0.041016,0.993912
1115,-11.413748,-16.540780,-0.854505,-0.127199,-0.000610,1.017838
1116,-17.395285,-22.766461,-0.244144,-0.043458,-0.030396,0.960220
1117,-12.939651,-19.775692,-3.418021,-0.009888,-0.074708,1.009415
1118,-10.681315,-22.644388,-2.563516,-0.093751,-0.001465,1.068986
1119,-19.104295,-25.818265,-1.159686,-0.006226,-0.064454,0.986343
1120,-11.352712,-21.911955,-1.709010,-0.010132,-0.026123,1.048722
1121,-15.991455,-18.738079,-0.305180,0.010132,-0.015259,1.047745
1122,-17.944610,-14.648661,0.671397,0.036255,-0.028809,1.058732
1123,-16.540780,-9.826810,1.037613,0.013672,-0.012085,1.018204
1124,-17.700465,-8.422980,1.770047,-0.012696,-0.004273,0.959609
1125,-23.376822,-9.826810,1.647974,-0.048707,-0.011475,0.938125
1126,-28.747997,-12.451362,2.258335,-0.041627,-0.005737,0.960830
1127,-31.616693,-14.709697,1.586938,-0.033082,-0.022705,0.983169
1128,-35.339895,-14.892805,2.868696,-0.009400,-0.062135,0.999649
1129,-37.415122,-13.733120,4.028382,0.007324,-0.096071,0.981582
1130,-37.170977,-12.207218,5.249104,-0.005615,-0.067750,1.014664
1131,-34.912642,-11.352712,4.028382,-0.033204,-0.059815,0.996109
1132,-34.180209,-12.695506,1.525902,-0.052613,-0.039551,0.960586
1133,-39.002060,-15.503166,0.000000,-0.028565,-0.008789,0.962539
1134,-51.209277,-17.517357,-1.159686,-0.007935,-0.056641,0.983780
1135,-48.828870,-18.677043,-2.990768,-0.036255,-0.086671,0.999893
1136,-41.382467,-18.310826,-6.042573,0.015869,-0.118654,0.968643
1137,-41.931792,-17.395285,-3.723201,0.033692,-0.120851,1.161639
1138,-40.344854,-13.305867,-3.845274,-0.034424,-0.128542,1.019791
1139,-33.142596,-10.009918,-4.333562,-0.029908,-0.124147,1.001846
1140,-44.312200,-10.193027,-5.371176,-0.012940,-0.083131,1.033829
1141,-65.125505,-11.169604,-17.639429,-0.271122,0.308110,1.614649
1142,-59.754330,-15.564202,-18.432898,-0.035889,-0.117800,1.208270
1143,-45.471885,-5.737392,-8.056764,0.138918,-0.242802,1.112566
1144,-34.790570,-2.197299,0.793469,0.010132,-0.136599,1.059709
1145,-47.058824,-4.333562,-6.958114,0.033204,-0.041016,0.976577
1146,-60.181582,-3.112840,-15.747311,0.011597,0.159426,0.906020
1147,-106.385901,-3.295949,-22.705425,0.028077,0.150881,0.887343
1148,-123.598077,2.502480,-14.404517,0.025025,0.278080,0.762097
1149,-161.379416,-7.080186,-36.316472,0.086061,0.358038,0.641123
1150,-237.674525,-19.226368,-51.697566,-0.168826,0.446296,1.347311
1151,-454.962997,-7.812619,-31.494621,0.222049,0.734752,1.311299
1152,-628.915847,-21.850919,7.812619,-0.255863,0.375372,1.796658
1153,-721.446555,-62.439918,14.099336,0.103151,-0.081666,1.371359
1154,-798.962387,-70.801862,26.123445,-0.091188,-0.193973,0.916640
1155,-914.869917,-90.516518,78.370336,0.305669,-2.000031,1.999969
1156,-730.235752,-43.823911,156.435492,-1.724514,-1.380026,1.999969
1157,109.254597,-60.914015,-11.352712,-0.864881,-0.159426,1.999969
1158,373.357748,-16.418708,23.743038,-1.083879,0.882338,1.999969
1159,166.689555,-1.037613,33.691920,-0.496590,0.636728,1.192157
1160,3.295949,-25.574121,112.794690,-0.468757,0.462898,0.014771
1161,-41.809720,-38.513771,116.212711,-0.108766,0.188968,0.153323
1162,52.552071,-6.836042,98.451209,0.061158,0.284672,0.209476
1163,58.655680,3.356985,77.882048,0.289555,0.422614,0.145266
1164,15.503166,5.920500,67.872129,0.365850,0.499641,0.604868
1165,43.518730,6.897078,48.462654,0.360235,0.495857,0.870253
1166,83.802548,-3.295949,29.053178,0.380377,0.613779,0.940322
1167,96.681163,-25.452049,15.075914,0.280400,0.602060,1.190814
1168,126.039521,-47.058824,2.380407,0.233524,0.547982,1.524681
1169,170.901045,-55.481804,-12.390326,0.198856,0.543709,1.717189
1170,207.156481,-52.857252,-26.977951,0.143801,0.432013,1.741482
1171,240.360113,-39.307240,-39.978637,0.053590,0.259403,1.583398
1172,270.878157,-24.048219,-50.171664,-0.038209,0.095094,1.249042
1173,284.245060,-15.686275,-54.383154,-0.106081,-0.023560,1.058122
1174,289.005875,-15.136950,-52.918288,-0.157717,-0.114992,1.077287
1175,298.832685,-20.019837,-50.293736,-0.154543,-0.150881,1.149187
1176,308.720531,-24.048219,-49.561303,-0.099123,-0.178225,1.176898
1177,312.077516,-20.202945,-52.429999,-0.024537,-0.216678,1.205829
1178,312.748913,-8.239872,-60.425727,0.072755,-0.333257,0.903700
1179,298.466468,14.770733,-73.609522,0.150637,-0.547616,0.392340
1180,263.736934,40.039673,-82.276646,0.174929,-0.458625,0.363409
1181,215.457389,43.945983,-90.211337,0.128908,-0.379278,0.932509
1182,199.282826,43.091478,-96.375982,0.028443,-0.322637,1.757107
1183,207.339590,52.491035,-100.343328,0.025025,-0.279911,1.999969
1184,228.824292,74.464027,-103.089952,-0.098146,-0.494270,1.999969
1185,269.718471,97.962921,-99.732967,-0.239628,-0.767712,1.999969
1186,277.897307,118.043793,-88.502327,-0.339971,-0.900404,1.644312
1187,242.862593,118.043793,-64.881361,-0.447517,-0.938491,1.865995
1188,230.655375,105.592432,-41.809720,-0.383185,-1.052873,1.999969
1189,247.257191,105.836576,-25.268940,-0.238529,-0.992935,1.999969
1190,253.482872,111.696040,-12.085145,-0.154665,-1.021988,1.999969
1191,270.511940,113.527123,-3.051804,0.081544,-1.093889,1.999969
1192,277.714199,112.428473,-0.854505,0.468757,-1.048600,1.644678
1193,255.802243,96.009766,-1.770047,0.577768,-1.069596,1.453391
1194,241.458763,71.961547,-7.263294,0.625864,-1.197894,1.419944
1195,232.181277,53.772793,-15.686275,0.472786,-1.379782,1.335714
1196,210.269322,42.847333,-17.944610,0.263676,-1.674830,1.151751
1197,181.582361,36.621653,-16.479744,0.243900,-2.000031,0.867079
1198,146.913863,35.523003,-15.564202,0.499641,-2.000031,0.569345
1199,102.235447,45.288777,-35.156786,0.864027,-2.000031,0.166995
1200,68.604562,65.125505,-58.167391,0.927504,-2.000031,-0.281376
1201,18.188754,53.040360,-59.266041,0.234012,-2.000031,-2.000031
1202,-135.072862,-112.245365,12.207218,0.074464,-2.000031,-1.385763
1203,-235.965515,-246.952010,59.571221,0.708141,-2.000031,-0.176150
1204,-111.268788,-169.741360,41.321431,0.802747,0.218387,1.999969
1205,-99.549859,-12.756542,24.658579,-0.097780,1.245747,1.999969
1206,-158.205539,-70.801862,40.039673,-0.063600,0.924208,-0.202518
1207,-287.541009,-121.034562,37.293050,0.376226,-0.299321,-0.084474
1208,-317.326619,-52.613108,45.777066,0.156985,-0.492927,1.274800
1209,-306.218051,-55.786984,55.481804,0.862196,-0.197024,1.999969
1210,-233.768215,1.770047,27.405203,0.956435,-0.506844,1.999969
1211,-126.771954,13.794156,18.677043,-0.814343,-0.006958,1.999969
1212,-165.529870,-37.476158,36.987869,-1.238544,-0.806287,1.580957
1213,-42.847333,-99.916075,35.645075,0.284062,0.068971,1.999969
1214,-58.716716,-87.098497,19.531548,1.616236,0.249516,1.999969
1215,-49.378195,-7.263294,0.732433,0.173709,-0.080934,1.388937
1216,-42.664225,-13.366903,0.549325,-0.772961,-0.108278,0.960586
1217,-40.650034,-46.997787,4.394598,0.330205,0.076417,1.304341
1218,-32.043946,-20.935378,-5.188067,0.365484,0.030640,1.246357
1219,-34.546426,-8.667124,-1.464866,-0.239261,-0.029664,1.207416
1220,-15.564202,-17.273213,-1.525902,0.072877,-0.009766,1.103532
1221,-13.794156,-8.545052,-1.403830,0.149783,0.007691,1.156756
1222,-11.413748,-1.159686,1.403830,-0.043458,-0.042603,1.109880
1223,-1.892119,-1.892119,1.220722,0.046143,0.005859,1.073869
1224,-0.488289,0.976577,1.892119,0.026368,-0.003662,1.056168
1225,2.685588,1.403830,2.441444,-0.014282,0.005005,1.034440
1226,5.371176,0.366217,2.319371,0.005982,0.026612,0.988418
1227,4.394598,0.366217,2.014191,0.007324,0.057252,0.981827
1228,0.183108,-0.793469,2.441444,-0.021851,0.031128,0.969009
1229,1.159686,-2.502480,1.464866,-0.050782,0.064576,0.893202
1230,-6.225681,-5.981537,1.831083,-0.042115,0.065797,0.899794
1231,-11.291676,-8.728161,2.502480,-0.026612,0.028931,0.967056
1232,-9.887846,-10.925460,2.380407,-0.051392,0.036011,0.979629
1233,-8.667124,-14.099336,2.014191,-0.035279,0.040406,0.955703
1234,-10.498207,-15.442130,3.234913,0.014771,0.032959,1.056657
1235,-10.193027,-14.587625,2.685588,0.009277,0.017212,1.048356
1236,-8.178836,-12.329290,1.525902,0.023682,0.019654,0.991714
1237,-6.775006,-10.131991,1.586938,0.019532,0.040528,0.985855
1238,-9.582666,-7.141222,-2.075227,0.029664,-0.176028,0.695201
1239,-12.817578,-9.033341,0.305180,0.016114,0.045533,1.054704
1240,-17.395285,-7.507439,1.770047,0.028931,0.010742,1.019425
1241,-14.343481,-5.188067,1.586938,0.027466,-0.013428,1.033585
1242,-11.718929,-3.418021,2.014191,0.022705,-0.009277,1.019303
1243,-10.681315,-3.051804,2.136263,0.012818,0.006226,0.995010
1244,-11.291676,-3.784237,1.709010,-0.000732,-0.041749,0.975113
1245,-8.972305,-4.211490,1.709010,0.022950,0.001587,1.011856
1246,-8.361944,-4.638743,1.342794,-0.005615,0.025635,0.958877
1247,-11.352712,-7.080186,-0.305180,-0.063233,0.066896,0.995499
1248,-15.320058,-9.399557,0.671397,0.002808,0.039918,0.926894
1249,-21.911955,-11.108568,1.342794,0.020630,0.016968,1.007218
1250,-23.071641,-10.193027,1.403830,0.040284,0.001587,1.023331
1251,-23.254749,-9.094377,1.709010,0.040406,-0.029786,1.010025
1252,-22.400244,-7.751583,2.258335,0.046021,-0.020996,1.014908
1253,-23.498894,-6.164645,3.051804,0.035401,-0.032593,1.039567
1254,-20.874342,-3.845274,3.356985,0.043580,-0.032593,1.007584
1255,-20.630198,-2.319371,3.112840,0.044068,-0.043336,1.007462
1256,-20.935378,-1.159686,3.662165,0.041382,-0.051637,1.004410
1257,-21.179522,-0.061036,4.028382,0.037476,-0.032837,0.992935
1258,-23.254749,0.122072,4.028382,0.039673,-0.028077,0.982437
1259,-26.855879,0.488289,3.540093,0.008667,-0.030518,0.993668
1260,-27.100023,-0.183108,3.112840,0.009400,-0.039307,1.000381
1261,-28.931106,-0.549325,2.746624,0.016480,-0.051026,0.983658
1262,-28.747997,-1.892119,2.258335,-0.009766,-0.028077,0.962661
1263,-31.311513,-3.601129,2.441444,0.008545,-0.033082,0.958511
1264,-34.851606,-4.333562,2.990768,0.013794,-0.060670,0.981827
1265,-35.523003,-4.333562,3.601129,0.021363,-0.048951,1.050431
1266,-31.067369,-2.624552,3.723201,0.059205,-0.036744,0.960464
1267,-40.222782,-2.319371,3.601129,-0.024048,-0.034424,0.933608
1268,-46.509499,-5.554284,3.906310,0.088624,-0.033814,1.121843
1269,-41.687648,-1.709010,1.709010,-0.007568,-0.067018,1.033585
1270,-44.373236,-2.380407,-2.197299,0.028077,-0.078492,1.008560
1271,-49.317159,-2.380407,-3.723201,-0.031006,-0.071290,0.992203
1272,-45.044633,-2.990768,-5.554284,-0.015381,-0.110231,1.001358
1273,-35.950256,2.990768,-10.437171,0.007324,-0.091188,0.958999
1274,-38.513771,-2.380407,-16.174563,-0.042847,-0.023560,1.071427
1275,-67.322805,-4.333562,-33.752956,0.014160,-0.249882,1.112078
1276,-61.829557,-4.333562,-18.921187,0.132692,-0.286625,1.087663
1277,-48.523690,-0.183108,-11.535821,0.138186,-0.120607,1.061295
1278,-48.767834,5.188067,-13.855192,0.060060,0.185306,0.901869
1279,-98.268101,8.667124,-30.273899,0.113649,0.301884,0.928481
1280,-145.510033,21.179522,-18.005646,0.106569,0.230716,0.710704
1281,-183.108263,17.456321,-14.770733,-0.239261,0.288823,0.771008
1282,-233.035782,-14.587625,-17.334249,-0.027955,0.668345,0.688487
1283,-425.055314,-17.273213,-22.278172,0.135622,0.670176,1.433494
1284,-605.722133,-75.989929,31.982910,-0.608652,0.198489,1.999969
1285,-701.976043,-146.791791,44.434272,-0.101198,-0.259159,1.091936
1286,-770.519570,-151.674678,55.725948,0.138308,-0.171023,1.052628
1287,-878.553445,-139.955749,96.437018,0.661387,-2.000031,1.999969
1288,-788.586252,-79.346914,184.939345,-1.092912,-1.060929,1.999969
1289,52.979324,-55.420768,4.699779,-0.346685,-0.350958,1.999969
1290,319.890135,15.014878,15.564202,-0.647837,0.905043,1.999969
1291,135.866331,24.841688,16.906996,-0.306523,0.865370,1.695216
1292,-3.601129,-18.005646,80.689708,-0.354986,0.562142,0.567391
1293,10.131991,-34.485389,81.361105,0.078126,0.062623,0.162356
1294,98.084993,-12.329290,54.505226,0.214237,0.369879,0.056153
1295,64.148928,-8.056764,36.743725,0.365362,0.544564,0.042359
1296,28.442817,4.211490,22.156100,0.409064,0.452644,0.423590
1297,63.599603,13.183795,-3.479057,0.336309,0.473884,0.657359
1298,81.971466,5.493248,-19.653620,0.177737,0.520150,0.820081
1299,92.225528,-12.207218,-26.733806,0.060792,0.433845,1.079118
1300,129.579614,-22.095064,-32.776379,-0.022705,0.404303,1.234028
1301,161.013199,-24.719615,-35.950256,-0.098878,0.350958,1.305318
1302,184.267948,-20.386053,-36.865797,-0.176516,0.238529,1.344747
1303,211.673152,-10.070954,-36.133364,-0.252811,0.116823,1.307881
1304,233.096819,0.000000,-31.677729,-0.338628,-0.018921,1.192401
1305,246.646830,5.920500,-23.254749,-0.374273,-0.125856,1.146868
1306,257.145037,9.521630,-13.183795,-0.368780,-0.207279,1.224018
1307,268.375677,9.277485,-3.295949,-0.324590,-0.254765,1.262104
1308,281.925689,11.718929,3.418021,-0.225345,-0.262089,1.304463
1309,287.113756,15.564202,6.713970,-0.088624,-0.292241,1.299580
1310,292.057679,22.766461,4.333562,0.030152,-0.352422,1.190936
1311,288.639658,29.846647,-1.403830,0.092775,-0.438483,1.020157
1312,274.601358,36.987869,-8.667124,0.190311,-0.551156,0.894057
1313,255.985351,47.364004,-17.700465,0.223514,-0.536995,0.974258
1314,235.111009,52.796216,-27.344167,0.240482,-0.492683,1.087419
1315,216.861219,56.153201,-38.513771,0.208621,-0.488655,1.452903
1316,199.038682,61.524376,-43.213550,0.148440,-0.490242,1.953155
1317,200.503548,62.195773,-45.349813,0.117067,-0.576913,1.999969
1318,225.833524,58.350500,-48.584726,0.149172,-0.686778,1.999969
1319,244.327459,55.664912,-55.664912,0.208133,-0.749279,1.940459
1320,235.843442,57.495995,-62.806134,0.185794,-0.781994,1.849638
1321,225.528344,59.571221,-68.665599,0.118044,-0.816907,1.999969
1322,233.707179,60.975052,-74.158846,0.123781,-0.834730,1.999969
1323,244.266423,67.750057,-79.957275,0.228275,-0.839734,1.803738
1324,238.773175,75.379568,-84.351873,0.275639,-0.831312,1.535180
1325,228.580148,77.698940,-87.342641,0.323980,-0.844862,1.386374
1326,216.128786,77.332723,-86.243992,0.275761,-0.846082,1.385153
1327,205.020218,69.825284,-79.285878,0.186282,-0.912612,1.422385
1328,201.358053,60.486763,-67.322805,0.093019,-1.016617,1.338277
1329,195.010300,50.354772,-51.697566,0.038209,-1.138323,1.140520
1330,179.324025,41.199359,-35.400931,0.034424,-1.317769,0.929213
1331,158.022431,35.706111,-20.508125,0.034668,-1.569116,0.835584
1332,125.673304,37.537194,-7.141222,0.113283,-1.896025,0.787854
1333,94.605936,44.678416,3.784237,0.168704,-2.000031,0.652354
1334,76.478218,55.725948,14.160372,0.298711,-2.000031,0.224369
1335,48.218509,58.716716,21.850919,0.288457,-2.000031,-0.093874
1336,-15.381094,39.551385,40.161746,0.014649,-2.000031,-2.000031
1337,-168.825818,-102.052338,89.662013,0.379034,-2.000031,-1.398337
1338,-248.477913,-164.370184,86.549172,1.091569,-1.211933,0.711559
1339,-97.962921,-68.482490,33.325704,0.476448,0.577646,1.999969
1340,-124.391547,-54.200046,30.640116,-0.065675,1.462547,1.991852
1341,-239.871824,-108.033875,45.593957,0.156130,0.423590,0.455573
1342,-273.441672,-101.258869,40.588998,0.223514,-0.537484,0.234134
1343,-265.079728,-70.862898,41.687648,0.530159,-0.184695,1.354025
1344,-284.000916,-55.970092,36.194400,1.001846,-0.130495,1.999969
1345,-204.654002,4.516670,19.348440,0.134279,-0.452522,1.999969
1346,-181.216144,-53.101396,25.024796,-0.660044,-0.781384,1.999969
1347,-77.698940,-58.594644,20.386053,-0.036866,-0.409918,1.999969
1348,-17.273213,-54.749371,6.897078,0.985245,0.062867,1.852934
1349,5.371176,0.061036,2.502480,0.246220,0.284550,0.949844
1350,-48.828870,-5.371176,6.591897,-0.353155,0.056641,0.914321
1351,-46.631571,-26.062409,6.591897,0.090333,0.057008,1.150652
1352,-22.583352,-16.845960,-2.807660,0.202029,0.102052,1.134661
1353,-36.072328,-11.535821,0.122072,-0.088991,-0.049195,1.222675
1354,-8.422980,-13.611048,-3.112840,0.015259,-0.002564,1.124041
1355,-6.408789,-10.681315,-3.662165,0.075074,0.052979,1.010880
1356,-14.892805,-7.141222,0.671397,0.013062,-0.016358,1.086198
1357,-4.455634,-5.859464,2.685588,0.021241,0.001953,1.080583
1358,-2.258335,-3.967346,3.540093,0.014771,0.052979,0.991836
1359,-5.371176,-3.356985,4.272526,0.008545,0.036988,1.021256
1360,-4.394598,-2.807660,4.028382,-0.001221,0.052857,0.986831
1361,-6.408789,-3.356985,3.662165,-0.001343,0.032959,0.968521
1362,-8.545052,-3.845274,3.418021,0.009033,0.056275,0.958755
1363,-11.291676,-4.577707,2.990768,-0.008667,0.061524,0.968887
1364,-15.930419,-6.225681,2.685588,-0.005127,0.045045,0.994156
1365,-15.808347,-7.751583,2.319371,-0.002564,0.011841,0.997208
1366,-13.977264,-8.606088,1.892119,-0.002808,0.015869,0.957290
1367,-17.700465,-9.704738,2.563516,-0.076783,0.155398,1.229511
1368,-13.183795,-11.963073,3.479057,0.023804,0.073365,0.915663
1369,-18.921187,-12.756542,1.647974,-0.026856,-0.019654,0.978653
1370,-15.442130,-12.756542,0.915541,0.031617,-0.005127,1.054582
1371,-13.244831,-10.742351,0.671397,0.003540,0.009644,0.991958
1372,-13.977264,-10.193027,1.098650,-0.001221,0.018311,0.997330
1373,-15.991455,-9.948882,1.342794,0.008911,0.016480,1.012222
1374,-15.197986,-7.568475,-1.281758,-0.016358,-0.132448,0.964370
1375,-16.601816,-7.263294,1.098650,0.033692,0.008667,1.046647
1376,-16.968032,-5.859464,1.831083,0.014893,-0.010010,1.024063
1377,-14.343481,-5.493248,1.342794,0.014282,0.004395,0.967422
1378,-16.723888,-6.347753,1.037613,0.002930,0.001099,0.969863
1379,-17.334249,-7.812619,0.732433,0.015259,-0.001709,0.989639
1380,-18.005646,-8.667124,0.427253,0.017823,-0.008911,1.011734
1381,-19.165332,-8.789197,0.366217,0.041749,-0.023560,1.004898
1382,-17.639429,-7.080186,0.732433,0.051148,-0.036988,1.028824
1383,-17.395285,-5.249104,1.220722,0.055543,-0.042847,1.030533
1384,-16.235599,-2.868696,1.342794,0.030030,-0.037842,1.028214
1385,-15.075914,-1.709010,1.403830,0.052613,-0.022095,1.007706
1386,-16.418708,-0.244144,1.647974,0.023438,-0.038819,0.999039
1387,-16.784924,-0.061036,2.197299,0.031739,-0.020752,0.994766
1388,-19.165332,0.244144,2.441444,0.014160,-0.012573,0.950698
1389,-22.644388,-0.793469,2.563516,0.022950,-0.025879,0.976211
1390,-23.071641,-0.488289,2.502480,0.036744,-0.032959,1.009171
1391,-23.132677,0.915541,2.441444,0.044434,-0.051148,0.998672
1392,-25.146868,1.281758,2.380407,0.015137,-0.068971,1.017472
1393,-22.217136,0.427253,1.770047,0.016724,-0.063355,1.003555
1394,-23.865110,-0.793469,1.342794,0.016236,-0.058839,1.015640
1395,-23.132677,-1.037613,0.366217,0.020264,-0.057496,1.015274
1396,-23.498894,-1.220722,-0.244144,0.032837,-0.052247,1.012955
1397,-24.841688,-0.061036,0.000000,0.025757,-0.053468,0.984390
1398,-24.109255,0.793469,1.342794,0.020874,-0.028443,0.916762
1399,-35.889220,0.976577,6.042573,0.017456,-0.053956,0.964248
1400,-38.513771,2.075227,9.399557,0.068971,-0.091188,1.093889
1401,-33.569848,5.371176,9.521630,-0.046143,-0.105837,1.066056
1402,-33.997101,7.446403,10.193027,0.021973,-0.066285,0.967666
1403,-40.833143,7.446403,9.521630,-0.016602,-0.066163,1.019791
1404,-37.659266,6.530861,7.629511,-0.020264,-0.061769,0.996475
1405,-31.067369,7.629511,3.906310,-0.053346,-0.090089,1.031876
1406,-25.574121,5.859464,2.014191,-0.086427,0.035279,1.091691
1407,-39.490349,-0.305180,-14.038300,-0.088746,-0.053223,0.948745
1408,-58.838788,-9.094377,-31.311513,-0.013794,-0.066285,0.972549
1409,-76.600290,-6.347753,-24.902724,0.099001,-0.344488,1.082780
1410,-63.233387,0.000000,-3.845274,0.111452,-0.243656,1.159319
1411,-40.222782,-0.061036,-14.282444,0.020996,-0.118532,1.003311
1412,-45.777066,-0.061036,-23.987182,0.069215,0.175540,0.979141
1413,-89.967193,3.356985,-28.015564,0.148318,0.444587,0.866712
1414,-152.224002,12.207218,-26.489662,-0.052003,0.424567,0.538582
1415,-216.556039,3.845274,-17.395285,-0.103761,0.422492,0.668711
1416,-307.438773,-13.427939,-6.591897,0.018189,1.228046,1.294942
1417,-557.503624,-32.959487,10.498207,-0.116823,0.465339,1.254414
1418,-740.062562,-87.403677,95.643549,-0.469490,0.041627,1.480858
1419,-824.048219,-132.631418,118.654154,0.282841,0.024903,1.704494
1420,-883.375296,-170.412757,104.066529,1.098528,-2.000031,1.999969
1421,-742.931258,-95.582513,100.099184,-0.098756,-1.445335,1.999969
1422,202.212558,6.836042,-74.647135,0.111086,0.458747,1.999969
1423,465.522240,43.884947,-105.958648,-0.364630,0.924086,1.400290
1424,154.970626,35.950256,-119.630732,-0.569955,1.263569,0.371588
1425,-44.007019,-20.813306,-16.906996,-0.524666,0.317998,-0.280156
1426,-91.126879,-55.237659,2.075227,-0.359747,0.311528,0.443488
1427,24.414435,-32.349126,-12.512398,-0.389532,0.239506,0.734997
1428,74.158846,-22.827497,-20.263981,-0.264530,0.505867,0.612436
1429,39.551385,-14.648661,-13.550011,-0.274540,0.471443,0.767712
1430,61.036088,-4.516670,-12.390326,-0.290776,0.377569,0.922255
1431,103.700313,2.685588,-12.085145,-0.359258,0.420172,0.878553
1432,110.780499,-2.868696,-3.784237,-0.393683,0.379034,0.905531
1433,130.800336,-5.127031,4.272526,-0.353277,0.317632,1.030900
1434,159.304189,-1.525902,9.704738,-0.305425,0.299199,1.061784
1435,176.577401,6.042573,14.282444,-0.260746,0.250736,1.082292
1436,192.751965,17.090105,17.395285,-0.233768,0.169070,1.126116
1437,211.184863,27.344167,20.386053,-0.196292,0.083253,1.080705
1438,227.237354,32.654307,22.888533,-0.108278,0.015991,0.974380
1439,237.796597,33.630884,23.498894,-0.021607,-0.005493,0.975235
1440,243.961242,32.837415,22.095064,0.068116,-0.013306,1.148577
1441,253.299763,32.654307,18.188754,0.141726,-0.033570,1.281880
1442,265.690089,32.776379,11.047532,0.203128,-0.112428,1.291279
1443,274.845502,32.654307,2.319371,0.221439,-0.268559,1.020279
1444,269.657435,35.034714,-6.530861,0.276738,-0.354864,0.785412
1445,248.661021,38.452735,-16.723888,0.307988,-0.371099,0.747082
1446,225.589380,40.039673,-27.588312,0.326177,-0.274052,0.951064
1447,206.424048,44.190127,-39.673457,0.345586,-0.158083,1.356588
1448,194.827192,47.119860,-50.965133,0.341924,-0.124636,1.999969
1449,196.292058,53.345541,-60.791943,0.279545,-0.260136,1.999969
1450,232.303349,52.979324,-71.961547,0.170779,-0.465217,1.999969
1451,256.900893,53.955901,-79.713130,0.073610,-0.601328,1.858915
1452,237.186236,54.200046,-79.896239,-0.006714,-0.678477,1.802274
1453,223.941405,50.537881,-77.332723,-0.069459,-0.744640,1.999969
1454,234.622721,49.866484,-74.769207,-0.114992,-0.741222,1.999969
1455,253.360800,56.275273,-71.412222,-0.151614,-0.791394,1.999969
1456,264.957656,66.407263,-66.529335,-0.149172,-0.830579,1.859648
1457,257.999542,75.318532,-59.021897,-0.127077,-0.847425,1.557763
1458,242.435340,80.689708,-51.087205,-0.082277,-0.846937,1.480980
1459,228.641184,85.084306,-44.373236,0.002319,-0.848157,1.518578
1460,217.288472,91.676204,-39.002060,0.109133,-0.865492,1.571923
1461,207.949950,97.535668,-33.813993,0.168093,-0.979385,1.494041
1462,192.507820,96.742199,-26.367590,0.108156,-1.282246,1.320577
1463,170.901045,93.934539,-12.390326,0.058473,-1.750027,1.100847
1464,144.960708,94.605936,10.620279,0.133425,-2.000031,0.918471
1465,106.385901,98.878462,28.198672,0.373663,-2.000031,0.454475
1466,86.610208,108.644236,14.770733,0.506355,-2.000031,-0.089235
1467,64.820325,99.122606,15.320058,0.488899,-2.000031,-0.699474
1468,-14.709697,35.156786,37.964446,0.036988,-2.000031,-1.156023
1469,-150.881209,-110.353246,72.022583,0.475105,-1.803861,-1.333028
1470,-271.122301,-217.959869,81.300069,1.120378,-1.649561,0.100832
1471,-169.558251,-134.706645,53.406577,0.510750,-0.057862,1.999969
1472,-117.128252,-73.853666,33.264668,-0.205570,1.052750,1.999969
1473,-173.769741,-78.736553,50.232700,-0.082521,0.911513,0.778210
1474,-283.207446,-92.103456,54.322118,0.416510,-0.180545,-0.113893
1475,-295.048447,-64.820325,56.214237,0.679332,-0.348760,1.168841
1476,-296.696422,-45.716030,50.232700,1.144060,-0.119875,1.999969
1477,-238.284886,8.422980,26.245518,0.985245,-0.147951,1.999969
1478,-159.182116,58.777752,-1.831083,-0.276127,0.114992,1.999969
1479,-171.267262,26.001373,19.348440,-1.700710,-0.176150,1.999969
1480,-139.406424,-54.261082,45.960174,-1.202045,-0.926894,1.574243
1481,-8.484016,-101.747158,33.020523,1.048478,0.369879,1.999969
1482,-56.031128,-53.772793,18.371862,1.865995,0.122194,1.999969
1483,-31.921874,26.794842,2.441444,-0.574960,-0.035523,1.028580
1484,-34.790570,-17.883574,8.850233,-0.770031,-0.105959,0.765270
1485,-37.048905,-43.396658,9.521630,0.691661,0.135378,1.446433
1486,-27.588312,-6.286717,-2.868696,0.114504,0.017945,1.164691
1487,-32.471199,-8.911269,2.441444,-0.390387,-0.064820,1.110369
1488,-17.273213,-21.179522,0.671397,0.196780,-0.004517,1.173846
1489,-11.413748,-5.859464,0.183108,0.059205,0.020630,1.081682
1490,-12.268254,-4.821851,2.990768,-0.129641,0.010254,0.988418
1491,-9.521630,-8.178836,1.892119,0.068360,0.056397,1.029068
1492,-11.902037,-3.173877,2.380407,-0.010132,0.035889,1.026505
1493,-11.841001,-2.868696,2.685588,-0.028443,0.015625,1.025650
1494,-9.582666,-1.770047,1.892119,0.020874,0.018555,1.040177
1495,-9.765774,0.427253,2.319371,-0.017456,0.024659,0.996841
1496,-10.193027,0.061036,2.258335,-0.015747,0.029664,0.989883
1497,-11.291676,-0.915541,2.380407,-0.037476,0.026490,0.964858
1498,-12.756542,-2.868696,2.197299,-0.040650,0.021607,0.987198
1499,-13.550011,-4.455634,2.014191,-0.047608,0.023316,0.987320
1500,-12.939651,-6.103609,1.525902,-0.061402,0.021363,0.960342
1501,-14.892805,-6.347753,-0.915541,0.034180,0.021363,0.985855
1502,-10.376135,-7.263294,-0.610361,-0.020874,0.008911,0.958389
1503,-18.432898,-10.437171,1.159686,-0.016724,-0.010376,0.952285
1504,-14.831769,-9.338521,0.366217,-0.001221,0.010742,1.009781
1505,-16.479744,-8.422980,0.671397,-0.023926,0.008667,1.002823
1506,-17.639429,-7.080186,1.342794,-0.042359,0.018067,1.135271
1507,-9.460594,-6.225681,2.685588,0.041993,0.065553,0.918349
1508,-14.831769,-2.929732,2.380407,0.025025,-0.021851,0.993423
1509,-12.390326,-0.244144,2.319371,-0.013916,-0.011231,1.078264
1510,-10.315099,0.305180,2.075227,-0.014038,-0.002686,0.994888
1511,-12.512398,0.000000,2.502480,-0.011353,-0.014649,0.978286
1512,-11.718929,-1.098650,2.136263,-0.040650,-0.006592,0.987198
1513,-13.611048,-3.173877,2.136263,-0.024292,-0.038575,0.997940
1514,-10.803388,-4.272526,1.525902,-0.037476,-0.023682,1.002945
1515,-10.437171,-6.591897,0.671397,-0.045899,-0.016968,1.005631
1516,-6.836042,-10.254063,0.488289,0.048707,0.079347,0.876967
1517,-9.399557,-7.934691,-0.183108,-0.022339,-0.022827,0.978897
1518,-9.277485,-8.667124,-0.427253,-0.007446,-0.023682,1.039078
1519,-8.117800,-8.300908,-0.549325,0.000244,-0.019409,1.000137
1520,-9.094377,-8.361944,0.000000,0.010498,-0.023438,1.000992
1521,-8.300908,-7.446403,0.000000,-0.025879,-0.028809,0.986831
1522,-7.812619,-7.873655,0.488289,0.017090,-0.052979,1.006485
1523,-8.667124,-5.310140,0.854505,0.002319,-0.000732,1.136980
1524,-4.821851,-3.112840,1.647974,-0.015747,-0.003296,1.101335
1525,-10.986496,-3.845274,2.502480,-0.002686,-0.026246,0.945327
1526,-14.404517,-3.723201,2.746624,0.000488,-0.014649,0.971817
1527,-16.601816,-3.418021,2.319371,-0.011109,-0.024414,0.972793
1528,-20.080873,-4.821851,2.685588,-0.022095,-0.019776,0.994400
1529,-20.996414,-5.920500,2.136263,-0.011719,-0.035645,0.981338
1530,-23.193713,-6.897078,2.014191,-0.008179,-0.042969,0.966812
1531,-24.475471,-7.751583,1.464866,-0.019654,-0.028199,1.003311
1532,-27.527276,-8.239872,1.709010,0.003296,-0.068238,1.023209
1533,-24.719615,-6.469825,2.014191,0.023926,-0.064210,1.027604
1534,-24.231327,-4.882887,2.014191,0.014527,-0.048341,1.006241
1535,-25.574121,-2.685588,3.234913,0.036255,-0.042237,1.015763
1536,-30.762188,-2.075227,4.028382,0.017700,-0.063111,1.006485
1537,-26.367590,-2.868696,2.258335,-0.037842,-0.036133,0.953750
1538,-32.288090,-4.028382,2.136263,0.010010,-0.032471,0.958145
1539,-37.048905,-5.676356,0.244144,-0.041871,-0.041138,0.950332
1540,-39.551385,-7.751583,-0.671397,-0.006348,-0.052979,1.005997
1541,-39.673457,-7.873655,0.671397,-0.047852,-0.044923,1.003311
1542,-35.156786,-5.127031,1.342794,0.034180,0.012818,1.061540
1543,-54.322118,-5.737392,-9.033341,-0.072633,-0.058839,1.031998
1544,-40.894179,1.159686,-17.456321,0.066896,-0.366705,0.750744
1545,-64.942397,-7.385367,-19.165332,0.087770,-0.289677,0.994888
1546,-56.641489,0.000000,-5.493248,0.093141,-0.195315,1.075212
1547,-49.622339,0.427253,-3.662165,0.019165,-0.127565,0.985977
1548,-56.702525,-3.051804,-11.902037,0.055421,-0.010986,0.999771
1549,-71.412222,-0.671397,-18.799115,-0.011963,0.200443,0.806409
1550,-116.212711,-5.432212,-24.902724,0.044923,0.231083,0.954482
1551,-145.387961,2.502480,-11.718929,-0.016236,0.504280,0.833753
1552,-206.118868,-4.943923,-34.912642,0.059327,0.252201,0.790051
1553,-293.339437,-11.413748,-34.668498,-0.002441,0.887221,0.836927
1554,-511.726558,-22.888533,-13.244831,-0.174441,0.404059,1.306783
1555,-660.166323,-62.623026,32.410163,-0.409308,-0.079957,1.073503
1556,-732.616159,-104.798962,51.819638,-0.033936,-0.355596,1.490867
1557,-753.368429,-132.082094,54.139010,-0.105715,-0.309331,0.700816
1558,-896.253910,-187.197681,91.676204,0.647349,-2.000031,1.999969
1559,-666.819257,-129.701686,142.763409,-0.879408,-1.292500,1.999969
1560,61.524376,-85.084306,-29.602502,-0.206912,0.068849,1.999969
1561,323.002976,0.305180,-18.249790,-0.442023,1.009415,1.999969
1562,165.346761,40.588998,-33.203632,-0.325566,0.805798,1.659327
1563,41.138323,21.179522,27.222095,-0.509285,0.573007,0.453864
1564,42.542153,14.770733,30.212863,-0.234623,0.091188,0.220218
1565,110.780499,27.161059,24.597543,-0.172000,0.191775,0.003174
1566,86.915389,15.320058,26.367590,-0.029908,0.347295,0.058106
1567,66.102083,7.141222,25.818265,0.074830,0.286259,0.403693
1568,98.146029,4.760815,15.686275,0.140749,0.380865,0.587289
1569,113.344015,-0.610361,5.249104,0.156497,0.455940,0.701915
1570,120.424201,-6.836042,-3.234913,0.115480,0.405280,0.916396
1571,145.632105,-7.141222,-12.451362,0.108278,0.392340,1.087663
1572,169.375143,-4.577707,-20.874342,0.064942,0.352056,1.220356
1573,189.028763,-0.915541,-25.757229,-0.025147,0.249760,1.337667
1574,213.443198,3.112840,-27.283131,-0.139651,0.130129,1.445823
1575,238.712139,8.178836,-24.963760,-0.203983,0.008301,1.466209
1576,263.126574,15.075914,-19.348440,-0.255253,-0.096193,1.469383
1577,283.024338,20.508125,-11.596857,-0.250126,-0.163455,1.482567
1578,300.968948,25.452049,-4.272526,-0.176150,-0.224613,1.479149
1579,315.495537,28.198672,-0.183108,-0.056275,-0.278569,1.434958
1580,324.956130,27.100023,0.000000,0.101076,-0.364874,1.239765
1581,325.200275,33.447776,-9.277485,0.303349,-0.552255,0.718517
1582,299.870298,56.641489,-26.367590,0.473640,-0.670054,0.341192
1583,256.839857,77.576867,-41.748684,0.446418,-0.577768,0.442512
1584,211.062791,67.261769,-52.918288,0.370001,-0.481575,0.886122
1585,201.602197,45.532921,-64.881361,0.299931,-0.369390,1.647974
1586,198.245212,41.565576,-73.121233,0.196780,-0.348760,1.999969
1587,209.353780,55.481804,-79.835203,0.087770,-0.548714,1.999969
1588,242.313268,78.919661,-83.619440,-0.001953,-0.764782,1.999969
1589,253.665980,97.230488,-80.445563,-0.118288,-0.860609,1.999969
1590,237.491417,92.774853,-66.529335,-0.194827,-0.882704,1.999969
1591,242.923629,79.957275,-52.857252,-0.113649,-0.933120,1.999969
1592,280.155642,80.933852,-45.471885,0.137453,-0.985977,1.999969
1593,294.926375,97.108415,-45.654994,0.440803,-0.948135,1.592554
1594,264.835584,100.709545,-46.387427,0.599252,-0.899062,1.360983
1595,243.595026,87.708858,-49.134051,0.594980,-0.940810,1.458885
1596,238.956283,69.764248,-50.659953,0.427619,-1.019913,1.448631
1597,226.871138,54.200046,-48.035401,0.165896,-1.187884,1.307393
1598,206.301976,48.035401,-41.748684,-0.084962,-1.447410,1.113664
1599,179.262989,54.261082,-32.837415,-0.133791,-1.867948,1.060319
1600,149.172198,69.581140,-21.545739,0.053834,-2.000031,0.971572
1601,116.639963,91.920348,-15.808347,0.234012,-2.000031,0.629892
1602,103.212024,125.062943,-20.202945,0.222416,-2.000031,-0.096803
1603,66.712444,130.128939,-2.197299,-0.245243,-2.000031,-2.000031
1604,-86.121920,-18.982223,59.510185,-0.026734,-2.000031,-1.996490
1605,-218.326085,-164.003967,97.047379,0.793591,-1.869535,-0.450080
1606,-200.381476,-179.995422,65.308614,1.245624,-0.930434,1.213642
1607,-105.714504,-121.095598,21.606775,0.207889,0.594125,1.999969
1608,-106.446937,-125.123980,15.869383,-0.461677,1.025162,1.999969
1609,-187.380789,-105.043107,47.669184,-0.514412,0.457771,0.293584
1610,-262.027924,-107.606622,61.463340,0.002197,-0.418952,-0.228031
1611,-273.197528,-96.437018,67.689021,0.419074,-0.301030,1.250507
1612,-275.455863,-88.197147,63.233387,1.228534,-0.108644,1.999969
1613,-204.837110,-44.129091,28.381781,1.322774,-0.251469,1.999969
1614,-133.180743,-0.427253,-1.342794,0.028199,-0.164553,1.337911
1615,-190.493629,-55.725948,27.832456,-1.275776,-0.532845,1.999969
1616,-104.310674,-100.465400,39.368276,-0.128298,-0.396979,1.999969
1617,-33.508812,-91.615167,12.878614,1.531762,0.187869,1.999969
1618,-50.232700,-11.413748,6.836042,0.453620,0.172000,1.525292
1619,-62.500954,-0.549325,4.455634,-0.599008,-0.078981,0.994766
1620,-55.725948,-31.128405,10.864424,0.024292,0.031739,1.227924
1621,-35.828183,-21.362631,0.915541,0.305669,-0.025391,1.294209
1622,-32.654307,-12.207218,0.732433,-0.132570,-0.055421,1.079240
1623,-23.987182,-20.752270,-0.244144,0.001221,-0.041993,1.089250
1624,-10.864424,-18.005646,-2.685588,0.108156,0.081056,0.992691
1625,-30.823224,-12.146181,-1.709010,0.054688,-0.031739,1.041032
1626,-24.109255,-8.728161,0.000000,0.035401,-0.081056,1.120623
1627,-13.794156,-3.784237,0.732433,0.087160,-0.018921,1.058732
1628,-18.127718,-0.244144,2.136263,0.010254,-0.025757,1.019791
1629,-15.869383,-0.305180,2.014191,0.019776,-0.035889,1.062150
1630,-10.925460,0.122072,1.403830,0.034302,-0.022950,1.016739
1631,-10.864424,0.427253,1.647974,0.018189,-0.017456,1.002579
1632,-11.413748,0.305180,1.342794,0.022827,-0.007568,0.994156
1633,-12.329290,0.488289,1.464866,0.016846,-0.004761,0.976577
1634,-15.442130,0.610361,1.342794,-0.023682,-0.002930,0.975723
1635,-16.601816,-2.685588,2.319371,0.035645,0.041505,0.985122
1636,-16.296635,-1.892119,1.403830,0.008545,-0.062379,0.975235
1637,-15.014878,-2.136263,1.098650,0.018067,-0.050904,1.026383
1638,-13.061723,-2.014191,1.037613,0.014649,-0.029541,1.002945
1639,-14.343481,-2.258335,0.915541,0.026490,-0.044190,1.013687
1640,-13.122759,-1.464866,0.976577,0.026001,-0.052735,1.030411
1641,-11.108568,-0.244144,0.915541,0.036744,-0.040406,1.012955
1642,-12.268254,0.610361,1.159686,0.023682,-0.046387,1.018326
1643,-10.254063,1.159686,0.915541,0.012940,-0.039796,0.987442
1644,-12.085145,0.671397,0.854505,0.009888,-0.044068,0.987320
1645,-12.085145,0.488289,0.915541,0.013184,-0.051759,1.001724
1646,-12.024109,0.305180,0.732433,0.004273,-0.055543,0.998428
1647,-11.535821,0.000000,0.793469,0.017212,-0.069459,1.000381
1648,-10.376135,0.061036,0.793469,0.016846,-0.067384,1.010391
1649,-9.643702,-0.183108,0.915541,0.010742,-0.064576,1.026993
1650,-6.897078,-0.610361,0.549325,0.016236,-0.078004,1.048356
1651,-3.112840,-0.061036,0.000000,0.025635,-0.095705,1.009415
1652,0.671397,-0.427253,-0.183108,0.005371,-0.062623,0.988418
1653,-0.061036,-1.647974,0.000000,-0.014893,-0.043946,0.958511
1654,-2.807660,-3.723201,0.000000,-0.005615,-0.050172,0.971450
1655,-2.990768,-4.760815,-0.183108,0.008789,-0.047486,0.989273
1656,-5.004959,-4.882887,-0.122072,0.031739,-0.059815,1.017838
1657,-4.394598,-3.479057,0.183108,0.032715,-0.065064,1.021012
1658,-4.455634,-2.197299,0.732433,0.033204,-0.062867,1.012467
1659,-4.333562,-1.281758,1.098650,0.027588,-0.069581,1.013321
1660,-3.784237,-0.244144,1.220722,0.021851,-0.073121,1.030289
1661,-2.014191,0.366217,1.342794,0.023804,-0.066773,1.015152
1662,-2.868696,0.793469,1.403830,0.014771,-0.066163,1.009537
1663,-2.685588,0.732433,1.525902,0.012818,-0.060548,0.986343
1664,-2.868696,0.305180,1.342794,0.003784,-0.025635,0.951186
1665,-9.948882,-0.915541,1.342794,0.018921,-0.045655,0.982559
1666,-11.169604,-1.037613,1.159686,0.017578,-0.057984,1.008316
1667,-10.925460,-0.793469,0.793469,0.014405,-0.065187,0.994766
1668,-12.878614,-0.488289,1.342794,0.022339,-0.071901,1.005631
1669,-11.779965,0.122072,1.831083,0.018677,-0.073487,1.007462
1670,-11.169604,0.183108,2.014191,0.019532,-0.071046,1.010269
1671,-10.986496,0.488289,1.831083,0.017700,-0.081300,1.025650
1672,-9.643702,0.488289,1.220722,-0.001343,-0.084474,1.015763
1673,-9.216449,-0.610361,0.305180,0.004395,-0.091310,1.008438
1674,-7.324331,-1.464866,-1.037613,0.007080,-0.077882,1.009903
1675,-6.775006,-2.502480,-2.136263,0.021851,-0.075196,0.997574
1676,-7.019150,-2.197299,-2.929732,0.018921,-0.069459,0.985245
1677,-10.254063,-1.709010,-2.685588,0.039551,-0.053590,0.972549
1678,-15.930419,-0.732433,-1.220722,0.026368,-0.079469,0.995010
1679,-14.221408,0.305180,-0.366217,0.022095,-0.061158,0.966812
1680,-16.906996,0.610361,-0.122072,0.002930,-0.034058,0.950576
1681,-26.367590,0.610361,2.136263,0.033814,-0.053468,0.984390
1682,-31.982910,2.502480,3.540093,0.022950,-0.108400,1.018570
1683,-26.550698,3.845274,4.272526,0.035645,-0.090333,1.025040
1684,-29.358358,6.897078,5.798428,0.025879,-0.093141,1.033951
1685,-30.395972,8.117800,5.920500,-0.018921,-0.124025,1.029557
1686,-23.743038,10.559243,4.394598,0.031006,-0.066773,1.010880
1687,-21.789883,14.221408,0.488289,-0.029908,-0.036866,0.999893
1688,-17.395285,15.442130,-2.380407,-0.083619,0.018067,0.934463
1689,-32.471199,4.943923,-14.831769,-0.174685,-0.061891,1.037369
1690,-45.716030,-7.080186,-28.381781,-0.108644,-0.203006,0.945449
1691,-51.453422,-14.709697,-23.559930,0.049195,-0.127810,0.964370
1692,-53.040360,-12.146181,-26.733806,0.083009,-0.074952,0.934463
1693,-65.857939,-9.094377,-27.038987,0.107057,0.055665,0.868299
1694,-93.446250,-4.821851,-27.893492,0.107912,-0.012207,0.899184
1695,-107.484550,-1.586938,-25.085832,0.135744,0.132448,0.842908
1696,-152.834363,5.188067,-20.630198,0.068482,-0.191653,0.980972
1697,-147.219043,-2.746624,-16.113527,-0.094728,0.182986,1.021866
1698,-219.119554,-7.446403,-23.559930,0.043458,-0.154910,1.235248
1699,-264.286259,-17.029068,3.356985,-0.070802,-0.091066,0.982803
1700,-299.137865,-32.227054,1.159686,-0.186770,-0.291508,1.084245
1701,-312.809949,-59.571221,2.990768,-0.328862,-0.276371,1.212909
1702,-351.140612,-102.845808,11.596857,-0.119020,-0.273075,1.052018
1703,-362.615396,-130.556191,28.625925,-0.042603,0.000244,1.622705
1704,-322.758831,-121.156634,31.860838,0.082277,0.040284,1.999969
1705,-351.689937,-96.314946,88.563363,-0.711803,0.151858,1.999969
1706,-54.688334,-45.532921,7.934691,-0.111940,-0.239506,1.999969
1707,211.367971,32.043946,-31.372549,-0.114137,0.582406,1.514427
1708,116.273747,35.278859,-30.884260,-0.276616,0.310674,0.547127
1709,5.127031,13.855192,3.356985,-0.280278,0.047486,0.425788
1710,65.918975,19.653620,2.685588,-0.293339,0.045289,0.649180
1711,102.723735,15.869383,-1.220722,-0.187503,0.281498,0.745617
1712,80.811780,7.934691,3.234913,-0.135622,0.227787,1.126970
1713,123.170825,15.197986,-2.136263,-0.099123,0.181643,1.281392
1714,159.243153,26.611734,-8.850233,-0.093019,0.196414,1.053483
1715,165.163653,36.621653,-10.254063,-0.146242,0.062745,0.847669
1716,178.957809,44.678416,-9.887846,-0.172610,-0.042237,0.685679
1717,186.099031,45.654994,-5.981537,-0.176272,-0.088624,0.636118
1718,187.258717,42.603189,0.488289,-0.171756,-0.116701,0.752331
1719,196.353094,40.466926,7.385367,-0.140871,-0.088991,0.965713
1720,203.494316,42.175937,13.183795,-0.111208,-0.106935,1.329122
1721,223.392081,45.349813,20.141909,-0.096925,-0.197879,1.498436
1722,250.980392,50.843061,24.780652,-0.036744,-0.338384,1.267720
1723,263.370718,59.754330,28.686961,0.006714,-0.469001,0.896132
1724,254.337377,67.627985,33.813993,0.051759,-0.606332,0.642100
1725,238.712139,72.510872,38.330663,0.096803,-0.689952,0.628305
1726,220.035096,69.947356,42.908370,0.133425,-0.737682,0.849989
1727,202.578775,56.397345,47.669184,0.160647,-0.754528,1.190448
1728,199.649043,43.945983,51.209277,0.267338,-0.865370,1.230365
1729,206.179904,35.828183,46.082246,0.354376,-0.876844,1.091447
1730,196.047913,27.771420,40.405890,0.362554,-0.828260,0.867323
1731,171.145190,16.418708,35.889220,0.224002,-0.817639,0.773327
1732,148.195621,5.432212,34.668498,0.074098,-0.848157,0.597787
1733,125.123980,-11.596857,36.438544,-0.016602,-0.795789,0.321904
1734,90.638590,-38.941024,38.025483,-0.069581,-0.725109,0.178347
1735,-63.233387,-72.510872,40.650034,-0.658946,-1.667872,-2.000031
1736,-310.856794,-69.398032,84.473945,0.004150,-2.000031,-2.000031
1737,-839.063096,-241.397726,33.142596,1.999969,-1.848417,1.999969
1738,71.900511,-41.565576,80.872816,0.124880,-2.000031,1.999969
1739,875.501640,91.981384,-135.133898,-0.663828,0.546151,-0.565438
1740,246.280613,66.346227,-193.484398,-0.294072,0.987930,-0.851331
1741,-154.482338,-9.155413,52.063783,-0.505257,0.797498,-0.033570
1742,-336.980240,-68.360418,150.514992,-0.009522,0.816785,0.881727
1743,-218.020905,-6.652934,76.661326,0.475349,-0.475471,1.999969
1744,104.615854,25.696193,-22.888533,-0.343755,-0.404913,1.506126
1745,68.970779,15.869383,-43.457694,-0.081544,0.099245,0.566903
1746,-64.393072,-3.845274,13.855192,0.220340,0.181277,0.724376
1747,-47.180896,5.859464,3.051804,-0.192020,-0.092164,1.121111
1748,-21.728847,-5.065995,0.183108,-0.076661,-0.053468,0.997086
1749,-17.334249,-9.948882,-1.464866,0.046754,-0.007813,1.079850
1750,-13.427939,-9.338521,-2.380407,-0.036988,-0.005859,0.980972
1751,-16.723888,-10.986496,-1.464866,0.046387,-0.040284,1.058488
1752,-8.239872,-6.652934,-1.220722,0.023682,-0.032715,1.057145
1753,-5.737392,-5.798428,-0.610361,-0.013062,0.005493,0.995132
1754,-8.178836,-6.164645,-0.366217,0.011719,-0.002319,1.012955
1755,-8.056764,-5.859464,-0.122072,0.005371,-0.033692,1.045304
1756,-3.906310,-4.638743,0.366217,0.033692,-0.017212,1.038346
1757,-3.173877,-2.441444,0.549325,0.026123,-0.012451,1.041764
1758,-1.342794,-1.098650,0.488289,0.027710,-0.014771,1.030167
1759,0.549325,0.366217,0.244144,0.027100,-0.001343,1.015518
1760,-0.061036,1.098650,0.183108,0.016724,-0.004883,1.006241
1761,0.305180,1.647974,-0.122072,0.021118,-0.029053,1.017594
1762,2.136263,2.319371,-0.244144,0.018433,-0.022583,1.022721
1763,4.821851,3.234913,-0.183108,0.015015,-0.010376,1.001968
1764,4.760815,3.479057,-0.122072,0.005005,-0.005737,0.991836
1765,4.577707,3.234913,-0.122072,0.003784,-0.002930,1.000259
1766,4.333562,2.990768,0.000000,0.000977,-0.002197,1.003189
1767,4.577707,2.746624,-0.183108,-0.006592,-0.001953,0.988907
1768,3.906310,1.892119,-0.305180,-0.001953,-0.004517,1.002090
1769,5.004959,1.525902,-0.610361,0.004761,-0.006104,1.002579
1770,5.371176,1.342794,-0.854505,0.005615,0.001709,0.990372
1771,4.821851,1.403830,-0.976577,0.002319,-0.004883,1.008072
1772,4.699779,1.464866,-0.854505,0.014893,0.005127,0.999161
1773,4.150454,2.380407,-0.549325,0.013672,-0.001587,1.010391
1774,4.821851,3.662165,-0.122072,0.018311,0.001343,1.005509
1775,4.760815,5.065995,0.244144,0.011353,0.000855,1.011978
1776,5.065995,5.798428,0.427253,0.009400,0.007813,0.999893
1777,4.577707,6.225681,0.488289,-0.004761,0.011841,0.994766
1778,4.394598,5.432212,0.427253,-0.011597,0.010254,0.989883
1779,4.455634,3.906310,0.366217,-0.024048,0.007813,0.965103
1780,4.577707,1.525902,0.000000,-0.022827,0.016358,0.970108
1781,3.845274,-0.732433,-0.305180,-0.022095,0.018067,0.972549
1782,3.173877,-2.685588,-0.610361,-0.019043,0.020508,0.967910
1783,1.586938,-4.272526,-0.610361,-0.013306,0.016480,0.981460
1784,1.098650,-4.272526,-0.488289,0.004517,0.014038,0.985733
1785,0.000000,-3.662165,-0.244144,0.015137,0.010986,1.013321
1786,0.305180,-2.197299,0.000000,0.016724,0.007324,1.021866
1787,0.549325,0.000000,0.427253,0.024048,0.005005,1.028336
1788,2.197299,1.403830,0.671397,0.006836,0.002441,1.003067
1789,3.234913,1.220722,0.671397,-0.005127,0.008667,0.998062
1790,5.188067,-0.854505,0.000000,-0.047974,0.015259,0.962173
1791,4.150454,-3.784237,-0.549325,0.002930,0.046265,0.974136
1792,-0.671397,-3.051804,-0.305180,0.016236,0.005859,1.020035
1793,2.624552,-1.586938,0.427253,-0.035157,0.005371,0.975967
1794,2.014191,-3.845274,0.976577,0.005493,0.026001,0.965225
1795,-0.366217,-4.455634,0.976577,-0.009766,0.007813,0.990372
1796,2.197299,-5.004959,0.854505,0.007080,0.031128,0.958267
1797,-1.831083,-4.882887,0.671397,-0.004273,0.052369,0.956435
1798,-5.859464,-6.530861,0.000000,-0.016236,0.034302,0.951064
1799,-7.629511,-8.545052,-0.915541,-0.012940,0.019898,0.992081
1800,-7.202258,-10.925460,-1.709010,-0.005249,-0.013672,1.036027
1801,-1.525902,-10.254063,-2.014191,0.062745,-0.005005,1.055680
1802,-2.502480,-5.127031,-0.427253,0.100587,-0.032349,1.098650
1803,5.249104,1.892119,0.915541,0.020874,0.011719,0.985977
1804,1.709010,1.098650,1.342794,-0.027588,0.061891,0.899916
1805,-5.981537,-4.516670,0.183108,-0.051759,0.033082,0.963149
1806,-4.455634,-9.277485,-1.770047,-0.002564,0.011963,1.020157
1807,-2.929732,-9.582666,-2.258335,0.072511,-0.016724,1.085588
1808,2.624552,-4.211490,-1.403830,0.048829,0.015991,0.994156
1809,-0.061036,-2.685588,-0.976577,0.002808,0.043702,0.948379
1810,-6.286717,-4.028382,-0.854505,0.050294,-0.002808,1.034318
1811,-0.488289,-0.793469,-1.342794,0.063722,0.001953,1.039078
1812,-1.831083,2.624552,-0.610361,0.045045,-0.000732,1.013565
1813,0.061036,5.127031,0.000000,0.008789,0.021851,0.956558
1814,-4.577707,2.868696,0.244144,-0.030274,-0.008545,0.995743
1815,1.220722,2.014191,0.000000,0.030640,0.011231,1.011246
1816,-1.220722,2.319371,0.000000,-0.011597,0.033326,0.921645
1817,-4.882887,-0.488289,-0.671397,-0.014649,0.047730,0.924086
1818,-11.535821,-3.723201,-1.403830,-0.012573,0.016358,0.988418
1819,-8.911269,-4.882887,-2.685588,0.024781,-0.024414,1.014054
1820,-9.338521,-3.906310,-2.319371,0.046509,-0.031739,1.048966
1821,-4.821851,-0.854505,-1.159686,0.039796,-0.023438,1.050797
1822,-2.502480,1.281758,-0.305180,0.004639,-0.017700,1.017350
1823,0.305180,-0.183108,-0.671397,-0.017578,-0.002319,0.990860
1824,0.244144,-2.075227,-0.854505,0.018433,0.004639,0.998184
1825,-0.671397,-1.586938,-0.610361,0.019532,-0.001465,1.008560
1826,-0.793469,-1.159686,-0.305180,0.029664,-0.024903,1.036881
1827,3.112840,0.671397,0.061036,0.033936,-0.002075,1.011246
1828,3.540093,1.098650,-0.244144,-0.001831,0.031617,0.955337
1829,-1.892119,-0.549325,-0.122072,0.025513,-0.006104,1.029801
1830,2.563516,1.525902,-0.305180,0.038575,-0.000977,1.014908
1831,0.976577,2.807660,0.061036,0.021729,0.011963,0.992813
1832,0.244144,2.746624,0.122072,0.006470,-0.001099,0.993301
1833,1.647974,2.075227,-0.305180,0.015625,0.002686,0.997330
1834,1.159686,2.319371,-0.244144,0.032471,-0.006226,1.035294
1835,3.356985,4.089418,0.000000,0.026001,-0.007080,1.015152
1836,4.150454,4.821851,0.244144,0.007691,0.010742,0.988418
1837,2.319371,4.272526,0.488289,0.011475,-0.000122,1.000626
1838,4.821851,4.028382,0.000000,-0.000366,0.016480,0.979507
1839,2.014191,2.502480,-0.244144,0.011109,0.008423,0.994278
1840,2.136263,3.051804,-0.305180,0.023560,0.005005,1.013199
1841,2.929732,4.089418,-0.122072,0.014893,0.004639,1.010391
1842,3.051804,4.882887,0.244144,0.016114,0.000366,1.010880
1843,5.249104,5.065995,0.061036,-0.012940,0.017823,0.988663
1844,4.333562,3.906310,0.000000,0.000000,0.024170,0.967422
1845,2.746624,3.112840,-0.122072,-0.015137,0.031006,0.956802
1846,-0.305180,1.770047,-0.122072,-0.005371,0.034546,0.953750
1847,-3.723201,1.464866,0.061036,-0.007568,0.021729,0.974746
1848,-5.737392,0.854505,0.488289,-0.003540,-0.005493,1.021134
1849,-1.647974,0.793469,0.061036,-0.013428,0.004395,1.001114
1850,-2.441444,-0.488289,0.061036,-0.006348,0.007691,0.992447
1851,-1.647974,-1.342794,-0.244144,-0.002808,0.001465,1.016739
1852,-1.342794,-2.075227,-0.427253,-0.001221,0.017212,0.990005
1853,-1.831083,-2.929732,-0.549325,0.002441,0.001953,1.008560
1854,0.915541,-2.197299,-0.976577,0.004273,0.019409,0.982071
1855,3.418021,-0.671397,-2.685588,-0.002319,-0.012573,1.000259
1856,7.995727,-1.709010,-3.051804,0.010742,0.028077,0.977676
1857,-0.610361,-2.990768,-1.464866,0.017700,0.003296,1.029068
1858,-0.122072,-2.258335,-0.854505,0.013550,0.011841,1.010758
1859,-1.586938,-2.258335,0.000000,0.005127,0.020630,0.985733
1860,-2.624552,-2.136263,0.000000,0.004273,0.012085,1.001602
1861,-0.488289,-1.709010,-0.244144,0.008667,0.007080,1.002090
1862,0.427253,-1.464866,-0.549325,0.011841,0.017334,0.995987
1863,-0.915541,-1.709010,-0.305180,0.008057,0.003174,1.021622
1864,1.159686,-1.037613,-0.122072,0.014527,0.010986,1.005509
1865,0.915541,-0.976577,0.000000,0.001587,0.014649,0.990494
1866,-0.427253,-1.525902,0.305180,0.008301,0.013550,1.001236
1867,-1.037613,-1.159686,0.305180,0.007080,0.012207,0.992935
1868,-1.098650,-0.976577,0.427253,0.020264,0.015991,1.001602
1869,-1.281758,-0.366217,0.427253,0.007813,0.000244,0.996231
1870,-0.793469,0.000000,0.793469,0.020142,0.014893,1.000015
1871,-1.525902,0.427253,0.671397,-0.002075,0.025879,0.965103
1872,-3.906310,0.183108,0.793469,0.018677,0.017212,0.991226
1873,-6.408789,0.854505,0.488289,0.018433,0.010742,0.998795
1874,-6.408789,0.915541,0.305180,0.010498,0.007080,0.995377
1875,-3.295949,1.037613,-0.305180,-0.003662,0.009766,1.010636
1876,0.000000,0.793469,-0.793469,0.003662,0.002564,0.984268
1877,-2.075227,-0.854505,0.000000,-0.002564,0.000732,1.011978
1878,-0.183108,-0.976577,0.061036,0.023072,0.005005,1.008194
1879,0.122072,-0.488289,0.000000,-0.003174,0.002808,0.988296
1880,2.746624,-1.037613,0.122072,-0.001831,-0.001465,0.997208
1881,2.502480,-1.342794,0.122072,0.002197,0.017823,0.989151
1882,1.159686,-1.770047,0.244144,0.007935,0.015259,0.984756
1883,0.122072,-1.464866,0.000000,0.010986,0.025025,0.974014
1884,-2.929732,-1.098650,0.000000,0.016968,0.018189,0.985367
1885,-4.089418,-1.037613,-0.183108,0.004150,0.010742,1.001114
1886,-5.065995,-1.586938,-0.122072,0.008057,0.000488,1.004532
1887,-3.723201,-1.831083,0.000000,0.019043,0.002564,1.003189
1888,-2.075227,-1.342794,-0.305180,0.005737,-0.010376,1.043351
1889,6.042573,0.183108,-0.671397,0.016968,0.020752,0.990005
1890,0.671397,-0.549325,-0.305180,0.021485,0.015259,0.962173
1891,-7.568475,-1.159686,0.305180,0.005982,-0.005859,1.020035
1892,1.953155,-0.244144,-0.610361,0.011353,0.007568,1.006241
1893,-0.122072,-0.488289,-0.488289,0.009033,0.017334,0.992447
1894,2.319371,-0.366217,-0.610361,-0.000122,0.006470,0.994156
1895,2.380407,-0.915541,-0.305180,0.010986,0.019409,0.977188
1896,-0.732433,-1.464866,0.000000,0.008911,0.028809,0.996841
1897,-1.953155,-1.342794,-0.549325,0.015259,-0.005249,0.977920
1898,-2.441444,-1.098650,-0.305180,0.004639,-0.007568,1.017960
