Packet number,Gyroscope X (deg/s),Gyroscope Y (deg/s),Gyroscope Z (deg/s),Accelerometer X (g),Accelerometer Y (g),Accelerometer Z (g)
0,-0.854505,0.0,0.0,0.0063479999999999995,-0.001099,1.0085600000000001
2,-0.30518,0.122072,0.0,-0.0031739999999999997,-0.000732,0.992813
4,-0.366217,-0.244144,-0.244144,0.0051270000000000005,0.005737,0.9911040000000001
6,-0.671397,-0.366217,-0.183108,0.0023190000000000003,0.00415,0.996353
8,-1.281758,-0.244144,-0.183108,-0.001343,0.0028079999999999997,0.995743
10,-1.953155,-0.061036,-0.183108,0.004273,-0.003052,1.00441
12,-1.525902,0.122072,0.0,0.003662,0.0023190000000000003,1.002457
14,-1.2207219999999999,-0.061036,0.0,0.002075,-0.000366,1.001724
16,-0.6103609999999999,-0.061036,0.0,0.0037840000000000005,0.00061,1.001846
18,-0.244144,-0.061036,-0.183108,0.001953,-0.0031739999999999997,0.9973299999999999
20,0.183108,0.061036,-0.183108,0.008057,-0.000244,1.0011139999999998
22,-0.183108,-0.061036,-0.183108,0.004517,-0.001709,0.9987950000000001
24,-0.732433,0.0,0.0,0.0021969999999999997,-0.003052,1.0011139999999998
26,-0.671397,0.0,-0.122072,0.005371,-0.000366,1.000504
28,-0.549325,0.0,-0.122072,0.004761,-0.000977,1.000259
30,-0.183108,0.061036,0.0,0.003662,0.0008550000000000001,0.9973299999999999
32,-0.366217,-0.061036,-0.122072,0.0023190000000000003,-0.001953,1.005997
34,-0.122072,-0.061036,-0.183108,0.0051270000000000005,-0.003052,0.997086
36,-0.671397,-0.244144,-0.122072,-0.004517,0.0028079999999999997,0.9944
38,-1.2207219999999999,0.061036,-0.183108,0.0031739999999999997,0.0,0.998917
40,-1.2207219999999999,0.122072,-0.183108,0.0037840000000000005,0.000244,1.007095
42,-0.976577,0.0,0.0,0.011597,0.000122,1.010269
44,-0.732433,-0.061036,0.0,0.000366,-0.0035399999999999997,1.002701
46,-0.976577,-0.30518,-0.122072,0.004883,-0.0008550000000000001,1.001602
48,-0.48828900000000003,-0.061036,0.0,0.00415,0.001343,0.995499
50,-0.244144,0.061036,0.0,0.011475,-0.005005,1.007584
52,-0.061036,-0.244144,0.061036,0.010742,0.002686,0.9950100000000001
54,-1.2207219999999999,-0.30518,0.366217,-0.0035399999999999997,-0.010254000000000001,1.013809
56,-1.953155,0.0,0.30518,0.0074459999999999995,-0.003418,1.010758
58,0.244144,0.122072,0.244144,0.009033,-0.004883,1.009293
60,1.464866,-0.183108,0.0,0.010498,-0.005371,1.015763
62,3.6621650000000003,-0.183108,-0.122072,0.013062,0.003906,1.003067
64,3.173877,-0.48828900000000003,0.0,0.011353,0.003418,1.0057530000000001
66,3.540093,-1.037613,-0.122072,0.006714,0.004883,0.991714
68,2.197299,-2.075227,-0.183108,0.014771000000000001,0.012329000000000001,0.9864649999999999
70,1.647974,-2.4414439999999997,0.0,0.012818000000000001,0.015015,1.001968
72,2.197299,-1.586938,-0.366217,0.008057,0.004273,0.997086
74,3.295949,-0.30518,-0.244144,0.003052,0.0015869999999999999,1.0129549999999998
76,2.929732,-0.244144,0.0,0.006104,0.008423,0.9969629999999999
78,2.319371,-0.854505,-0.122072,0.010864,0.01648,1.002823
80,2.685588,-0.427253,-0.30518,0.003296,0.009888,0.9987950000000001
82,2.685588,0.122072,-0.183108,0.014159999999999999,0.018067,0.9994049999999999
84,1.647974,-0.30518,0.0,0.012206999999999999,0.019409,1.003311
86,1.09865,-0.244144,0.183108,0.011719,0.010986,1.0053860000000001
88,0.732433,-0.976577,0.183108,0.005005,0.008179,1.001968
90,1.159686,-0.854505,0.061036,0.001831,0.008423,1.000259
92,1.953155,-0.122072,0.183108,-0.003418,0.016114,0.996597
94,2.075227,-0.6103609999999999,0.549325,0.001953,0.017212,1.0011139999999998
96,2.990768,0.061036,0.671397,0.013428,0.00647,1.018448
98,4.699779,0.0,0.793469,0.000366,0.012695999999999999,1.019059
100,5.0049589999999995,-0.48828900000000003,0.671397,-0.006104,0.019776,0.9969629999999999
102,3.723201,-1.953155,0.366217,-0.000732,0.011840999999999999,0.999771
104,4.5166699999999995,-2.380407,-0.122072,0.013306,0.032227,0.976089
106,2.990768,-1.2207219999999999,-0.30518,0.008789,0.031738999999999996,0.9753569999999999
108,2.197299,-0.183108,0.122072,-0.000122,0.024659,1.007218
110,0.732433,-0.6103609999999999,0.0,0.00415,0.035523,0.977188
112,-1.342794,-2.136263,-0.427253,0.005371,0.026123,0.9939120000000001
114,0.122072,-2.4414439999999997,-0.793469,0.025269,0.024537,1.000748
116,1.525902,-1.464866,-0.671397,0.024781,0.034058,1.000259
118,0.366217,0.122072,-0.549325,0.019287000000000002,0.036378,0.9908600000000001
120,0.0,2.014191,-0.366217,0.020752,0.041871,0.9813379999999999
122,-3.173877,2.075227,-0.48828900000000003,0.014649,0.038087,0.973892
124,-4.455634,2.868696,-0.549325,-0.008545,0.018067,0.997818
126,-2.4414439999999997,2.014191,-0.30518,-0.0058590000000000005,0.018311,0.9979399999999999
128,-0.244144,1.159686,-0.244144,-0.00293,0.022583000000000002,1.000504
130,-0.732433,0.0,-0.244144,0.001831,0.035279000000000005,0.976333
132,-3.6011290000000002,-1.8921189999999999,-0.427253,-0.000488,0.037842,0.9753569999999999
134,-6.103609,-2.4414439999999997,-0.30518,0.008179,0.031373000000000005,0.968643
136,-7.934691,-2.80766,0.0,0.0035399999999999997,0.021973,0.991348
138,-7.2022580000000005,-3.356985,0.0,0.0070799999999999995,0.027832,0.981949
140,-11.352712,-5.493248,0.183108,0.007324,0.019776,0.9681540000000001
142,-14.282444,-7.324331,0.366217,0.018555000000000002,0.011840999999999999,0.992569
144,-15.197985999999998,-7.141222,1.037613,0.008789,0.029175,0.920058
146,-29.053178000000003,-11.047532,2.746624,0.023438,-0.003052,1.000137
148,-31.982909999999997,-11.535821,3.051804,0.014038,0.013184,0.951675
150,-36.682689,-13.244831,3.723201,0.033569999999999996,-0.007935,1.016861
152,-34.912642,-10.742351,2.80766,0.038452999999999994,-0.050172,1.028824
154,-34.973678,-9.460594,2.746624,0.040772,-0.042481,1.034928
156,-29.236286,-7.385367,2.319371,0.03772,-0.080079,1.010636
158,-24.96376,-7.01915,5.065995,0.058595,-0.046876,1.048966
160,-32.532235,-3.479057,4.333562000000001,0.11303900000000001,0.030762,0.9279930000000001
162,-48.584726,1.159686,2.075227,0.04358,-0.089479,0.9935450000000001
164,-47.241932,3.295949,-1.037613,0.023194,-0.056275,1.018082
166,-47.547112,0.732433,-8.300908,0.007568000000000001,-0.170657,0.9072399999999999
168,-60.975052000000005,2.014191,-32.349126,-0.017823,-0.16907,0.957656
170,-69.520104,11.108568,-22.583351999999998,0.100221,-0.295659,1.090227
172,-51.880674,5.3101400000000005,-5.493248,0.082521,-0.046754000000000004,0.9946440000000001
174,-105.714504,12.207218,-5.7984279999999995,0.08447400000000001,-0.06225700000000001,0.893202
176,-99.122606,1.8310830000000002,15.197985999999998,-0.054077999999999994,0.121706,0.759655
178,-294.316014,-9.704738,-5.249104,0.010864,0.406989,1.377951
180,-534.981308,-33.020523,31.311513,0.107179,-0.03125,1.29958
182,-629.2210269999999,-30.640116,26.855878999999998,0.058595,-0.183719,0.970352
184,-702.586404,-3.967346,136.171511,-1.043107,-0.531014,1.9999689999999999
186,161.562524,51.941711,-52.185855,-0.426886,0.704234,1.9999689999999999
188,-60.303655000000006,14.160372,9.52163,-0.385626,0.462531,1.7252459999999998
190,118.59311799999999,10.254063,-2.136263,-0.083619,0.4701,0.923842
192,80.262455,0.854505,2.014191,0.085328,0.258183,0.750622
194,99.488823,-0.549325,-11.657893,0.170901,0.346563,0.684092
196,124.818799,-0.244144,-24.048219,0.051759000000000006,0.340215,1.016251
198,158.632792,-4.272526,-23.315785,-0.06958099999999999,0.279057,1.4338600000000001
200,210.879683,-1.647974,-16.784924,-0.06543099999999999,0.141238,1.4022430000000001
202,241.70290699999998,9.033341,-11.169604,0.013793999999999999,0.015625,1.033097
204,247.37926299999998,7.812619000000001,-7.629511,0.10241900000000001,-0.039796,1.130999
206,257.87747,2.929732,-11.657893,0.17383099999999999,-0.035889,1.4220190000000001
208,276.981765,9.277485,-26.855878999999998,0.269413,-0.099855,1.548608
210,274.845502,31.616692999999998,-51.392386,0.306157,-0.34229,1.1926450000000002
212,247.623407,35.400931,-69.03181500000001,0.173465,-0.379767,1.312642
214,226.321813,41.748684000000004,-75.074388,-0.037232,-0.45557299999999995,1.491478
216,202.761883,53.589684999999996,-63.53856700000001,-0.157717,-0.576669,1.9999689999999999
218,222.59861099999998,56.275273,-48.584726,-0.08630499999999999,-0.6949569999999999,1.9999689999999999
220,240.78736600000002,58.716716000000005,-33.997101,0.033814,-0.777478,1.9999689999999999
222,258.36575899999997,62.989242000000004,-25.635157,0.11218399999999999,-0.889418,1.628077
224,235.782406,57.129778,-13.122759,-0.009888,-1.118914,1.2798049999999999
226,201.29701699999998,49.866484,10.498207,-0.089357,-1.4275120000000001,1.192401
228,153.749905,52.063783,20.202945,0.395758,-1.955596,0.8139770000000001
230,89.478904,75.379568,-11.963073,0.77052,-2.0000310000000003,-0.16003699999999998
232,-11.352712,26.428626,-5.981537,0.31299299999999997,-1.8628209999999998,-0.069093
234,-201.724269,-84.779126,49.683375,-0.026001,-2.0000310000000003,-0.417853
236,-132.44831000000002,-62.317845,28.564889,0.357916,0.223636,1.885161
238,-238.83421099999998,-75.074388,36.316472,0.390875,0.404181,1.044938
240,-267.277028,-39.124132,29.663539,0.27869099999999997,-0.310674,1.8391389999999999
242,-168.886854,-7.263294,13.427939000000002,0.224002,-0.38587,1.9999689999999999
244,-103.639277,-17.029068,19.714656,-0.614633,-0.004517,1.9154349999999998
246,-36.1944,-69.214923,19.043259,0.659068,0.126711,1.981109
248,-18.982223,-13.061722999999999,0.30518,-0.20947600000000002,-0.025025,1.057145
250,-34.424353,-36.316472,4.699779,0.425422,0.036988,1.37734
252,-18.371862,-7.385367,2.563516,-0.107424,-0.002564,1.0984049999999999
254,-6.225681,-6.897078,0.9155409999999999,0.049194999999999996,0.067506,0.977188
256,-12.878614,-2.50248,1.647974,0.04004,0.045533,0.956924
258,-21.545739,3.173877,3.1128400000000003,0.042847,0.043824,1.027726
260,-15.014878,4.638743,2.014191,0.060913999999999996,-0.006592,0.9863430000000001
262,-17.883574,1.037613,2.868696,-0.008911,0.024659,1.0553139999999999
264,-6.958114,-0.549325,-0.976577,-0.033692,-0.10998699999999999,0.83888
266,-7.629511,-4.882887,1.2207219999999999,0.010498,-0.000366,0.9834129999999999
268,-7.01915,-3.6011290000000002,0.976577,0.016114,0.052490999999999996,0.981094
270,-11.23064,-3.051804,0.9155409999999999,-0.033082,0.11840999999999999,1.23537
272,-10.193027,-3.784237,0.976577,0.014771000000000001,-0.02295,0.991958
274,-1.525902,-3.967346,0.671397,-0.0074459999999999995,0.034791,1.00795
276,-4.699779,-6.408789,0.0,0.007201999999999999,0.005005,0.9428850000000001
278,-9.643702000000001,-7.385367,0.244144,0.030274000000000002,0.023681999999999998,0.999649
280,-8.1178,-5.432212,0.366217,0.059083000000000004,0.016602000000000002,1.0390780000000002
282,-7.080186,-1.70901,1.525902,0.043091000000000004,0.013062,0.966567
284,-14.770732999999998,-1.464866,2.685588,0.015747,0.019653999999999998,0.9410540000000001
286,-27.832456,-5.737392,4.21149,0.014038,0.029786,0.948623
288,-32.837415,-10.437171000000001,2.197299,0.000977,0.002686,0.9640040000000001
290,-34.241245,-12.939651,-0.671397,0.036622,-0.016114,1.0129549999999998
292,-36.865797,-10.742351,-0.9155409999999999,0.050416,-0.048585,1.005142
294,-36.255435999999996,-4.699779,2.50248,0.082277,-0.060303999999999996,0.9299459999999999
296,-36.255435999999996,-5.371176,6.225681,-0.013793999999999999,-0.051881,1.091325
298,-55.298694999999995,6.652933999999999,3.356985,-0.023072,0.035889,0.9397120000000001
300,-62.867169999999994,1.037613,-1.464866,0.023681999999999998,-0.039307,0.9863430000000001
302,-62.989242000000004,-4.8218510000000006,-17.700464999999998,-0.07483,-0.145266,1.0276040000000002
304,-95.460441,6.652933999999999,-49.744411,0.090822,-0.380011,1.02211
306,-26.367590000000003,-2.50248,-0.549325,0.185306,-0.14563199999999998,1.012345
308,-91.432059,20.691233999999998,-9.704738,0.157717,0.166384,1.0205229999999998
310,-147.219043,15.13695,3.784237,-0.340337,0.158694,0.9799950000000001
312,-323.491264,-26.916915000000003,-28.747996999999998,0.018311,1.008316,1.4903790000000001
314,-729.1371019999999,-103.27306,-3.356985,-0.338262,0.22974,1.522118
316,-1000.6256199999999,-188.29633,85.755703,1.321431,-2.0000310000000003,1.9999689999999999
318,180.178531,-22.827497,-90.63859000000001,0.13196,-0.5388270000000001,1.9999689999999999
320,258.426795,25.513085,-104.859998,-0.329717,1.0188139999999999,0.46179899999999996
322,-56.763560999999996,-74.219883,23.132676999999997,-0.38257399999999997,0.5515220000000001,0.26099
324,106.20279199999999,-10.986496,-16.84596,-0.283085,0.468391,0.727916
326,76.295109,11.596857,-6.652933999999999,-0.306279,0.383795,0.9433739999999999
328,140.077821,22.46128,-2.929732,-0.268681,0.42090500000000003,0.801892
330,162.294957,37.537194,0.183108,-0.161501,0.358892,0.973281
332,190.859846,57.312886,0.122072,-0.10815599999999999,0.273075,1.108293
334,228.030823,47.302968,5.9205,-0.012085,0.220584,1.138079
336,254.21530499999997,34.546426000000004,1.647974,0.203128,0.227543,1.466331
338,293.03425699999997,47.364004,-17.090104999999998,0.327153,0.130983,1.56643
340,307.07255699999996,63.416495,-35.767146999999994,0.276493,-0.27270900000000003,0.784802
342,247.318227,84.596017,-43.457694000000004,0.34168000000000004,-0.316411,0.662608
344,196.41413,71.107042,-50.720989,0.38416100000000003,0.025513,1.9999689999999999
346,242.191196,62.378882,-62.378882,0.223392,-0.338262,1.9999689999999999
348,285.099565,89.723049,-58.04531899999999,-0.032349,-0.628061,1.9999689999999999
350,306.523232,75.867857,-32.593271,-0.215824,-0.886244,1.9999689999999999
352,308.964675,71.900511,-1.8921189999999999,0.13305899999999998,-1.008194,1.9305709999999998
354,275.089647,85.32845,5.61532,0.33179200000000003,-1.172015,1.679591
356,243.106737,57.557031,31.128404999999997,0.040527999999999995,-1.870634,1.3631799999999998
358,156.55756499999998,43.945983,47.974365,0.917494,-2.0000310000000003,0.433478
360,63.172351,101.136797,-41.077287,0.981827,-2.0000310000000003,-0.20886500000000002
362,-45.532921,18.677042999999998,-6.164645,-0.15027100000000002,-2.0000310000000003,0.092287
364,-60.059509999999996,-99.916075,49.073014,0.636362,-1.919829,-2.0000310000000003
366,-208.377203,-78.492409,29.358358000000003,-0.630625,-0.094606,1.2245059999999999
368,-276.12726000000004,-77.57686700000001,58.228428,-0.712535,0.648447,0.23889499999999997
370,-382.635233,-46.387427,80.750744,1.755398,-0.310185,1.9999689999999999
372,-185.427634,50.720989,-19.34844,0.676036,-0.374395,1.9999689999999999
374,-77.63790300000001,-44.800488,37.964446,-1.9575490000000002,-0.689708,0.9234760000000001
376,-104.127565,-100.70954499999999,43.030442,1.9999689999999999,0.239384,1.9999689999999999
378,-25.940337,-35.645075,13.305867000000001,-0.8918590000000001,-0.070069,0.667369
380,-57.984283,-31.799802000000003,3.6621650000000003,0.535042,-0.024781,1.294453
382,-38.574807,-28.503853000000003,1.464866,0.20947600000000002,0.005249,1.2401309999999999
384,-28.870069,-0.061036,1.586938,-0.070436,0.002441,1.057755
386,-18.005646,6.652933999999999,2.380407,0.059692999999999996,-0.013184,1.048234
388,-13.061722999999999,10.009917999999999,4.760815,-0.014527000000000002,0.017212,0.993057
390,-16.906996,8.42298,3.90631,-0.003906,0.082887,1.1143969999999999
392,-19.34844,0.671397,2.80766,-0.030639999999999997,-0.0028079999999999997,0.9480129999999999
394,-13.855192,-2.868696,1.70901,-0.033082,-0.007812999999999999,1.007706
396,-8.545052,-5.981537,1.159686,-0.063111,0.020752,1.0560459999999998
398,-14.587625,-12.146181,1.40383,-0.012206999999999999,-0.0021969999999999997,0.9554590000000001
400,-13.550010999999998,-12.817578,0.122072,-0.012206999999999999,0.006226,0.983658
402,-16.235599,-14.770732999999998,0.549325,0.004028,0.073365,1.010269
404,-15.13695,-10.864424,1.40383,0.032958999999999995,-0.042237000000000004,1.029923
406,-13.183795000000002,-7.629511,2.4414439999999997,0.022705,-0.02356,1.044816
408,-12.878614,-6.2867169999999994,3.356985,-0.004761,-0.016968,0.9673
410,-15.869383,-9.155413000000001,2.197299,0.007935,-0.018189,0.997086
412,-17.029068,-9.155413000000001,1.037613,0.025879000000000003,-0.027832,0.989273
414,-21.728847000000002,-8.1178,1.647974,0.020996,-0.038209,1.005509
416,-24.353399,-7.507439,1.09865,0.0021969999999999997,-0.041505,0.973648
418,-28.747996999999998,-9.033341,1.2207219999999999,-0.00293,-0.0542,1.011368
420,-29.785611,-9.948882000000001,-0.549325,0.020996,-0.008057,0.934707
422,-37.048905,-10.925460000000001,0.854505,0.055787,-0.010864,1.036881
424,-56.580453000000006,2.2583349999999998,7.263294,-0.011963,-0.12219400000000001,1.025895
426,-56.885633999999996,3.723201,5.249104,-0.039307,-0.09765800000000001,1.000992
428,-60.18158199999999,-1.8310830000000002,-6.775005999999999,-0.042481,-0.080934,1.046525
430,-60.547799,-1.953155,-26.733806,-0.019776,-0.08484,0.991592
432,-51.209277,-1.281758,-38.025483,0.16894800000000001,-0.510872,1.104265
434,-17.700464999999998,-3.418021,-3.845274,0.010131999999999999,0.032593000000000004,0.8840469999999999
436,-85.877775,16.906996,-20.569162,0.15552,0.26807,0.877333
438,-186.282139,-5.981537,-41.321431,-0.1178,0.241581,0.322637
440,-504.707408,-24.597542999999998,-32.471199,0.61915,1.713771,1.9999689999999999
442,-896.070802,-131.227588,27.222095,-0.25610700000000003,0.062135,1.3597620000000001
444,-1188.067445,-151.30846100000002,60.486763,0.637949,-2.0000310000000003,1.9999689999999999
446,267.3991,37.109941,-88.624399,-0.8921030000000001,0.54725,1.9999689999999999
448,115.419242,53.284504000000005,-27.832456,-0.9592430000000001,0.525154,1.358663
450,46.387427,-87.70885799999999,103.02891600000001,-0.18323,0.205325,0.24756199999999998
452,132.997635,-72.083619,69.214923,0.064576,0.555917,0.5396810000000001
454,144.228275,10.864424,31.860838,0.114504,0.361822,0.709728
456,149.233234,27.038987,8.606088,-0.026978,0.285161,0.807385
458,192.446784,13.733120000000001,-1.8921189999999999,-0.086793,0.28686999999999996,1.385519
460,253.788052,27.283131,-5.432212,-0.149783,0.061036,1.4431370000000001
462,290.348669,22.46128,2.380407,-0.160647,-0.09485,1.106584
464,312.748913,4.8218510000000006,7.6905470000000005,0.062989,-0.107912,1.549218
466,343.022812,19.592584,-10.803388,0.357183,-0.280644,1.4055389999999999
468,317.6318,66.71244399999999,-47.852292999999996,0.558968,-0.557504,0.690562
470,252.20111400000002,85.63363100000001,-75.806821,0.375006,-0.488167,1.5355459999999999
472,246.158541,88.807507,-80.201419,-0.051759000000000006,-0.610727,1.9729299999999999
474,232.730602,102.17441099999999,-50.659953,-0.410163,-0.9436180000000001,1.9999689999999999
476,263.004501,81.483177,-7.263294,-0.194705,-1.178607,1.9999689999999999
478,321.049821,67.689021,-3.845274,0.5085529999999999,-1.077775,1.9149459999999998
480,272.64820299999997,55.84802,-18.554971,0.587533,-1.0560459999999998,1.773953
482,270.08468799999997,14.648660999999999,-31.311513,0.22302600000000003,-1.223774,1.7532009999999998
484,240.299077,22.339208,-39.490349,0.055177,-2.0000310000000003,1.065812
486,149.599451,74.158846,-54.261081999999995,0.442267,-2.0000310000000003,0.11840999999999999
488,57.312886,91.73724,-37.964446,0.20679,-2.0000310000000003,-0.522103
490,-38.269627,-58.167391,49.256122999999995,0.094484,-1.9139700000000002,0.636728
492,-52.124819,-98.939498,79.22484200000001,0.672251,-1.9835509999999998,-2.0000310000000003
494,-166.445411,-86.366064,36.560615999999996,0.259648,-0.064942,1.109392
496,-250.919356,-94.17868299999999,44.373236,-0.024903,0.735851,0.82826
498,-300.419623,-36.621653,50.720989,0.606332,-0.218875,1.9999689999999999
500,-153.627832,14.831769,-0.793469,0.850355,-0.130495,1.9999689999999999
502,-159.97558600000002,0.061036,20.569162,-1.619043,-0.568978,1.9999689999999999
504,-79.77416600000001,-107.118334,49.683375,0.7961550000000001,0.389532,1.973053
506,-50.782025,-19.104295,16.662851999999997,-0.390753,0.003296,1.33254
508,-46.021209999999996,-50.843061,7.6905470000000005,0.55787,0.107668,1.54995
510,-39.673457,-18.371862,2.868696,-0.13305899999999998,-0.053101,1.2361030000000002
512,-18.24979,-11.596857,0.366217,0.04773,0.063355,1.0866870000000002
514,-17.456321,-6.042573,2.2583349999999998,0.07470800000000001,0.060303999999999996,0.999649
516,-24.109254999999997,0.061036,3.234913,0.046387,0.015625,1.058976
518,-23.010604999999998,5.981537,5.249104,0.011353,-0.017212,1.047379
520,-18.677042999999998,6.164645,5.432212,-0.006226,-0.011963,1.016373
522,-10.437171000000001,2.868696,6.591897,0.032105,0.058961,0.898329
524,-14.282444,0.061036,3.540093,-0.031006,-0.015625,1.020645
526,-13.305867000000001,-2.990768,2.014191,-0.014038,-0.013062,0.9862209999999999
528,-12.146181,-4.943923000000001,0.732433,-0.010376,-0.016236,1.0116120000000002
530,-9.887846000000001,-5.065995,0.427253,-0.120729,0.036988,1.251484
532,-8.667124000000001,-6.469825,0.854505,-0.023194,-0.037476,0.914687
534,-9.887846000000001,-7.507439,0.671397,-0.021485,-0.010498,0.9858549999999999
536,-13.550010999999998,-8.42298,0.793469,0.010742,-0.012085,0.9785309999999999
538,-14.099336,-9.704738,2.075227,0.102907,0.015625,0.8676889999999999
540,-18.005646,-5.554284,2.197299,0.049561,-0.092042,1.011002
542,-18.738079,-1.586938,3.723201,0.018311,-0.039063,1.012345
544,-22.827497,-2.380407,4.028382,0.001465,-0.021485,0.977676
546,-24.414435,-5.493248,1.342794,-0.02295,-0.028321,0.962051
548,-29.663539,-9.277485,-2.319371,-0.006226,-0.006226,0.941176
550,-41.382467,-12.512398,-2.80766,-0.030639999999999997,-0.081544,0.96791
552,-44.556344,-14.404517000000002,2.563516,0.06884900000000001,-0.083009,0.9870760000000001
554,-46.021209999999996,-5.981537,4.943923000000001,0.08996699999999999,-0.11731099999999998,0.991836
556,-43.579767,-2.380407,-0.30518,-0.015381,-0.038697,1.02565
558,-48.035401,-9.460594,-16.052491,-0.076051,-0.166873,0.964614
560,-71.717403,-4.882887,-43.030442,0.059327,-0.31238299999999997,0.95436
562,-23.315785,-9.155413000000001,-4.638743,0.08520599999999999,-0.229129,1.046403
564,-71.839475,2.2583349999999998,-21.545739,0.120851,0.10547000000000001,0.9875639999999999
566,-176.82154599999998,6.225681,-18.24979,0.015991,0.543343,0.523568
568,-362.615396,-51.453421999999996,-25.452049,0.20630199999999999,1.358663,1.330953
570,-794.872969,-134.523537,19.226368,-0.6004729999999999,-0.072145,1.402609
572,-1051.346609,-218.75333799999999,107.789731,1.1616389999999999,-2.0000310000000003,1.9999689999999999
574,59.20500500000001,-83.802548,-52.67414399999999,0.045167,-1.115251,1.9999689999999999
576,199.588006,24.841688,-77.515831,0.125978,0.854749,1.379538
578,-72.571908,-31.006332,50.720989,-0.373541,0.516365,0.746838
580,109.07148899999999,23.132676999999997,24.048219,-0.23608800000000002,0.439216,0.32605500000000004
582,51.087205,16.540779999999998,35.767146999999994,-0.015991,0.409308,0.792859
584,133.913176,16.968032,20.141909,0.297734,0.6048680000000001,1.183856
586,182.864118,15.197985999999998,-7.385367,0.404181,0.49097399999999997,1.318257
588,231.387808,21.789883,-35.523003,0.271611,0.284672,1.1858090000000001
590,266.239414,21.728847000000002,-49.622339000000004,0.171878,0.125002,1.2641790000000002
592,300.541695,19.165332,-56.702525,0.195193,-0.015137000000000001,1.110857
594,299.198901,23.132676999999997,-69.398032,0.244511,-0.15295599999999998,0.984634
596,282.230869,37.232013,-79.65209399999999,0.064698,-0.313237,1.307027
598,274.052033,71.961547,-79.10276999999999,-0.057252,-0.468025,1.51284
600,265.201801,83.92461999999999,-68.543526,-0.159182,-0.436896,1.9361869999999999
602,254.03219700000002,100.70954499999999,-42.481117,-0.317388,-0.806409,1.9999689999999999
604,272.831312,102.357519,-10.986496,-0.220584,-0.9580219999999999,1.9999689999999999
606,305.424582,92.59174499999999,10.070953999999999,-0.042481,-1.122942,1.9999689999999999
608,339.7879,111.45189599999999,16.662851999999997,0.735729,-1.08864,1.999298
610,294.926375,92.77485300000001,-0.9155409999999999,0.969009,-1.414939,1.837064
612,266.849775,33.875029,-21.606775,0.6361180000000001,-2.0000310000000003,1.460594
614,167.54406,72.205692,-63.355458999999996,0.826917,-2.0000310000000003,0.349004
616,95.338369,195.559625,-97.596704,0.076295,-2.0000310000000003,-1.408103
618,-171.45037,-62.989242000000004,36.49958,-0.834852,-2.0000310000000003,-2.0000310000000003
620,-163.759823,-185.427634,46.631571,0.888441,-0.343999,1.9999689999999999
622,-191.10398999999998,-109.498741,57.862211,-0.668833,0.734874,0.21301599999999998
624,-370.428016,-93.324178,89.478904,1.360983,-0.443488,1.32253
626,-222.842756,-17.639429,11.841001,1.615625,-0.39942,1.9999689999999999
628,-163.210498,-56.458381,23.071641,-2.0000310000000003,-0.827405,1.9999689999999999
630,-16.84596,-77.882048,8.178836,1.940826,0.289677,1.985016
632,-42.969406,-23.193713,12.207218,-0.725841,-0.178958,1.0778969999999999
634,-24.719615,-21.667811,1.586938,0.225345,0.06482,1.087297
636,-2.80766,-17.883574,1.342794,0.10925499999999999,0.061036,1.000626
638,-20.202945,-7.751583,4.150454,0.010620000000000001,-0.061158000000000004,1.1335620000000002
640,-11.23064,1.281758,5.127031,0.101686,0.069703,1.023209
642,-12.451362,5.0049589999999995,6.042573,0.051148,0.088991,0.9583889999999999
644,-23.987182,6.042573,6.103609,0.018799,0.048341,1.0442049999999998
646,-26.367590000000003,2.868696,4.8218510000000006,-0.041138,-0.0051270000000000005,0.9901270000000001
648,-19.65362,-1.037613,2.80766,0.025635,-0.008545,1.0363930000000001
650,-16.296635000000002,-0.9155409999999999,1.8310830000000002,0.016724,-0.007812999999999999,0.999283
652,-18.554971,-1.342794,1.342794,0.015991,-0.019043,1.036637
654,-15.930419,-0.244144,0.427253,0.025025,-0.00415,1.0053860000000001
656,-15.442129999999999,-0.6103609999999999,0.0,0.006104,-0.0043950000000000005,0.985611
658,-17.212177,-3.356985,-0.732433,0.018677000000000003,-0.018799,0.9828030000000001
660,-19.226368,-5.065995,-2.014191,0.032227,-0.021606999999999998,1.025772
662,-18.554971,-4.455634,-3.295949,0.021118,-0.044312,0.984878
664,-21.728847000000002,-4.638743,-2.075227,0.043213999999999995,-0.060792,1.009781
666,-24.353399,-3.784237,1.342794,0.044312,-0.011231,0.981094
668,-31.128404999999997,-3.234913,1.8921189999999999,0.017945,-0.046021,1.026261
670,-34.485389,-3.540093,0.427253,0.04004,-0.083131,1.011368
672,-30.457008000000002,-3.173877,-0.854505,0.04065,-0.056764,0.988663
674,-35.828183,-4.8218510000000006,0.061036,0.013062,-0.043458,0.878431
676,-50.537881,1.464866,4.028382,0.013793999999999999,-0.120974,0.952407
678,-58.289464,5.371176,9.704738,0.049928,-0.150759,1.040055
680,-48.462654,7.507439,8.850233,-0.039185000000000005,-0.13843,1.039567
682,-37.354085999999995,-0.366217,-6.71397,-0.039185000000000005,-0.18555,0.95021
684,-36.926833,-4.455634,-34.546426000000004,-0.031617,-0.128908,1.012345
686,-35.09575,0.244144,-22.400244,0.15027100000000002,-0.36633899999999997,1.0880290000000001
688,-36.011292,-3.6011290000000002,-19.34844,0.016114,0.155764,0.972549
690,-110.170138,16.601816,-23.193713,0.079835,0.257206,0.70631
692,-194.399939,-17.395285,-40.71107,-0.20911,0.744152,1.173114
694,-674.204624,-28.809033000000003,-37.476158,-0.533333,0.550179,1.9999689999999999
696,-951.613642,-87.64782199999999,96.55909100000001,0.234012,0.157229,0.7900510000000001
698,-870.008393,-72.022583,162.294957,-1.380148,-0.832044,1.9999689999999999
700,320.317388,-4.089418,-83.009079,-0.7371939999999999,0.9243309999999999,1.9999689999999999
702,-32.776379,-59.876402,27.161059,-0.790539,0.701427,1.213031
704,89.906157,-57.923246999999996,23.132676999999997,-0.29370599999999997,0.23608800000000002,0.9331200000000001
706,94.239719,-28.870069,21.545739,-0.19250799999999998,0.494392,0.8420540000000001
708,170.90104499999998,-12.32929,13.977264000000002,-0.24243499999999998,0.32202600000000003,0.974258
710,195.437552,-27.161059,18.371862,-0.167605,0.204837,0.951308
712,227.847715,-9.460594,11.535821,-0.12732100000000002,0.14038299999999998,0.981094
714,253.91012400000002,10.620279,5.61532,-0.126101,0.016602000000000002,1.10988
716,273.746853,15.991454999999998,6.469825,-0.042602999999999995,-0.045777,1.195087
718,296.086061,20.813306,1.40383,0.129885,-0.073732,1.4968489999999999
720,318.66941299999996,35.828183,-14.404517000000002,0.22900700000000002,-0.253544,1.7060810000000002
722,317.814908,69.520104,-36.49958,0.429572,-0.627817,0.631113
724,239.749752,44.495308,-51.392386,0.45606199999999997,-0.384405,0.996841
726,210.635538,40.222782,-73.670558,0.308598,-0.302983,1.9999689999999999
728,264.22522299999997,74.341955,-81.971466,0.035767,-0.750744,1.9999689999999999
730,280.888075,57.923246999999996,-68.909743,0.010498,-0.902968,1.9999689999999999
732,281.62050800000003,79.957275,-70.801862,0.30493600000000004,-0.983291,1.957916
734,274.052033,78.98069699999999,-69.88632,0.27747,-1.1610280000000002,1.944121
736,255.06981000000002,73.670558,-61.768521,0.292485,-1.451316,1.392844
738,204.53193000000002,67.994202,-42.664225,0.24072600000000002,-2.0000310000000003,1.0316319999999999
740,134.462501,74.769207,-30.945296000000003,0.7450060000000001,-2.0000310000000003,0.715465
742,96.620127,96.864271,-43.091478,0.554574,-2.0000310000000003,-0.5372399999999999
744,-42.664225,-34.302281,20.080873,-0.05127,-1.8895549999999999,-0.204227
746,-286.503395,-210.69657400000003,47.608148,0.9049209999999999,-1.755886,0.487922
748,-123.84222199999999,-42.359045,-4.760815,-0.290532,0.9664450000000001,1.6456549999999999
750,-331.548028,-66.529335,44.068055,0.110597,-0.532845,0.7443960000000001
752,-257.755398,3.051804,38.025483,0.878798,-0.456916,1.9999689999999999
754,-135.744259,-32.288090000000004,13.427939000000002,-0.973159,-0.496834,1.9999689999999999
756,-76.722362,-106.446937,45.899138,0.709972,0.41492299999999993,1.58645
758,-48.584726,-20.263981,10.925460000000001,-0.262455,-0.025269,1.5638670000000001
760,-44.007019,-47.547112,9.277485,0.49817700000000004,0.169558,1.5526360000000001
762,-39.978637,-15.381094000000001,3.90631,-0.163699,-0.014893,1.238788
764,-18.127717999999998,-8.42298,0.244144,0.07190099999999999,0.041871,1.105608
766,-19.958801,-5.127031,2.380407,0.080323,-0.0008550000000000001,1.116472
768,-20.019837,2.014191,3.723201,0.033692,0.020630000000000003,0.9980620000000001
770,-20.874342000000002,6.225681,5.9205,0.028443,0.022338999999999998,0.9796290000000001
772,-22.583351999999998,5.3101400000000005,5.554284,-0.006714,0.0028079999999999997,1.013687
774,-21.667811,3.051804,5.432212,-0.037842,0.007812999999999999,1.005264
776,-17.761501000000003,0.061036,0.732433,-0.045411,-0.100343,0.897597
778,-19.104295,-4.8218510000000006,2.50248,-0.021729,-0.01648,1.038102
780,-16.296635000000002,-6.836042,0.793469,-0.028443,-0.028564999999999997,0.9922030000000001
782,-15.442129999999999,-7.324331,-0.122072,-0.009644,-0.041382,1.017472
784,-10.925460000000001,-6.71397,0.30518,-0.016236,-0.048585,0.991348
786,-11.718929,-7.812619000000001,-0.854505,-0.006958,-0.027344,0.9455709999999999
788,-20.080873,-9.643702000000001,0.0,0.018189,-0.036744,0.9858549999999999
790,-22.888533,-7.629511,1.7700470000000001,0.021118,-0.053346000000000005,1.009293
792,-22.888533,-5.859464,2.685588,0.016846,-0.052979,0.989151
794,-24.231327,-5.065995,2.380407,0.001221,-0.052125,0.989395
796,-28.747996999999998,-6.71397,0.671397,0.000366,-0.06994700000000001,1.003922
798,-29.17525,-8.545052,-1.464866,0.014159999999999999,-0.066773,0.989151
800,-31.677729,-8.484016,-0.30518,0.002564,-0.046632,0.942275
802,-47.73022,-5.7984279999999995,2.50248,0.061646000000000006,-0.064942,0.9785309999999999
804,-61.34126800000001,-0.549325,9.033341,0.08215499999999999,-0.162722,1.058122
806,-47.791257,2.136263,8.850233,0.010742,-0.115602,1.043595
808,-28.259709,-1.70901,-6.408789,-0.054444000000000006,-0.162234,1.006485
810,-63.599603,-0.976577,-43.701839,-0.023926,-0.180423,0.9674219999999999
812,-30.457008000000002,-9.643702000000001,-8.178836,0.029053,-0.199466,1.015396
814,-69.336996,-6.2867169999999994,-29.297321999999998,0.062013,0.032958999999999995,1.026749
816,-99.06156999999999,1.70901,-18.310826000000002,-0.0015869999999999999,0.318242,0.791516
818,-191.226062,-40.833143,-42.1149,-0.063233,0.681651,1.369284
820,-700.267033,-33.264668,-41.626612,-0.685191,0.308721,1.845853
822,-911.512932,-144.960708,22.949569,-0.268925,-0.115602,0.80238
824,-789.318685,-78.126192,177.00465400000002,-1.882109,-1.221942,1.9999689999999999
826,288.639658,-31.067369,-9.887846000000001,-0.9267719999999999,0.820203,1.9999689999999999
828,-18.127717999999998,-42.786297,82.825971,-0.675181,0.703014,1.55935
830,135.866331,-13.733120000000001,54.13901,-0.161624,0.411017,0.5933930000000001
832,77.45479499999999,-14.343481,51.575494,0.011353,0.363043,0.687144
834,137.69741399999998,-7.080186,30.395971999999997,0.092409,0.440803,0.969986
836,174.99046299999998,-10.315099,12.878614,0.124636,0.404791,1.261616
838,227.96978700000003,1.8310830000000002,-6.225681,0.083009,0.294072,1.276997
840,271.000229,10.925460000000001,-17.94461,0.030396,0.09362899999999999,1.217914
842,300.236515,10.070953999999999,-23.743038000000002,0.034546,-0.046387,1.167132
844,321.477073,5.61532,-31.555657,0.117433,-0.098634,1.378317
846,340.459297,3.784237,-47.180896000000004,0.158572,-0.201541,1.3716030000000001
848,327.03135699999996,38.086519,-73.426413,0.265019,-0.474983,0.9554590000000001
850,269.96261499999997,87.52575,-87.586786,0.180545,-0.46497299999999997,1.307149
852,253.604944,95.277333,-89.53994,-0.121218,-0.42444499999999996,1.961212
854,249.33241800000002,91.004807,-62.073701,-0.192996,-0.552987,1.9999689999999999
856,324.223697,81.483177,-42.847333,0.09765800000000001,-0.723156,1.9999689999999999
858,356.023499,95.399405,-48.889905999999996,0.6206149999999999,-0.9188370000000001,1.8948040000000002
860,308.537423,117.43343300000001,-69.275959,0.615244,-0.9538719999999999,1.828641
862,268.925002,72.816052,-57.49599499999999,0.023438,-1.6935069999999999,1.9499810000000002
864,179.93438600000002,104.921035,-19.592584,0.5238119999999999,-2.0000310000000003,1.1057299999999999
866,105.104143,170.412757,-33.508812,0.9831690000000001,-2.0000310000000003,-0.694347
868,-48.889905999999996,-9.094377,10.498207,0.153567,-2.0000310000000003,-0.9980620000000001
870,-258.67093900000003,-235.904479,71.473259,0.723278,-0.027710000000000002,1.472313
872,-129.091325,-72.3888,33.875029,-0.538094,1.101701,1.725856
874,-315.678645,-125.307088,104.921035,0.39234,-0.23267,0.338262
876,-298.832685,-65.430686,81.971466,1.7755400000000001,-0.175296,1.9999689999999999
878,-155.703059,-10.986496,-3.234913,0.224369,-0.11535799999999999,1.9999689999999999
880,-127.07713400000002,-92.835889,54.505226,-1.280659,-0.46131099999999997,1.586694
882,-71.778439,-75.684749,10.193027,1.8739299999999999,0.10363900000000001,1.9999689999999999
884,-69.825284,-46.814679,18.554971,-0.406378,-0.026246,1.3561
886,-37.964446,-11.657893,1.8310830000000002,0.163699,-0.005982,1.3078809999999998
888,3.6011290000000002,-16.479744,-0.244144,0.141604,0.09033300000000001,1.0188139999999999
890,-3.173877,-8.1178,1.647974,-0.024537,0.103273,1.039811
892,-6.775005999999999,-3.845274,3.479057,0.08691499999999999,0.051514,1.027726
894,-6.408789,2.868696,6.042573,0.091798,0.049561,1.032609
896,-9.399557000000001,7.751583,5.7984279999999995,0.027955,0.03125,1.0089270000000001
898,-13.427939000000002,5.981537,5.127031,-0.006226,0.042602999999999995,0.927016
900,-15.442129999999999,-0.6103609999999999,2.380407,-0.006836,0.014649,0.9277489999999999
902,-20.202945,-4.21149,1.40383,0.022705,0.031373000000000005,0.977676
904,-21.05745,-2.4414439999999997,1.09865,0.04358,0.008667,0.992081
906,-26.611734000000002,-2.868696,1.8921189999999999,0.01648,0.000732,0.9746239999999999
908,-27.649348,-5.371176,0.549325,0.020752,-0.013184,0.992447
910,-24.719615,-7.507439,0.122072,0.022338999999999998,-0.013428,1.009415
912,-27.283131,-9.338521,-0.48828900000000003,0.01709,0.015747,0.964248
914,-32.166018,-8.239872,-0.122072,0.078859,-0.042847,1.012833
916,-28.259709,-5.7984279999999995,0.0,0.05505499999999999,-0.06286699999999999,1.008682
918,-24.475471,-5.554284,-0.122072,0.033569999999999996,-0.029297000000000004,0.9799950000000001
920,-31.067369,-6.958114,1.09865,0.058717,-0.06713999999999999,0.9956209999999999
922,-33.020523,-2.685588,1.037613,0.052490999999999996,-0.075074,0.964126
924,-34.302281,-1.647974,-0.244144,0.017334,-0.041627,1.005875
926,-43.762875,-0.244144,-0.183108,0.023438,-0.040894,0.854505
928,-61.036088,5.3101400000000005,8.850233,0.066896,-0.139773,1.016129
930,-50.476844,7.629511,9.033341,0.02002,-0.11230599999999999,1.0567790000000001
932,-39.673457,3.967346,-10.254063,-0.049073,-0.064942,0.917983
934,-50.171664,1.09865,-38.025483,-0.07776,-0.297246,1.09279
936,-19.409476,-13.366903,-15.197985999999998,0.22424699999999997,-0.275883,1.1665219999999998
938,-64.08789200000001,12.573433999999999,-22.034028,0.115602,0.156863,1.025284
940,-163.454643,23.86511,-36.49958,-0.24194699999999997,0.581186,0.665293
942,-269.596399,-61.890593,-21.484703,-0.258671,1.131609,1.701442
944,-776.073854,-252.750439,35.339895,-0.168215,0.484993,1.6426029999999998
946,-1057.328145,-240.299077,167.11680800000002,1.328267,-2.0000310000000003,1.9999689999999999
948,140.932326,29.114214,-92.77485300000001,-0.521126,-0.285527,1.9999689999999999
950,93.934539,40.039673,-70.98496999999999,-1.188617,0.9906159999999999,1.3866180000000001
952,-96.070802,-89.784085,119.81383999999998,-0.294194,0.154299,0.648325
954,120.546273,-13.122759,60.425727,-0.061890999999999995,0.603525,0.890517
956,85.51155899999999,15.320058,54.13901,0.03418,0.42298,1.174823
958,162.233921,8.056764,35.278859000000004,0.181765,0.482307,1.1627370000000001
960,206.668193,12.085144999999999,9.399557000000001,0.285405,0.343389,1.122698
962,230.77744700000002,29.846646999999997,-16.296635000000002,0.22485700000000003,0.20141900000000001,0.9980620000000001
964,256.412604,33.936065,-29.541465999999996,0.1449,0.09033300000000001,1.191913
966,284.855421,29.114214,-33.508812,0.16589600000000002,0.004273,1.4779280000000001
968,315.983825,31.006332,-41.199359,0.278325,-0.092409,1.7356220000000002
970,344.97596699999997,43.457694000000004,-57.373922,0.292485,-0.472541,1.407614
972,316.28900600000003,84.901198,-73.548486,0.493904,-0.606332,0.192996
974,216.00671400000002,74.83024300000001,-82.21561,0.29639099999999996,-0.39234,1.4463110000000001
976,215.640497,70.008392,-75.684749,0.062623,-0.488167,1.9999689999999999
978,281.559472,88.31921899999999,-56.641489,-0.073487,-0.863416,1.9999689999999999
980,283.207446,73.731594,-15.991454999999998,0.086671,-1.0432290000000002,1.9999689999999999
982,313.29823799999997,77.45479499999999,-1.159686,0.350958,-1.156756,1.635767
984,267.52117200000004,58.838788,5.249104,0.22741999999999998,-1.4243379999999999,1.62295
986,229.617762,60.547799,12.268253999999999,0.205692,-2.0000310000000003,1.2519719999999999
988,149.66048700000002,106.630045,-16.174563,0.8844129999999999,-2.0000310000000003,0.424201
990,61.646448,156.191348,-41.138323,0.345098,-2.0000310000000003,-0.32654299999999997
992,-169.558251,-93.080034,44.61738,0.268681,-2.0000310000000003,-0.9331200000000001
994,-273.44167200000004,-131.898985,52.491035,0.44641800000000004,-1.9028610000000001,0.045288999999999996
996,-191.531243,-91.126879,30.273899,0.129274,0.980484,1.9999689999999999
998,-245.243,-71.595331,39.917601,0.06836,-0.38501599999999997,1.56875
1000,-218.936446,-28.686961,36.133364,0.670542,-0.185428,1.9999689999999999
1002,-129.213397,9.338521,12.512398,-0.435065,0.14038299999999998,1.113298
1004,-108.5832,-91.248951,24.902724,0.604379,-0.319829,1.9999689999999999
1006,-44.007019,-12.024109,0.244144,-0.07190099999999999,0.200076,1.191547
1008,-39.124132,-33.264668,0.854505,0.22937399999999997,0.11914200000000001,1.4271459999999998
1010,-21.667811,-8.484016,-0.30518,-0.12195,-0.079957,1.038102
1012,-15.442129999999999,-19.34844,1.525902,0.037354000000000005,0.039550999999999996,1.044327
1014,-14.709697,-19.226368,1.159686,0.063233,0.058717,1.017838
1016,-15.991454999999998,-12.390326,0.671397,0.022216999999999997,-0.036988,1.048966
1018,-21.606775,-8.911269,2.563516,0.050660000000000004,-0.025879000000000003,0.986099
1020,-16.052491,-5.3101400000000005,3.234913,0.095338,-0.008179,1.031998
1022,-14.526589000000001,-2.746624,3.051804,-0.053956,0.136965,1.190936
1024,-17.151141,-5.554284,3.051804,0.000977,-0.049194999999999996,0.958633
1026,-16.906996,-7.9957270000000005,0.9155409999999999,0.008301000000000001,-0.011963,0.9950100000000001
1028,-15.869383,-8.484016,0.549325,0.03418,0.051637,1.0560459999999998
1030,-16.174563,-6.897078,0.854505,0.041260000000000005,0.028931000000000002,1.0724040000000001
1032,-12.024109,-5.127031,0.366217,0.027710000000000002,-0.037964,1.0285799999999998
1034,-13.855192,-5.7984279999999995,0.549325,0.028808999999999998,-0.002075,0.976822
1036,-19.775692000000003,-7.812619000000001,-0.183108,0.045167,-0.017334,0.985977
1038,-20.813306,-6.836042,0.244144,0.06067,-0.061158000000000004,1.000626
1040,-18.860151000000002,-6.530861,1.159686,0.05505499999999999,-0.06543099999999999,0.9942780000000001
1042,-18.371862,-6.71397,2.929732,0.029664,-0.016846,1.016373
1044,-28.747996999999998,-3.845274,2.929732,0.10815599999999999,-0.029053,1.007462
1046,-36.804761,-1.159686,2.685588,0.10071000000000001,-0.07422000000000001,1.032242
1048,-39.795528999999995,1.037613,1.8310830000000002,0.051637,-0.104005,0.9904940000000001
1050,-40.40589,4.638743,2.319371,0.087404,-0.015869,0.977188
1052,-58.716716000000005,8.300908,7.385367,0.052247,-0.107546,0.985367
1054,-54.566262,10.559242999999999,6.225681,0.007691,-0.119997,0.9555809999999999
1056,-44.861523999999996,2.075227,-15.014878,-0.035644999999999996,-0.198245,1.05922
1058,-54.077974,5.859464,-41.931792,0.126711,-0.33814,1.0309
1060,-15.075914000000001,5.859464,-2.075227,0.15149200000000002,-0.174441,1.085588
1062,-62.256809,22.949569,-23.682002,0.064576,0.188724,0.9594870000000001
1064,-183.047227,27.710384,-39.124132,-0.109377,0.687022,0.623667
1066,-354.619669,-42.1149,-48.401617,0.091798,1.498436,1.769802
1068,-827.832456,-208.68238300000002,40.71107,-0.589242,0.167849,1.614771
1070,-1227.740902,-288.700694,195.193408,1.039933,-1.677516,1.9999689999999999
1072,316.044862,-4.638743,-87.281605,-0.290532,0.9823149999999999,1.9999689999999999
1074,177.553979,19.836728,-89.53994,-0.729992,1.258198,0.66566
1076,-63.233387,-64.881361,51.697565999999995,-0.337652,0.485237,0.300053
1078,106.813153,-4.333562000000001,7.141222,-0.142824,0.503304,0.716808
1080,75.31853199999999,2.50248,4.394598,-0.112551,0.45374200000000003,1.088518
1082,157.595178,7.6905470000000005,-7.446403,-0.061890999999999995,0.505867,1.2330510000000001
1084,199.832151,20.019837,-15.991454999999998,-0.028808999999999998,0.367437,1.4115209999999998
1086,247.74548,42.1149,-25.024796,0.00293,0.224735,1.26833
1088,279.545281,53.101395999999994,-29.114214,0.076417,0.074586,1.149432
1090,293.278401,48.340581,-33.020523,0.205692,0.032349,1.335225
1092,309.94125299999996,52.552071,-47.608148,0.31043000000000004,-0.153445,1.277485
1094,289.127947,91.798276,-61.951629000000004,0.23804099999999997,-0.472786,1.0520180000000001
1096,254.03219700000002,110.170138,-69.88632,0.378424,-0.333013,1.121233
1098,208.560311,107.17936999999999,-67.933165,0.126345,-0.354498,1.9999689999999999
1100,255.130846,112.79468999999999,-53.894865,-0.003662,-0.768688,1.9999689999999999
1102,248.844129,123.781186,-28.015564,-0.136965,-0.9588770000000001,1.9999689999999999
1104,280.76600299999996,105.77553999999999,13.855192,-0.145998,-1.2120549999999999,1.9999689999999999
1106,297.367819,100.770581,37.781338,0.506233,-1.2771190000000001,1.696925
1108,264.46936800000003,60.303655000000006,41.321431,0.407111,-1.670924,1.567407
1110,214.297704,37.59823,45.654994,0.491829,-2.0000310000000003,0.970474
1112,129.213397,62.928206,-17.334249,1.380636,-2.0000310000000003,-0.136965
1114,13.977264000000002,79.10276999999999,-53.528649,0.476814,-2.0000310000000003,-0.6560159999999999
1116,-118.471046,-95.155261,2.868696,-0.107546,-2.0000310000000003,-1.4425270000000001
1118,-168.276493,-115.35820600000001,17.883574,0.498421,-0.187869,1.898222
1120,-232.669566,-71.595331,25.696193,-0.475471,0.404913,-0.306523
1122,-366.216526,-65.186542,70.313573,0.488777,-0.658579,1.9999689999999999
1124,-180.239567,8.972305,14.282444,0.8847790000000001,-0.320806,1.9999689999999999
1126,-72.266728,-36.316472,25.452049,-1.135637,-0.597787,1.2383
1128,-63.53856700000001,-62.378882,24.719615,1.123796,0.148928,1.882475
1130,-39.551384999999996,-37.90341,14.404517000000002,-0.30640100000000003,0.031495,0.9483790000000001
1132,-42.969406,-11.535821,1.7700470000000001,0.179202,-0.051026,1.287984
1134,-23.86511,-5.61532,3.784237,0.135622,0.00647,1.167498
1136,-10.620279,5.0049589999999995,3.051804,-0.08838,0.026246,1.023087
1138,-12.451362,4.394598,3.90631,-0.013916,0.044068,0.981216
1140,-16.235599,4.028382,3.6011290000000002,-0.011353,0.034913,1.0118559999999999
1142,-17.578393,6.652933999999999,4.089418,0.003662,0.010131999999999999,1.0278479999999999
1144,-16.357671,8.972305,4.699779,0.000366,-0.008301000000000001,1.047501
1146,-9.704738,9.338521,4.699779,-0.054077999999999994,0.0043950000000000005,0.9753569999999999
1148,-12.939651,3.6621650000000003,3.234913,-0.0365,0.038575,0.968276
1150,-17.151141,-0.854505,1.7700470000000001,-0.046632,0.013793999999999999,0.952407
1152,-18.127717999999998,-3.723201,0.732433,-0.048585,0.06640700000000001,1.028702
1154,-22.1561,-4.882887,1.342794,-0.034302,-0.027710000000000002,1.026139
1156,-21.05745,-5.9205,2.014191,-0.039429,-0.031617,1.029435
1158,-16.296635000000002,-8.056764,0.366217,-0.01648,0.004761,0.9952540000000001
1160,-16.601816,-9.033341,-1.09865,-0.008667,-0.028564999999999997,0.987808
1162,-19.34844,-8.728161,-0.366217,-0.048463,0.009033,1.094133
1164,-19.470512,-8.667124000000001,0.549325,0.012329000000000001,-0.084108,0.9870760000000001
1166,-19.043259,-5.859464,1.342794,0.006592,-0.039063,0.995743
1168,-28.747996999999998,-4.882887,2.136263,-0.008789,-0.019776,1.003433
1170,-32.654307,-6.71397,1.647974,-0.005249,-0.020386,0.9799950000000001
1172,-46.021209999999996,-9.216449,0.9155409999999999,-0.032837,-0.027832,0.9351950000000001
1174,-48.401617,-9.338521,2.014191,0.029664,-0.065187,1.001846
1176,-52.552071,-4.089418,8.056764,0.044556,-0.171756,0.964614
1178,-46.082246000000005,-4.150454,7.263294,0.011597,-0.124758,1.147601
1180,-34.729534,-3.540093,-0.793469,-0.079591,-0.082399,0.9828030000000001
1182,-46.753643,-11.108568,-22.034028,-0.041505,-0.108278,0.980728
1184,-80.567636,3.418021,-44.678416,0.030518,-0.282109,1.116472
1186,-23.010604999999998,-11.779964999999999,-2.2583349999999998,0.017945,-0.122438,0.949111
1188,-69.092851,-5.249104,-19.165332,0.014159999999999999,0.108278,0.937392
1190,-124.20843799999999,-15.503166,-4.577707,-0.083986,0.441535,0.749645
1192,-250.919356,-32.043946000000005,-49.561303,0.049928,0.969741,1.583764
1194,-841.80972,-18.127717999999998,-10.315099,-0.5457850000000001,0.125124,1.870268
1196,-1027.4204619999998,-53.467613,67.689021,1.043107,-2.0000310000000003,1.9999689999999999
1198,22.949569,-60.24261800000001,-96.92530699999999,-0.656138,-1.061295,1.9999689999999999
1200,186.58732,-26.67277,-65.918975,-0.361944,0.9167620000000001,1.009415
1202,-56.763560999999996,-102.235447,65.125505,-0.421271,0.46131099999999997,0.521004
1204,105.714504,-56.519417000000004,32.349126,-0.233158,0.48377200000000004,0.519173
1206,79.10276999999999,-38.086519,34.058137,-0.175906,0.406378,1.199603
1208,150.209812,-32.532235,23.132676999999997,-0.10925499999999999,0.49256099999999997,1.208026
1210,201.29701699999998,-19.714656,7.507439,-0.005005,0.373053,0.976944
1212,221.43892599999998,1.159686,-8.1178,0.009033,0.236454,1.152239
1214,266.239414,3.540093,-19.043259,0.011109,0.10888800000000001,1.235859
1216,297.001602,3.784237,-28.564889,0.066896,0.02002,1.2099790000000001
1218,313.786526,17.883574,-40.40589,0.07715,-0.14038299999999998,1.322286
1220,307.988098,47.73022,-51.209277,0.08069,-0.527718,0.718517
1222,253.48287200000001,61.036088,-59.266041,0.294926,-0.367193,1.0428629999999999
1224,215.76257,71.534295,-71.229114,0.080568,-0.319585,1.9999689999999999
1226,269.35225499999996,83.070115,-64.576181,-0.290043,-0.748791,1.9999689999999999
1228,267.460136,76.295109,-30.212863,-0.335088,-0.8729379999999999,1.9999689999999999
1230,323.308156,66.468299,-11.718929,-0.119875,-1.088884,1.9999689999999999
1232,262.333104,99.24467800000001,-7.263294,0.201907,-1.0047760000000001,1.7167009999999998
1234,270.878157,93.568322,-10.009917999999999,0.43299,-1.1932559999999999,1.9999689999999999
1236,246.158541,77.57686700000001,-7.9957270000000005,0.409918,-1.7809110000000001,1.03505
1238,149.233234,69.764248,-15.808347,0.845716,-2.0000310000000003,0.802625
1240,85.63363100000001,130.983444,-68.787671,0.7013050000000001,-2.0000310000000003,0.215579
1242,2.929732,56.092164000000004,-33.325703999999995,-0.543954,-2.0000310000000003,-2.0000310000000003
1244,-275.089647,-268.619821,81.422141,0.890394,-2.0000310000000003,-0.032349
1246,-141.237507,-62.378882,29.663539,-0.429328,0.948623,1.9999689999999999
1248,-300.297551,-134.645609,81.666285,0.754406,-0.274174,0.35339899999999996
1250,-292.423896,-73.487449,55.542840000000005,1.4655989999999999,-0.188968,1.9999689999999999
1252,-130.495155,9.887846000000001,-10.742351,0.16552999999999998,-0.074952,1.5321280000000002
1254,-160.341802,-66.285191,49.134051,-1.2282899999999999,-0.615488,1.638453
1256,-58.838788,-63.721675,10.864424,1.447776,-0.027344,1.8890669999999998
1258,-64.51514499999999,-42.664225,10.925460000000001,-0.406622,-0.046021,1.029191
1260,-39.185168,-13.488975,-3.723201,0.142092,-0.025513,1.061295
1262,-15.869383,-17.761501000000003,-3.051804,0.122927,0.041138,0.995743
1264,-18.554971,-3.295949,0.0,0.028321,-0.02356,1.0669110000000002
1266,-21.972992,7.751583,2.075227,0.040894,-0.001099,1.047501
1268,-16.113526999999998,10.864424,4.882887,0.09094400000000001,0.081788,1.060563
1270,-15.442129999999999,12.695506,5.7984279999999995,0.019165,0.003662,0.984878
1272,-17.395285,8.789197,4.882887,-0.025757,-0.018433,1.006607
1274,-13.305867000000001,5.188067,3.356985,-0.01001,-0.030518,1.007462
1276,-11.535821,3.173877,2.4414439999999997,0.008667,-0.029541,0.999283
1278,-10.864424,1.953155,2.136263,0.013793999999999999,-0.033082,0.9820709999999999
1280,-7.873655,1.281758,1.342794,0.013184,-0.040527999999999995,1.0160069999999999
1282,-4.8218510000000006,0.9155409999999999,1.037613,-0.00293,-0.037964,0.9959870000000001
1284,-7.446403,-1.953155,1.037613,-0.006226,-0.033569999999999996,0.9393450000000001
1286,-12.268253999999999,-6.164645,0.549325,0.003418,-0.071046,0.949966
1288,-11.474784,-6.775005999999999,0.793469,0.007201999999999999,-0.025269,1.031144
1290,-11.108568,-6.225681,0.366217,0.030518,-0.062013,0.999283
1292,-13.733120000000001,-5.676356,0.183108,0.018921,-0.035157,0.9907379999999999
1294,-21.301595000000002,-5.065995,1.037613,0.015747,-0.035401,0.985367
1296,-25.940337,-5.737392,0.793469,0.002564,-0.020996,0.983291
1298,-31.372549,-5.371176,0.48828900000000003,0.006226,-0.045899,0.9952540000000001
1300,-33.508812,-5.61532,-1.464866,0.033569999999999996,-0.079713,1.029068
1302,-30.579079999999998,-4.699779,-2.624552,-0.010986,-0.050538,0.96791
1304,-41.138323,-3.479057,5.493248,0.033448,-0.135134,1.022354
1306,-37.90341,4.8218510000000006,8.178836,0.028687,-0.092287,1.033219
1308,-42.298009,5.0049589999999995,7.263294,-0.026978,-0.036744,1.0167389999999998
1310,-46.814679,2.197299,-8.178836,-0.037232,-0.15173599999999998,0.938003
1312,-64.759289,-1.464866,-32.104982,-0.036133,-0.007324,0.999527
1314,-48.401617,-1.7700470000000001,-21.911955,0.125124,-0.428962,1.126116
1316,-53.223468000000004,-3.295949,-20.752270000000003,0.09289700000000001,0.23987199999999997,0.957046
1318,-122.072175,6.775005999999999,-12.573433999999999,-0.019532,0.35169,0.571054
1320,-275.516899,-27.588312,-32.837415,0.025269,1.236591,1.182513
1322,-684.5807580000001,-96.25391,-17.700464999999998,-0.553719,-0.095705,1.1651790000000002
1324,-904.9820710000001,-217.47158,79.89623900000001,0.425422,-0.391119,1.096574
1326,-417.425803,-123.292897,71.412222,-0.750134,-0.563851,1.9999689999999999
1328,329.777981,46.997787,-110.780499,-0.164553,1.571801,1.973541
1330,3.051804,6.71397,-21.301595000000002,-0.670787,0.35217800000000005,0.03418
1332,75.31853199999999,7.263294,-6.347753,-0.511238,0.017456,0.167605
1334,50.293735999999996,1.586938,19.592584,-0.36548400000000003,0.255131,0.537362
1336,108.155947,7.812619000000001,30.151827,-0.250248,0.344488,0.994034
1338,142.763409,11.841001,32.715343,-0.057008,0.38233,1.503929
1340,216.18982200000002,32.654307,18.554971,0.053712,0.281498,1.547021
1342,263.920043,53.04036,6.347753,0.042602999999999995,0.042359,1.353048
1344,298.89372099999997,48.462654,4.699779,0.072389,-0.149172,1.224872
1346,317.021439,25.574120999999998,-1.8921189999999999,0.289433,-0.158816,1.198871
1348,314.213779,36.377508,-31.799802000000003,0.45716,-0.42847299999999994,0.690562
1350,250.125887,77.759976,-59.937438,0.338018,-0.47156499999999996,0.8392459999999999
1352,226.07766800000002,64.881361,-79.041733,0.24048200000000003,-0.26978,1.774929
1354,226.260777,80.5066,-79.835203,-0.016114,-0.6026699999999999,1.9999689999999999
1356,261.295491,106.813153,-70.679789,-0.15698499999999999,-0.9073620000000001,1.9411919999999998
1358,242.252232,96.620127,-38.147555,-0.129885,-1.092668,1.9999689999999999
1360,264.46936800000003,112.733654,-20.019837,0.171389,-1.037858,1.901152
1362,249.027237,104.55481800000001,-7.324331,0.240116,-1.193622,1.6954599999999997
1364,223.025864,72.327764,5.432212,0.205814,-1.5434809999999999,1.5049059999999999
1366,194.277867,51.63653,3.479057,0.486946,-2.0000310000000003,1.07863
1368,130.7393,89.53994,-29.907683000000002,0.749889,-2.0000310000000003,0.34460999999999997
1370,54.077974,84.71809,-23.620966,0.17993399999999998,-2.0000310000000003,-0.664317
1372,-151.857786,-145.632105,71.351186,-0.035035000000000004,-2.0000310000000003,-1.357565
1374,-133.485924,-155.886168,64.51514499999999,0.708629,0.180667,1.9999689999999999
1376,-204.470893,-108.461128,70.740826,0.455329,0.826673,0.404547
1378,-310.246433,-70.435645,47.913329,0.8302129999999999,-0.287358,1.6638439999999999
1380,-218.509194,6.225681,5.676356,0.351446,-0.569711,1.9999689999999999
1382,-134.95078999999998,-52.796216,38.025483,-0.969986,-0.607431,1.859403
1384,-44.373236,-63.782712,16.540779999999998,1.4425270000000001,0.270268,1.9075
1386,-72.69398000000001,-20.080873,16.662851999999997,-0.6119479999999999,-0.067506,1.0188139999999999
1388,-46.082246000000005,-35.584039000000004,0.671397,0.292485,0.07483,1.303609
1390,-11.841001,-33.325703999999995,-0.976577,-0.019898,-0.026001,1.081559
1392,-39.00206,-29.602502,1.342794,0.0035399999999999997,-0.110597,1.177142
1394,-8.667124000000001,-22.827497,0.0,0.11133,0.032715,1.0272370000000002
1396,-6.591897,-14.953841,1.159686,0.082277,0.026246,0.99379
1398,-20.813306,-9.582666,2.2583349999999998,0.069337,-0.052125,1.055192
1400,-14.953841,-5.554284,2.990768,0.069337,0.034302,1.02797
1402,-15.381094000000001,-7.812619000000001,2.014191,0.032105,-0.03772,1.028214
1404,-13.977264000000002,-6.591897,1.09865,0.057252,-0.028687,1.02211
1406,-13.916228,-4.8218510000000006,1.40383,0.038819,0.00061,0.98146
1408,-24.719615,-5.9205,0.976577,0.046387,-0.068727,0.932143
1410,-20.996414,-6.408789,-0.366217,0.062623,-0.044677999999999995,1.006607
1412,-16.601816,-5.188067,-0.549325,0.047242,-0.072145,1.026017
1414,-13.000687,-4.333562000000001,-0.183108,0.057617999999999996,-0.076295,1.023575
1416,-8.606088,-4.577707,0.0,0.049683,-0.058838999999999995,0.9865870000000001
1418,-11.169604,-5.3101400000000005,-0.48828900000000003,0.06482,-0.06482,1.002945
1420,-13.000687,-3.356985,0.0,0.097536,-0.060913999999999996,1.050187
1422,-8.361944,0.244144,0.48828900000000003,0.073732,-0.07531900000000001,1.013443
1424,-7.568475,1.09865,0.549325,0.055299,-0.091554,0.988174
1426,-10.864424,-0.549325,-0.366217,0.046754000000000004,-0.061036,0.972793
1428,-17.334249,-1.2207219999999999,-2.136263,0.089723,0.001221,1.0370030000000001
1430,-12.878614,-1.70901,-4.21149,0.072389,-0.085084,0.9668120000000001
1432,-26.550697999999997,1.342794,-4.943923000000001,0.08191,-0.094118,1.017227
1434,-18.860151000000002,5.0049589999999995,0.671397,0.070924,-0.138308,1.0215
1436,-15.442129999999999,6.408789,2.014191,0.068482,-0.10998699999999999,1.025772
1438,-16.113526999999998,7.9957270000000005,0.30518,0.045777,-0.06958099999999999,0.994034
1440,-19.897765,9.338521,0.0,0.014527000000000002,-0.005005,0.916518
1442,-52.67414399999999,9.338521,-4.699779,0.030151999999999998,-0.050538,0.9959870000000001
1444,-56.336309,11.902037,-9.765774,0.080568,-0.076051,0.9198139999999999
1446,-70.679789,12.451362,-25.146867999999998,-0.037598,-0.164553,0.9745020000000001
1448,-62.073701,8.1178,-38.025483,0.16101300000000002,-0.25757199999999997,0.904799
1450,-43.51873,16.174563,-11.657893,0.098024,0.072145,0.89955
1452,-136.04943899999998,10.315099,-7.934691,0.000244,0.0008550000000000001,0.721324
1454,-214.41977599999998,-6.591897,-14.953841,0.087037,0.134401,1.045548
1456,-370.67216,-81.849393,26.67277,-0.34058099999999997,-0.275395,1.136004
1458,-397.71114700000004,-127.443351,22.888533,0.10461600000000001,-0.404303,0.8841690000000001
1460,-408.51453399999997,-115.114061,26.367590000000003,0.425177,-0.061402,1.91165
1462,-246.158541,-27.283131,3.90631,-0.19372899999999998,-0.024903,1.9999689999999999
1464,134.462501,52.552071,-52.918288000000004,-0.327153,0.548104,1.701198
1466,103.761349,17.578393,-8.606088,-0.386847,-0.00293,0.674937
1468,130.983444,31.921874,7.263294,-0.236454,0.079225,0.572641
1470,157.595178,46.692607,12.63447,-0.108766,0.061769000000000004,0.911391
1472,186.404211,54.13901,9.277485,0.050660000000000004,0.051514,1.052384
1474,223.20897200000002,53.345541000000004,-0.122072,0.120851,0.029541,1.0998700000000001
1476,250.736248,48.767834,-11.902037,0.14648699999999998,-0.120119,0.8855120000000001
1478,248.783093,44.739452,-12.32929,-0.21521300000000002,-0.29443800000000003,0.9511860000000001
1480,250.06485099999998,25.879301,21.789883,-0.469001,-0.568246,1.393576
1482,260.502022,53.955901000000004,49.317159000000004,-0.10241900000000001,-0.720958,1.463157
1484,242.74052000000003,92.59174499999999,59.388113,0.196048,-1.011978,1.4646219999999999
1486,218.142977,97.962921,59.876402,0.34107,-1.330098,1.254047
1488,173.464561,69.764248,57.862211,0.3617,-1.524804,0.79884
1490,114.68680900000001,17.090104999999998,46.082246000000005,0.31091799999999997,-1.510643,0.34107
1492,-28.992141999999998,-83.680476,26.062409,0.094118,-1.953643,-1.2717479999999999
1494,-280.094606,-160.158694,80.689708,-0.606332,-1.2131530000000001,1.9999689999999999
1496,268.558785,21.667811,62.134737,0.085084,-0.343023,0.9212790000000001
1498,124.51361899999999,40.466926,-40.772107,-0.459113,1.310811,-1.007462
1500,-302.61692200000005,-58.533607999999994,79.77416600000001,0.28455,-0.566049,1.349508
1502,72.877089,3.90631,-18.371862,-0.105715,0.061524,0.562875
1504,-42.542153000000006,-7.812619000000001,1.8921189999999999,0.06713999999999999,-0.11194000000000001,1.1305100000000001
1506,-21.05745,-10.620279,-1.464866,0.036988,-0.037842,1.105241
1508,-9.338521,-7.9957270000000005,-2.624552,0.002564,0.003906,1.022599
1510,-2.868696,-2.197299,-0.48828900000000003,-0.007201999999999999,-0.019165,1.00502
1512,-9.887846000000001,-3.356985,1.159686,0.000366,0.005615,0.9640040000000001
1514,-13.794156,-5.188067,1.2207219999999999,0.012206999999999999,-0.008301000000000001,0.991836
1516,-9.277485,-3.845274,0.732433,0.019043,-0.032593000000000004,1.032242
1518,-8.056764,-2.80766,0.30518,0.012695999999999999,-0.030883999999999998,1.03859
1520,-2.990768,-1.586938,0.0,0.012573,-0.021118,0.9908600000000001
1522,-8.1178,-2.50248,0.30518,0.001343,-0.006836,0.9579
1524,-11.413748,-3.295949,0.244144,0.009276999999999999,-0.041016000000000004,1.028946
1526,-6.897078,-2.685588,-0.30518,0.024781,-0.049439,1.029679
1528,-3.6011290000000002,-1.8921189999999999,-0.549325,0.022827,-0.042969,1.020645
1530,-0.793469,-0.9155409999999999,-0.183108,0.017212,-0.051514,1.018448
1532,-1.09865,-0.976577,0.427253,0.011353,-0.021241,0.9611959999999999
1534,-8.056764,-2.80766,0.9155409999999999,0.013672,-0.020874,0.9865870000000001
1536,-6.591897,-2.685588,0.671397,0.025025,-0.038575,1.014542
1538,-4.699779,-2.136263,0.30518,0.021973,-0.048707,1.017838
1540,-2.2583349999999998,-1.40383,0.0,0.017945,-0.046754000000000004,1.016251
1542,-0.061036,-1.09865,-0.48828900000000003,0.016236,-0.045533,1.002457
1544,-0.366217,-1.525902,-0.48828900000000003,0.020752,-0.034424,0.996475
1546,-1.159686,-1.464866,-0.244144,0.028443,-0.040162,0.9980620000000001
1548,-1.40383,-0.549325,0.0,0.027832,-0.05005,1.0276040000000002
1550,0.183108,0.244144,-0.122072,0.020874,-0.044677999999999995,1.0095370000000001
1552,1.159686,0.30518,-0.671397,0.032958999999999995,-0.063355,1.012222
1554,2.685588,1.159686,-0.48828900000000003,0.013793999999999999,-0.035401,1.005509
1556,2.990768,1.342794,-0.6103609999999999,0.027222000000000003,-0.040772,1.0127110000000001
1558,4.333562000000001,2.319371,-0.671397,0.032593000000000004,-0.047608,1.023819
1560,5.371176,4.089418,-0.366217,0.029297000000000004,-0.047486,1.023331
1562,7.812619000000001,5.554284,0.0,0.023316,-0.039429,1.006485
1564,9.399557000000001,5.61532,-0.366217,0.010742,-0.029419,0.9986719999999999
1566,5.9205,4.150454,-0.6103609999999999,0.005737,-0.033936,0.9994049999999999
1568,11.413748,5.371176,0.0,0.022095,-0.039796,0.996597
1570,5.432212,2.929732,0.793469,0.004883,0.022583000000000002,0.928847
1572,-2.4414439999999997,0.793469,0.549325,0.012085,-0.032837,1.015152
1574,1.7700470000000001,2.014191,0.9155409999999999,0.016724,-0.038087,1.0309
1576,4.8218510000000006,2.80766,1.342794,0.005005,-0.018067,0.996109
1578,1.159686,0.976577,0.671397,-0.005005,-0.013916,0.9823149999999999
1580,3.173877,-3.784237,-0.244144,-0.0074459999999999995,-0.007324,0.9720610000000001
1582,0.366217,-4.638743,0.061036,-0.0074459999999999995,-0.029664,0.983291
1584,-2.4414439999999997,-2.014191,0.793469,0.027587999999999998,-0.014282,0.986099
1586,-4.638743,-2.929732,0.732433,0.003906,-0.016968,1.002579
1588,1.281758,-4.943923000000001,-1.40383,-0.017945,0.062623,0.8809950000000001
1590,-8.728161,-11.474784,-3.295949,0.029664,-0.05651900000000001,1.059831
1592,-4.21149,-4.394598,-1.586938,0.092287,-0.070924,1.095842
1594,1.586938,8.606088,2.075227,0.035157,-0.040284,1.036637
1596,-4.455634,1.70901,0.122072,-0.032349,0.008667,0.9525290000000001
1598,-3.173877,-3.540093,-1.70901,0.00293,-0.028199000000000002,0.992325
1600,3.723201,-6.103609,-3.1128400000000003,0.047486,-0.056641,1.0717940000000001
1602,8.300908,-3.6011290000000002,-2.746624,0.058227999999999995,0.026368,0.9668120000000001
1604,-10.070953999999999,0.793469,0.30518,0.04358,-0.000122,0.9719389999999999
1606,-8.1178,3.845274,1.342794,-0.005615,-0.013916,0.9779200000000001
1608,-3.356985,1.037613,0.366217,0.008911,-0.049073,1.019059
1610,-6.530861,-1.40383,-0.183108,0.01709,-0.052369000000000006,1.0394450000000002
1612,-6.225681,-1.7700470000000001,-0.30518,0.010498,-0.042847,1.0156399999999999
1614,-1.159686,-2.075227,-0.793469,0.020263999999999997,-0.017578,0.9863430000000001
1616,0.122072,-0.6103609999999999,-0.244144,0.023194,-0.018921,0.9911040000000001
1618,0.366217,0.671397,-0.244144,0.0177,-0.029786,0.993668
1620,-0.9155409999999999,0.671397,-0.183108,0.031738999999999996,-0.0542,1.050187
1622,2.4414439999999997,1.70901,-0.244144,-0.003052,-0.037354000000000005,1.00502
1624,4.577707,0.244144,-1.037613,0.025025,-0.035401,1.01735
1626,7.141222,1.647974,-0.549325,0.022095,-0.021606999999999998,0.981216
1628,-1.159686,2.136263,0.671397,0.012206999999999999,0.009522,0.9587549999999999
1630,-7.080186,2.2583349999999998,0.0,0.025757,-0.037964,1.0272370000000002
1632,0.366217,3.418021,-4.028382,0.030396,-0.049561,1.014298
1634,-6.042573,-0.9155409999999999,0.0,-0.000977,-0.04773,0.993179
1636,-2.746624,-2.990768,-0.854505,0.018799,-0.019653999999999998,1.015396
1638,0.732433,-1.342794,-1.037613,0.026489999999999996,-0.025391,0.998184
1640,0.061036,-1.342794,-2.136263,0.011963,-0.025635,0.999771
1642,-2.563516,-2.2583349999999998,0.0,0.030396,-0.01294,0.995865
1644,-4.5166699999999995,-0.793469,0.061036,0.025513,-0.025757,1.016129
1646,-2.624552,0.0,0.30518,0.037110000000000004,-0.031617,1.0213780000000001
1648,-5.3101400000000005,0.48828900000000003,-0.122072,0.0043950000000000005,-0.033569999999999996,0.9950100000000001
1650,-4.943923000000001,-1.09865,0.0,0.021485,-0.036866,1.008438
1652,-2.624552,-1.40383,0.671397,0.019898,0.0031739999999999997,0.9871979999999999
1654,-5.737392,-2.136263,0.122072,0.015625,-0.030518,0.9873200000000001
1656,-3.051804,-1.586938,-0.122072,0.014282,-0.05285700000000001,1.033097
1658,3.173877,-1.159686,0.244144,0.015503,-0.019532,0.9751129999999999
1660,8.545052,-0.976577,1.159686,0.028808999999999998,-0.021363,1.009659
1662,4.5166699999999995,-2.136263,2.685588,0.023438,-0.036011,0.989883
1664,3.723201,-1.647974,1.7700470000000001,0.025513,-0.025635,0.997818
1666,-0.549325,-1.7700470000000001,1.40383,0.024659,-0.013428,0.988174
1668,-0.48828900000000003,-0.549325,0.061036,0.034668,-0.014771000000000001,1.00441
1670,-1.647974,0.427253,-0.30518,0.035889,-0.030518,1.015885
1672,0.549325,1.342794,-0.244144,0.026368,-0.022461000000000002,1.00148
1674,-1.7700470000000001,0.366217,-0.6103609999999999,0.026123,-0.028808999999999998,1.002945
1676,-0.30518,0.427253,-0.549325,0.023926,-0.026733999999999997,1.000504
1678,1.586938,0.244144,-0.183108,0.016724,-0.027466,0.984756
1680,0.793469,-0.30518,0.366217,0.020996,-0.022705,0.9991610000000001
1682,-1.09865,-0.6103609999999999,0.48828900000000003,0.018799,-0.021363,1.001602
1684,-1.464866,-0.061036,0.061036,0.031127999999999996,-0.020752,1.007095
1686,-2.2583349999999998,0.6103609999999999,-0.244144,0.021363,-0.029541,1.006485
1688,-2.50248,0.427253,-0.6103609999999999,0.016114,-0.024537,0.993423
1690,-2.319371,0.671397,-1.159686,0.029419,-0.021118,0.992813
1692,-5.9205,0.9155409999999999,-1.037613,0.022705,-0.014771000000000001,0.9983059999999999
1694,-9.155413000000001,1.037613,-0.9155409999999999,0.024413999999999998,-0.034058,1.005631
1696,-6.164645,0.976577,-0.793469,0.021973,-0.042481,1.0053860000000001
1698,-4.455634,1.037613,-0.366217,0.018555000000000002,-0.034424,1.003922
1700,-1.525902,0.732433,-0.671397,0.02356,-0.041749,1.005997
1702,-3.845274,-0.244144,-0.48828900000000003,0.033204000000000004,-0.034668,0.982925
1704,4.577707,1.037613,-0.244144,0.021729,-0.014771000000000001,0.9952540000000001
1706,0.30518,0.549325,-0.244144,0.025391,-0.029297000000000004,1.00502
1708,-1.647974,0.183108,-0.183108,0.018921,-0.03772,1.0008700000000001
1710,-0.366217,0.0,-0.427253,0.020386,-0.027344,1.00441
1712,-1.647974,-0.183108,-0.366217,0.020996,-0.038697,1.003922
1714,0.793469,0.122072,-0.854505,0.022216999999999997,-0.034302,0.9952540000000001
1716,1.342794,0.183108,0.0,0.005493,-0.032227,1.005509
1718,0.244144,-0.427253,0.549325,0.006104,-0.028076999999999998,0.9973299999999999
1720,0.732433,0.061036,0.244144,0.008057,-0.025879000000000003,1.000381
1722,1.342794,0.122072,-0.30518,0.024291999999999998,-0.033814,1.0036770000000002
1724,-0.976577,-0.244144,-0.122072,0.026978,-0.03003,1.0089270000000001
