Packet number,Gyroscope X (deg/s),Gyroscope Y (deg/s),Gyroscope Z (deg/s),Accelerometer X (g),Accelerometer Y (g),Accelerometer Z (g)
0,-0.48828900000000003,-0.244144,0.0,0.00061,0.009033,1.0047760000000001
2,-0.427253,-0.183108,0.061036,-0.00415,0.009766,0.996109
4,-0.183108,-0.366217,-0.183108,-0.00061,0.00061,1.006729
6,0.244144,-0.30518,0.0,-0.00647,0.006226,0.996353
8,-0.427253,-0.366217,0.0,-0.0031739999999999997,0.001343,0.997574
10,-0.9155409999999999,-0.48828900000000003,0.0,-0.008545,0.007691,0.9903719999999999
12,-1.40383,-0.549325,-0.122072,-0.0021969999999999997,0.01001,0.9953770000000001
14,-0.976577,-0.549325,0.0,-0.003906,0.00647,1.002335
16,-0.48828900000000003,-0.427253,0.0,0.000244,0.005005,1.0047760000000001
18,-0.6103609999999999,-0.48828900000000003,0.0,-0.003906,0.0063479999999999995,0.995865
20,-0.366217,-0.48828900000000003,0.0,-0.00293,0.010742,0.9922030000000001
22,-0.366217,-0.48828900000000003,-0.122072,0.001099,0.0058590000000000005,0.991836
24,-1.464866,-0.6103609999999999,0.0,-0.004761,0.005371,0.9944
26,-0.6103609999999999,-0.366217,0.0,-0.003418,0.005005,0.9986719999999999
28,-0.549325,-0.244144,0.0,0.000732,0.001953,1.0008700000000001
30,-0.549325,-0.244144,0.0,-0.003662,0.0008550000000000001,1.00148
32,0.0,0.0,0.0,-0.001831,0.006104,0.997574
34,-0.366217,-0.427253,-0.122072,0.000122,0.004639,1.003555
36,-0.427253,-0.366217,0.0,0.000488,0.005249,1.000381
38,-0.30518,-0.30518,0.0,-0.0008550000000000001,0.005493,0.9973299999999999
40,-0.671397,-0.427253,0.0,-0.006714,0.009766,1.000137
42,0.0,-0.366217,0.061036,-0.000122,0.0008550000000000001,1.00734
44,0.854505,-0.366217,0.061036,-0.005371,0.003418,1.005875
46,2.685588,0.671397,-0.671397,-0.0043950000000000005,-0.017823,1.029313
48,1.953155,-0.549325,0.122072,-0.00061,-0.002564,0.9903719999999999
50,3.356985,-0.6103609999999999,0.0,-0.007691,0.006104,0.998184
52,3.234913,0.854505,-0.671397,-0.010131999999999999,0.000244,0.999283
54,4.760815,1.586938,-0.366217,0.002075,0.006714,1.001846
56,2.929732,-0.30518,0.0,-0.015015,0.023926,0.969009
58,2.075227,-1.464866,-0.122072,-0.013428,0.017212,0.993423
60,2.197299,-2.014191,-0.30518,0.0015869999999999999,0.015747,0.997452
62,3.173877,-0.976577,-0.244144,0.004639,0.013672,1.018082
64,4.5166699999999995,-0.122072,-0.122072,0.007935,0.021973,1.013565
66,5.9205,0.122072,-0.183108,-0.013062,0.036133,0.960342
68,1.037613,-1.953155,-0.183108,-0.002075,0.023926,0.9782860000000001
70,0.244144,-2.197299,0.0,0.005737,0.030883999999999998,0.996719
72,0.366217,-0.9155409999999999,-0.183108,0.007691,0.020630000000000003,1.011734
74,0.427253,0.244144,0.0,-0.000977,0.010986,1.0036770000000002
76,2.014191,1.159686,0.427253,-0.007691,0.026368,0.9871979999999999
78,1.586938,-0.244144,0.793469,-0.015625,0.027222000000000003,0.9751129999999999
80,0.427253,-2.197299,1.2207219999999999,-0.009644,0.027587999999999998,0.976089
82,-2.075227,-4.272526,2.136263,-0.016114,0.024781,0.975601
84,-1.342794,-4.699779,1.70901,-0.005982,0.029664,0.954116
86,-7.9957270000000005,-6.347753,2.685588,0.00647,0.008423,1.015274
88,-2.80766,-5.737392,2.075227,0.0037840000000000005,0.027955,0.9851219999999999
90,-5.61532,-6.775005999999999,2.014191,0.012085,0.000122,1.022477
92,-2.136263,-6.591897,1.2207219999999999,-0.003052,0.02295,0.9740139999999999
94,-3.234913,-7.751583,0.9155409999999999,0.011475,0.0008550000000000001,1.019303
96,-4.21149,-7.873655,0.183108,0.012206999999999999,0.035889,0.985
98,-6.71397,-6.469825,-0.30518,0.032227,0.024781,1.00795
100,-2.685588,-2.563516,0.30518,0.040162,0.0094,1.029557
102,-5.188067,-1.464866,0.9155409999999999,0.011475,0.019653999999999998,0.9946440000000001
104,-5.61532,-2.380407,0.427253,0.012818000000000001,0.025757,0.976822
106,-8.239872,-3.540093,-0.122072,0.035401,-0.005737,1.01857
108,-7.01915,-1.342794,-0.48828900000000003,0.038941,0.003296,1.015885
110,-5.065995,1.09865,0.0,0.034668,0.0031739999999999997,1.000259
112,-5.859464,3.051804,0.183108,0.030151999999999998,-0.001099,1.006119
114,-4.638743,4.5166699999999995,0.671397,0.022461000000000002,-0.011597,1.016617
116,-3.6011290000000002,4.638743,0.48828900000000003,0.014159999999999999,0.011840999999999999,0.982925
118,-5.432212,4.5166699999999995,0.061036,0.008667,-0.016968,1.013321
120,-1.8310830000000002,4.699779,0.30518,0.006104,-0.010131999999999999,1.0031889999999999
122,-3.173877,3.967346,0.30518,0.004028,0.000244,0.9749899999999999
124,-7.934691,1.70901,0.671397,0.005982,-0.009644,0.986099
126,-6.775005999999999,0.427253,0.366217,-0.001099,-0.004639,0.9681540000000001
128,-8.361944,-1.159686,0.061036,0.010620000000000001,-0.009155,0.9994049999999999
130,-8.42298,-1.342794,0.122072,0.007324,-0.017212,1.002945
132,-9.094377,-1.525902,0.30518,0.018555000000000002,-0.025879000000000003,1.001724
134,-8.178836,0.0,0.976577,0.021241,-0.025269,0.9990389999999999
136,-10.254063,0.48828900000000003,1.70901,0.019409,-0.010620000000000001,0.9555809999999999
138,-15.564201999999998,0.30518,2.136263,-0.008301000000000001,-0.022827,0.968521
140,-16.84596,0.9155409999999999,2.563516,0.015625,-0.026001,1.012833
142,-16.662851999999997,1.953155,3.051804,-0.000488,-0.016114,0.961563
144,-25.329976000000002,0.0,3.90631,-0.0063479999999999995,-0.043702,0.9785309999999999
146,-33.630884,-3.6011290000000002,3.356985,0.013428,-0.061158000000000004,0.9973299999999999
148,-29.17525,0.061036,1.037613,0.031127999999999996,-0.051148,1.0095370000000001
150,-30.945296000000003,2.380407,2.197299,0.001221,-0.061769000000000004,1.010147
152,-31.921874,3.173877,0.854505,-0.043091000000000004,-0.0636,0.961929
154,-36.926833,1.159686,0.427253,-0.001953,-0.079835,0.9751129999999999
156,-34.241245,-0.48828900000000003,-4.028382,-0.032715,-0.073854,1.027359
158,-35.828183,-1.159686,-4.8218510000000006,-0.033082,-0.096803,1.012589
160,-35.278859000000004,-1.281758,-26.611734000000002,-0.029786,-0.13196,0.961563
162,-51.575494,5.61532,-25.940337,0.071534,-0.170047,1.07216
164,-46.875715,1.586938,-5.737392,0.004517,-0.13916199999999998,1.0272370000000002
166,-58.289464,3.967346,-8.789197,0.059449,-0.05835,0.948501
168,-92.04241999999999,4.882887,-9.338521,0.033082,0.182132,0.9120010000000001
170,-219.54680699999997,19.592584,2.319371,0.18323,0.173587,1.148577
172,-328.923476,75.19646,-18.432898,-0.036744,0.037110000000000004,1.641382
174,-411.688411,177.615015,-50.782025,0.44971400000000006,0.330327,1.650782
176,-519.172961,231.26573599999998,10.620279,-0.14905,-0.988418,1.489158
178,-289.799344,41.565576,-59.510185,-1.471458,-1.7535669999999999,1.9999689999999999
180,76.478218,-10.864424,28.564889,-0.430671,0.762707,1.4269020000000001
182,1.464866,-31.738766,73.243305,0.356329,0.408331,0.816297
184,13.122759,-2.075227,11.963073,0.574716,0.6058439999999999,0.678843
186,54.993515,-3.356985,-28.320745000000002,0.2981,0.51075,0.82594
188,84.962234,-55.970092,-38.879988,0.11804400000000001,0.433967,0.847425
190,118.165866,-79.10276999999999,-47.486076000000004,0.037232,0.43238000000000004,1.135515
192,163.759823,-59.937438,-53.650721,-0.22375799999999998,0.27063400000000004,1.42739
194,206.54612,-48.767834,-41.138323,-0.431403,0.058838999999999995,1.1665219999999998
196,221.499962,-42.1149,-22.034028,-0.37585999999999997,-0.026246,0.9052870000000001
198,217.34950800000001,-28.686961,-12.32929,-0.24036,-0.034668,0.9909819999999999
200,218.387121,-18.799115,-10.193027,-0.16711700000000002,-0.045288999999999996,1.292378
202,220.70649300000002,1.647974,-16.235599,-0.048463,-0.153933,1.275166
204,207.888914,15.197985999999998,-27.771420000000003,0.036866,-0.174807,1.493797
206,210.635538,28.0766,-40.222782,0.057008,-0.22864099999999998,1.8471959999999998
208,221.37788999999998,34.180209000000005,-48.767834,0.031127999999999996,-0.32959499999999997,1.77322
210,224.06347799999998,25.26894,-54.20004599999999,-0.01001,-0.408209,1.7174330000000002
212,226.62699300000003,22.278172,-58.411536,-0.029786,-0.42651999999999995,1.8003200000000001
214,229.129473,37.59823,-60.18158199999999,-0.048585,-0.500008,1.9208060000000002
216,228.336004,46.997787,-55.970092,0.015259,-0.612924,1.449241
218,205.93576000000002,38.757915999999994,-48.706798,0.080812,-0.731334,1.3115430000000001
220,174.013886,34.302281,-37.232013,-0.047242,-0.988785,0.9788969999999999
222,118.95933500000001,26.306554,-23.376822,-0.043458,-1.493797,0.705699
224,59.815366000000004,54.627297999999996,-28.381781,0.27258699999999997,-1.904936,0.8482799999999999
226,39.795528999999995,63.416495,-24.109254999999997,0.081178,-1.8149689999999998,0.34876
228,-51.026169,-46.875715,20.874342000000002,-0.18420699999999998,-1.764431,-0.976699
230,-166.506447,-144.655528,57.007706000000006,0.5203939999999999,-1.5328600000000001,0.627451
232,-115.419242,-70.801862,35.950256,0.074098,0.0177,0.9500879999999999
234,-212.52765699999998,-64.148928,44.373236,0.347539,0.38501599999999997,1.408591
236,-208.80445600000002,-43.274586,31.189441,0.34985900000000003,-0.152224,1.884306
238,-122.560464,-24.048219,16.662851999999997,0.082643,-0.225345,1.9999689999999999
240,-65.735866,-20.325017000000003,19.958801,-0.5101399999999999,0.15259,0.839612
242,-72.3888,-85.938811,38.025483,0.459846,0.25684,1.729641
244,-45.899138,-4.760815,6.2867169999999994,0.084962,-0.08069,1.207782
246,-54.383154000000005,-37.720302000000004,9.52163,0.21435900000000002,-0.05005,1.223041
248,-34.668498,-7.385367,4.089418,-0.07727200000000001,0.028076999999999998,1.060441
250,-16.113526999999998,-6.591897,1.40383,0.025879000000000003,0.074464,1.006973
252,-13.427939000000002,-8.545052,1.70901,0.017456,0.006104,1.0129549999999998
254,-20.141909,-10.864424,2.2583349999999998,0.001709,0.0028079999999999997,1.015152
256,-15.991454999999998,-11.657893,0.9155409999999999,0.043702,-0.015137000000000001,1.0251620000000001
258,-14.648660999999999,-10.742351,2.014191,0.018433,0.031983,1.041764
260,-15.320058,-11.779964999999999,1.464866,0.009888,0.033569999999999996,1.050309
262,-7.9957270000000005,-8.361944,0.671397,0.041505,-0.007812999999999999,0.959731
264,-11.657893,-6.530861,1.2207219999999999,0.020386,0.031738999999999996,1.0268709999999999
266,-8.972305,-5.371176,1.40383,0.034791,0.032471,1.028946
268,-7.01915,-4.333562000000001,0.9155409999999999,0.032715,-0.017212,0.9875639999999999
270,-8.056764,-5.127031,0.549325,0.012085,0.02002,0.973892
272,-10.315099,-6.591897,0.183108,0.028808999999999998,-0.0094,0.9873200000000001
274,-11.169604,-6.408789,0.366217,0.035889,-0.008911,1.001236
276,-8.972305,-5.188067,0.48828900000000003,0.062379,-0.042115,1.031144
278,-4.699779,-3.1128400000000003,0.30518,0.061524,-0.056397,0.9826809999999999
280,-3.6621650000000003,-2.4414439999999997,0.732433,0.037598,0.005982,0.9673
282,-7.873655,-2.868696,1.2207219999999999,0.034791,0.025513,1.006729
284,-13.611048,-4.089418,1.40383,0.041627,-0.011719,0.963882
286,-15.259022,-5.0049589999999995,0.793469,0.038209,-0.024781,0.992569
288,-15.869383,-6.225681,0.0,0.031006,-0.021363,0.989273
290,-19.226368,-8.606088,-0.671397,0.033692,-0.010986,0.9472799999999999
292,-25.26894,-9.399557000000001,0.793469,0.06994700000000001,-0.033448,0.945693
294,-27.710384,-3.1128400000000003,1.8921189999999999,0.062135,-0.050904000000000005,0.9944
296,-27.832456,-2.075227,0.48828900000000003,0.013428,0.005371,1.011368
298,-29.602502,0.244144,-3.234913,0.11694500000000001,0.015503,0.869764
300,-62.50095400000001,2.075227,-6.2867169999999994,0.09509400000000001,-0.057008,0.973892
302,-64.02685600000001,8.178836,-16.418708,-0.12219400000000001,-0.094484,1.014908
304,-79.835203,4.760815,-37.29305,0.15295599999999998,-0.281987,1.113542
306,-39.490349,12.451362,12.085144999999999,0.245243,-0.11425999999999999,1.097185
308,-112.672618,30.884259999999998,0.671397,0.0031739999999999997,0.292119,0.803601
310,-183.474479,-2.014191,24.475471,-0.25684,0.41443500000000005,0.870619
312,-312.56580499999995,-59.998474,-23.743038000000002,-0.26392,0.284428,1.8484169999999998
314,-604.623484,-220.767529,36.133364,0.095583,0.076295,1.2165709999999998
316,-746.166171,-178.103304,63.660639,0.42053900000000005,-0.11572400000000001,0.856825
318,-666.819257,0.061036,110.658427,-0.125612,0.166018,1.9999689999999999
320,210.635538,57.801175,-115.23613300000001,-0.28833400000000003,0.9969629999999999,1.9999689999999999
322,4.5166699999999995,-33.813992999999996,-34.79057,-0.554696,0.7581899999999999,1.825589
324,166.14023,-5.493248,-24.292363,-0.507698,0.244633,1.1074389999999998
326,142.030976,8.850233,3.479057,-0.474617,0.147951,0.777844
328,183.96276799999998,33.569848,21.179522,-0.335454,0.06347799999999999,0.715953
330,182.80308200000002,44.251164,32.349126,-0.10461600000000001,0.08191,0.7938350000000001
332,205.203326,48.462654,26.001373,0.11511400000000001,0.130617,1.210101
334,240.78736600000002,49.317159000000004,11.718929,0.198123,0.042359,1.460349
336,273.197528,58.899825,-3.234913,0.269902,-0.015747,1.270039
338,283.756771,53.101395999999994,-15.381094000000001,0.32495599999999997,-0.123049,1.64065
340,309.330892,63.172351,-30.823224,0.37109899999999996,-0.324712,1.3072709999999998
342,276.737621,82.398718,-43.51873,0.457527,-0.46778100000000006,0.996353
344,235.782406,70.55771700000001,-59.14396899999999,0.611704,-0.383307,1.225116
346,207.400626,54.810407,-84.596017,0.566537,-0.350225,1.9474169999999997
348,220.09613199999998,54.322118,-102.96788000000001,0.259403,-0.577646,1.9999689999999999
350,240.299077,74.341955,-91.126879,-0.11316099999999998,-0.800061,1.9999689999999999
352,256.412604,72.632944,-51.514458000000005,-0.22119499999999997,-0.9897610000000001,1.787381
354,232.181277,65.735866,-14.892805,-0.029419,-1.105486,1.392966
356,197.940032,79.77416600000001,0.183108,0.06775,-1.3905239999999999,1.118303
358,140.81025400000001,85.877775,14.404517000000002,0.347539,-1.9625540000000001,0.928725
360,101.014725,72.69398000000001,9.52163,0.7121689999999999,-2.0000310000000003,0.420783
362,43.396658,40.40589,19.226368,0.517342,-2.0000310000000003,-0.271
364,-37.109941,-48.584726,54.566262,0.178347,-1.40798,0.626108
366,-179.751278,-45.899138,63.477531000000006,0.25403200000000004,-1.037491,-0.289067
368,-96.131838,-43.945983,26.916915000000003,0.09424,0.721202,1.089616
370,-312.504768,-86.976425,52.918288000000004,0.16894800000000001,0.030639999999999997,0.734997
372,-250.85832000000002,-38.330663,42.603189,0.9201799999999999,-0.216678,1.9999689999999999
374,-156.92378100000002,14.343481,-2.319371,0.19836700000000002,-0.405035,1.9999689999999999
376,-104.249638,-50.843061,33.875029,-0.739025,-0.45008000000000004,1.608301
378,-47.42504,-34.79057,10.742351,0.9433739999999999,0.06006,1.550072
380,-46.082246000000005,-27.649348,12.756542,-0.365606,-0.034058,1.124773
382,-27.893492,-16.968032,1.342794,0.093751,0.07434199999999999,1.025772
384,-12.817578,-16.479744,-0.549325,0.048707,-0.036378,1.1109790000000002
386,-22.400244,-8.178836,0.183108,-0.017945,-0.029786,1.103899
388,-9.399557000000001,-1.8310830000000002,-0.854505,0.085328,0.070314,0.9461809999999999
390,-13.611048,2.319371,2.563516,0.05359,-0.010498,1.03859
392,-17.517357,1.159686,5.371176,-0.009644,0.009644,0.9986719999999999
394,-14.770732999999998,-4.882887,2.563516,0.0028079999999999997,-0.000366,1.0116120000000002
396,-9.277485,-6.530861,-0.30518,-0.013916,-0.007812999999999999,1.012222
398,-9.887846000000001,-7.507439,1.7700470000000001,0.014159999999999999,0.009522,1.029557
400,-9.216449,-7.6905470000000005,1.464866,0.01709,-0.011109,1.010147
402,-7.080186,-6.042573,1.464866,0.011475,0.009644,1.012467
404,-8.056764,-5.859464,1.342794,0.007812999999999999,0.0051270000000000005,1.013809
406,-9.887846000000001,-6.652933999999999,0.976577,0.008911,-0.016236,1.015763
408,-8.789197,-5.493248,0.976577,0.029175,0.014282,0.9870760000000001
410,-10.315099,-5.554284,1.037613,0.031495,-0.032349,1.0000149999999999
412,-12.146181,-5.0049589999999995,0.732433,0.027587999999999998,-0.027710000000000002,0.9990389999999999
414,-12.573433999999999,-5.7984279999999995,0.244144,0.030151999999999998,-0.023316,0.9914700000000001
416,-14.709697,-4.943923000000001,0.793469,0.052125,-0.057008,1.021866
418,-15.381094000000001,-1.525902,2.014191,0.049439,-0.049439,1.007706
420,-16.968032,0.061036,2.685588,0.022583000000000002,-0.039673,0.9747459999999999
422,-20.752270000000003,-0.793469,2.014191,0.015869,-0.035157,1.024308
424,-24.414435,-2.50248,1.70901,0.04358,-0.042359,0.961563
426,-30.457008000000002,-5.3101400000000005,0.976577,0.02002,-0.048463,0.970352
428,-34.058137,-6.958114,2.014191,0.05139199999999999,-0.039063,1.0213780000000001
430,-47.42504,1.281758,6.103609,0.045533,-0.092653,1.026261
432,-38.513771000000006,2.746624,3.418021,0.020874,-0.065553,1.019303
434,-47.364004,-0.183108,-0.9155409999999999,-0.014159999999999999,-0.093141,1.043107
436,-42.053864000000004,-3.723201,-13.000687,-0.018311,-0.100465,1.0199129999999998
438,-66.83451600000001,7.507439,-39.917601,0.08447400000000001,-0.226566,1.060075
440,-26.306554,7.2022580000000005,-7.6905470000000005,0.137819,-0.309087,1.0036770000000002
442,-41.748684000000004,4.028382,-4.455634,-0.038697,0.220584,0.854017
444,-141.908904,8.42298,-10.986496,0.112795,0.139406,0.76112
446,-162.60013700000002,-22.095064,6.591897,-0.07946900000000001,0.625254,1.081682
448,-531.9295030000001,-39.551384999999996,12.207218,-0.362676,0.077394,1.330953
450,-731.4564740000001,-125.12398,69.764248,0.164431,-0.092409,1.278828
452,-917.250324,-126.344701,90.45548199999999,1.2763870000000002,-2.0000310000000003,1.9999689999999999
454,39.795528999999995,-14.099336,-59.327077,-0.046387,-0.285039,1.9999689999999999
456,99.855039,25.452049,-74.525063,-0.407233,0.779309,1.9999689999999999
458,28.992141999999998,-49.805446999999994,44.129090999999995,-0.258671,0.377081,1.076677
460,167.666133,-32.471199,20.935378,-0.13122799999999998,0.42236999999999997,0.583993
462,143.73998600000002,-17.883574,13.305867000000001,0.02002,0.251102,0.758312
464,164.24811200000002,-4.028382,-8.667124000000001,0.094972,0.310674,0.815076
466,195.986877,-6.775005999999999,-27.893492,0.10669100000000001,0.297612,1.094255
468,227.29838999999998,2.685588,-44.61738,0.044433999999999994,0.192996,1.42739
470,274.72343,25.452049,-53.101395999999994,-0.041871,0.021241,1.539208
472,310.49057799999997,25.024796,-47.73022,-0.11316099999999998,-0.16003699999999998,1.506249
474,333.745327,21.606775,-41.077287,-0.027955,-0.319585,1.172381
476,303.044175,41.260395,-44.3122,0.034546,-0.606088,0.609262
478,223.636225,66.956588,-46.631571,0.269291,-0.403449,1.105241
480,199.099718,79.71313,-66.83451600000001,0.29163,-0.220951,1.9999689999999999
482,262.760357,103.639277,-67.566949,-0.033569999999999996,-0.747448,1.9999689999999999
484,259.525444,86.12191999999999,-34.119172999999996,-0.114626,-0.8762340000000001,1.9999689999999999
486,302.800031,79.16380600000001,-15.930419,0.383429,-0.934218,1.9999689999999999
488,286.198215,92.713817,-21.606775,0.51368,-1.1057299999999999,1.608179
490,254.64255699999998,67.872129,-22.339208,0.397345,-1.423117,1.4188450000000001
492,210.635538,60.975052000000005,-15.930419,0.377813,-2.0000310000000003,1.0677649999999999
494,133.54696,86.060884,-35.217822999999996,0.796765,-2.0000310000000003,0.35132399999999997
496,52.368963,119.203479,-47.180896000000004,0.24255700000000002,-2.0000310000000003,-0.361944
498,-111.573968,-50.293735999999996,38.330663,-0.26099,-2.0000310000000003,-1.449241
500,-221.011673,-140.383001,71.839475,0.6948350000000001,-0.74464,1.652247
502,-131.288624,-56.153201,44.495308,0.069337,1.16054,1.199725
504,-291.325246,-74.09781,57.190814,0.23975,-0.489509,0.781628
506,-252.018006,-25.940337,47.364004,1.077531,-0.13684300000000002,1.9999689999999999
508,-122.98771599999999,13.244831,11.963073,-0.64271,0.22693200000000002,1.9999689999999999
510,-50.659953,-104.615854,32.104982,0.24438800000000002,-0.12219400000000001,1.9999689999999999
512,-39.368276,-25.818265,7.568475,0.167239,0.064454,1.064591
514,-49.134051,-56.94667,8.361944,0.349004,-0.022338999999999998,1.240742
516,-47.302968,-22.949569,2.80766,-0.056764,-0.108644,1.187274
518,-16.906996,-22.217136,-3.173877,0.096437,0.059815,1.016983
520,-10.559242999999999,-13.366903,-1.70901,0.11218399999999999,-0.021118,1.11635
522,-13.000687,-1.647974,1.2207219999999999,0.066651,-0.029541,1.04213
524,-10.193027,0.976577,2.990768,0.012329000000000001,-0.007324,0.964248
526,-8.42298,-2.685588,2.80766,0.051637,-0.0094,0.94081
528,-12.32929,-5.981537,1.7700470000000001,0.001465,-0.009522,1.023819
530,-8.361944,-6.530861,1.40383,0.016846,0.050416,1.0601969999999998
532,-6.530861,-5.065995,1.8310830000000002,0.039796,-0.032958999999999995,1.008438
534,-7.751583,-3.723201,2.014191,0.05285700000000001,-0.039063,0.966934
536,-9.643702000000001,-3.173877,1.70901,0.03003,0.029053,1.028458
538,-7.507439,-2.746624,1.40383,0.043458,-0.064088,0.92665
540,-12.146181,-4.333562000000001,1.342794,0.021729,0.017212,0.9500879999999999
542,-14.709697,-5.3101400000000005,0.671397,0.045167,-0.01355,1.041764
544,-13.183795000000002,-5.0049589999999995,0.122072,0.034424,-0.018433,0.9911040000000001
546,-14.465553,-5.3101400000000005,-0.183108,0.053346000000000005,-0.034913,0.9956209999999999
548,-13.794156,-5.0049589999999995,0.183108,0.048463,-0.04773,0.9911040000000001
550,-15.930419,-3.6011290000000002,1.2207219999999999,0.064332,-0.04065,0.984878
552,-19.470512,-2.319371,2.014191,0.053712,-0.030151999999999998,0.9668120000000001
554,-29.358358000000003,-3.1128400000000003,2.80766,0.058595,-0.033814,0.9754790000000001
556,-32.715343,-3.723201,3.1128400000000003,0.06640700000000001,-0.066041,0.978775
558,-28.992141999999998,-0.427253,2.685588,0.032105,-0.073976,1.027115
560,-30.945296000000003,0.976577,4.699779,0.048951,-0.124269,1.0202790000000002
562,-44.678416,4.638743,5.554284,-0.00647,-0.035889,0.982559
564,-40.222782,2.136263,-1.342794,0.014405000000000001,-0.056641,0.989517
566,-48.218509000000005,-1.7700470000000001,-9.82681,-0.030151999999999998,-0.08423,0.9870760000000001
568,-67.933165,5.493248,-31.433584999999997,0.037964,-0.05835,0.9788969999999999
570,-47.791257,4.5166699999999995,-23.86511,0.19336199999999998,-0.345953,1.08571
572,-22.827497,10.009917999999999,6.042573,0.016358,0.079347,0.948501
574,-121.52285,25.452049,-23.559929999999998,0.086427,0.32861799999999997,0.894423
576,-185.18348999999998,-24.109254999999997,6.469825,-0.280888,0.30396,0.817639
578,-503.303578,-60.547799,-28.870069,-0.194949,0.008911,1.1074389999999998
580,-789.8680099999999,-188.845655,80.018311,0.269169,-0.083131,0.921523
582,-1137.8347449999999,-192.87403700000002,178.46952,-0.486946,-2.0000310000000003,1.9999689999999999
584,372.259098,-0.30518,-55.054551000000004,-0.452888,1.20119,1.9999689999999999
586,74.891279,16.113526999999998,7.812619000000001,-0.8569469999999999,0.881849,0.489754
588,0.183108,-31.921874,48.706798,-0.24329,0.233158,0.523568
590,66.65140799999999,1.09865,27.161059,0.035157,0.5467609999999999,0.5576260000000001
592,103.089952,14.953841,8.911269,0.05127,0.441535,0.960464
594,136.35461999999998,6.164645,-2.136263,0.059815,0.44947,1.0992600000000001
596,196.047913,9.033341,-16.540779999999998,0.067994,0.376349,1.24062
598,237.064164,29.17525,-27.771420000000003,0.046265,0.17016900000000001,1.468528
600,288.45655,37.90341,-31.128404999999997,0.00415,-0.07361000000000001,1.186175
602,300.78584,26.794842,-28.137635999999997,0.10376099999999999,-0.153567,1.0040440000000002
604,295.414664,25.696193,-38.452735,0.272831,-0.152224,1.3110549999999999
606,291.56939,47.119859999999996,-59.876402,0.299565,-0.358648,1.2133969999999998
608,261.722744,73.79263,-76.356146,0.277836,-0.43665200000000004,0.9698629999999999
610,210.208286,77.57686700000001,-84.046693,0.152712,-0.290288,1.9900209999999998
612,236.087587,85.999847,-76.60029,0.034668,-0.61854,1.9999689999999999
614,264.34729500000003,90.516518,-61.34126800000001,0.062623,-0.6853130000000001,1.9999689999999999
616,290.714885,83.070115,-44.190127000000004,0.22680999999999998,-0.8885629999999999,1.9999689999999999
618,288.45655,97.413596,-33.142596000000005,0.27454,-1.163348,1.7532009999999998
620,252.68940299999997,79.89623900000001,-9.582666,0.163577,-1.541527,1.526513
622,203.860533,65.796902,24.353399,0.174807,-2.0000310000000003,1.0981610000000002
624,126.28366499999998,75.135424,13.183795000000002,1.0394450000000002,-2.0000310000000003,0.181643
626,56.702525,111.879149,-19.958801,0.505379,-2.0000310000000003,-0.720104
628,-69.764248,-38.69688,49.561303,-0.12060699999999999,-1.815091,0.45972399999999997
630,-222.659648,-157.96139499999998,63.843748,0.820691,0.10583699999999999,1.218158
632,-106.01968400000001,-61.951629000000004,10.620279,-0.22388000000000002,1.131243,1.286519
634,-329.777981,-94.666972,58.472572,0.041260000000000005,-0.559701,0.210452
636,-288.15137000000004,-42.298009,50.049592,1.378683,-0.238529,1.9999689999999999
638,-132.387274,-7.01915,10.193027,-0.810681,-0.041505,1.9999689999999999
640,-29.663539,-107.911803,21.240558,0.711437,-0.032471,1.9414360000000002
642,-62.56199,-3.6011290000000002,11.291675999999999,-0.133303,0.018921,1.2555120000000002
644,-23.926146,-37.659265999999995,1.40383,0.34766199999999997,0.080201,1.128069
646,-46.936751,-13.305867000000001,2.990768,-0.135988,-0.11572400000000001,1.1544370000000002
648,-24.96376,-11.108568,1.159686,0.07470800000000001,0.052247,0.9555809999999999
650,-23.254749,-5.9205,0.183108,0.155764,-0.11840999999999999,0.8488899999999999
652,-28.0766,-0.30518,4.882887,0.047974,-0.01294,1.02797
654,-25.452049,3.540093,0.732433,-0.003906,-0.285039,0.9234760000000001
656,-26.245518,1.281758,4.394598,0.021729,-0.014282,1.0057530000000001
658,-23.132676999999997,0.122072,1.8310830000000002,-0.06006,0.034424,1.156023
660,-17.090104999999998,0.183108,1.8921189999999999,0.015137000000000001,-0.043946,0.973404
662,-16.174563,-1.525902,1.464866,0.014771000000000001,-0.034424,1.014298
664,-17.212177,-3.1128400000000003,1.159686,0.011597,-0.043946,1.0057530000000001
666,-15.442129999999999,-3.051804,0.122072,0.009155,-0.044677999999999995,1.008682
668,-13.244831,-3.051804,0.122072,0.029053,-0.06884900000000001,1.001358
670,-7.629511,-3.173877,-0.732433,0.025635,-0.047974,1.010636
672,-5.371176,-5.9205,-0.183108,0.008789,-0.051514,0.982925
674,-7.507439,-7.812619000000001,-0.9155409999999999,0.010864,-0.019043,0.962173
676,-12.451362,-8.300908,-0.732433,0.022583000000000002,-0.035401,0.994034
678,-15.564201999999998,-6.469825,0.244144,0.039550999999999996,-0.060792,1.012833
680,-16.540779999999998,-4.699779,1.342794,0.046387,-0.063355,1.011734
682,-14.648660999999999,-1.8310830000000002,2.990768,0.056641,-0.072267,1.008316
684,-17.700464999999998,-1.8921189999999999,3.6011290000000002,0.041138,-0.053956,0.9862209999999999
686,-21.484703,-5.61532,3.1128400000000003,0.025513,0.013672,0.9720610000000001
688,-44.800488,-3.1128400000000003,4.699779,0.08752599999999999,-0.06713999999999999,1.061051
690,-36.1944,3.479057,9.82681,0.090211,-0.134157,1.0160069999999999
692,-39.490349,5.737392,11.596857,-0.021606999999999998,-0.087892,1.027726
694,-36.865797,-0.061036,-3.051804,-0.061646000000000006,-0.05359,0.989883
696,-46.082246000000005,-3.234913,-20.874342000000002,-0.025635,-0.110597,1.0515299999999999
698,-54.261081999999995,5.554284,-28.381781,0.103029,-0.362799,1.098283
700,-15.13695,-1.09865,-4.21149,0.080201,-0.11413699999999999,1.025284
702,-62.378882,6.775005999999999,-14.831769,0.06543099999999999,0.170535,0.9393450000000001
704,-147.89043999999998,13.916228,-20.019837,-0.10974300000000001,0.367193,0.573617
706,-312.443732,-20.996414,-50.171664,0.220584,1.250141,1.10341
708,-709.9107349999999,-77.393759,-2.563516,-0.401251,0.006714,1.2207219999999999
710,-868.1773099999999,-152.52918300000002,36.316472,0.187503,-0.827649,1.195209
712,-350.164035,-92.957961,7.263294,-0.8966200000000001,-1.431296,1.9999689999999999
714,245.059892,14.953841,-69.764248,-0.565316,1.3163040000000001,1.9940490000000002
716,-50.2327,-37.232013,30.945296000000003,-0.586801,0.440192,0.979141
718,121.15663400000001,-15.442129999999999,18.677042999999998,-0.310552,0.38294,0.6368510000000001
720,80.689708,-18.005646,29.358358000000003,-0.134401,0.351202,0.917739
722,160.341802,-4.150454,18.188754,-0.030274000000000002,0.38147600000000004,1.06215
724,190.127413,-0.793469,7.507439,0.049073,0.356817,1.014298
726,216.18982200000002,19.958801,-12.268253999999999,0.065919,0.244511,1.063615
728,245.487144,34.729534,-22.217136,-0.003296,0.110109,1.204242
730,272.159915,41.870756,-20.996414,-0.00293,0.026733999999999997,1.463035
732,310.49057799999997,38.69688,-21.118485999999997,0.164431,-0.05285700000000001,1.578759
734,328.679332,49.561303,-37.048905,0.320439,-0.28870100000000004,1.068986
736,281.49843599999997,81.78835699999999,-56.458381,0.452033,-0.4607,0.736217
738,232.42542200000003,64.637217,-68.604562,0.286625,-0.27039,1.305928
740,201.54116100000002,64.271,-70.313573,0.129885,-0.300786,1.9999689999999999
742,280.94911099999996,91.55413100000001,-65.980011,-0.007691,-0.615732,1.9999689999999999
744,284.55024,80.689708,-43.274586,0.025147,-0.832166,1.9999689999999999
746,299.870298,96.192874,-38.941024,0.376715,-0.913466,1.9999689999999999
748,270.939193,106.141756,-45.227740999999995,0.43616400000000005,-1.137224,1.706691
750,232.974746,92.225528,-38.879988,0.26685,-1.742947,1.633204
752,171.999695,98.390173,-27.283131,0.6406350000000001,-2.0000310000000003,1.140642
754,137.75845,163.454643,-50.659953,0.599619,-2.0000310000000003,-0.395392
756,-6.591897,34.302281,13.855192,0.005371,-2.0000310000000003,-1.217182
758,-94.666972,-151.552605,88.258183,0.257206,-1.317647,1.2180360000000001
760,-151.430533,-102.662699,49.378195,0.296269,0.898085,1.565209
762,-75.684749,-91.73724,13.977264000000002,-0.473884,1.083146,0.43445500000000004
764,-337.895781,-74.525063,73.914702,0.084596,-0.48365,-0.036133
766,-266.422522,-37.59823,46.692607,1.594141,-0.302129,1.9999689999999999
768,-82.581827,-5.371176,-7.141222,-1.066423,-0.04358,1.9999689999999999
770,-53.650721,-63.843748,41.504540000000006,0.34363299999999997,0.20813299999999998,0.716442
772,-81.300069,-13.488975,17.395285,0.331914,-0.45606199999999997,1.746853
774,-46.204318,-58.960861,17.761501000000003,0.057617999999999996,0.214969,1.167376
776,-51.575494,-11.352712,10.193027,-0.195071,0.029175,1.101213
778,-42.664225,-26.184482,4.882887,0.227787,0.034058,1.213519
780,-41.931792,-10.070953999999999,5.127031,-0.045533,0.009766,1.1781190000000001
782,-18.799115,0.183108,1.586938,0.021729,0.054810000000000005,1.021256
784,-16.784924,3.845274,1.342794,0.029907999999999997,0.016968,1.073014
786,-16.968032,6.958114,1.40383,-0.019898,0.013672,0.9941559999999999
788,-19.836728,4.333562000000001,2.380407,-0.028199000000000002,0.007935,0.972915
790,-21.484703,0.061036,3.051804,-0.024291999999999998,0.011109,0.9785309999999999
792,-22.034028,-1.70901,3.540093,-0.028443,-0.014038,1.021134
794,-20.263981,-2.685588,2.4414439999999997,-0.024537,-0.002564,0.988785
796,-20.813306,-3.6621650000000003,1.342794,-0.005005,0.01648,1.037247
798,-24.536507,-5.737392,1.40383,0.006714,-0.039796,0.9790190000000001
800,-20.263981,-4.638743,0.671397,-0.000732,-0.053223,1.025772
802,-16.601816,-3.6011290000000002,0.976577,-0.005493,-0.071168,1.040543
804,-9.399557000000001,-1.342794,0.976577,-0.009522,-0.082887,1.0121
806,-8.178836,-4.150454,0.732433,-0.018189,0.046387,0.933364
808,-15.625238000000001,-5.61532,0.30518,-0.02356,-0.049439,0.9709620000000001
810,-23.682002,-7.01915,2.4414439999999997,-0.0037840000000000005,-0.065675,0.958145
812,-26.977951,-9.033341,1.8921189999999999,-0.008179,-0.07067999999999999,1.002579
814,-28.992141999999998,-8.911269,2.746624,0.002441,-0.045777,0.997574
816,-37.537194,-11.352712,0.0,-0.012329000000000001,-0.023194,0.982925
818,-44.434272,-13.977264000000002,0.0,0.014282,-0.072511,0.9781639999999999
820,-51.697565999999995,-11.718929,2.4414439999999997,0.093019,-0.10192999999999999,1.2019229999999999
822,-41.870756,-2.136263,3.356985,-0.010742,-0.153567,1.034806
824,-30.823224,-2.380407,-3.6621650000000003,-0.070924,-0.150149,0.9715719999999999
826,-37.415122,-3.845274,-19.592584,-0.100343,-0.029664,1.066667
828,-60.608835,3.723201,-36.1944,0.110597,-0.386969,1.134783
830,-10.315099,-2.50248,-1.586938,-0.049683,-0.112673,1.011734
832,-52.73518000000001,-6.2867169999999994,-15.442129999999999,0.019532,0.131716,0.896742
834,-121.33974199999999,-5.7984279999999995,-18.616007,-0.046387,0.28748,0.665782
836,-218.692302,-28.564889,-35.400931,0.022338999999999998,0.57789,1.3000690000000001
838,-691.050584,-27.710384,-8.300908,-0.458747,0.44983599999999996,1.848173
840,-888.5633630000001,-135.866331,62.806134,-0.11645699999999999,-0.392096,0.555184
842,-1023.3310449999999,-189.70016,218.08194100000003,-0.464729,-0.888441,1.9999689999999999
844,245.731289,-150.209812,-35.217822999999996,-0.011353,0.9708399999999999,1.9999689999999999
846,8.667124000000001,-50.293735999999996,-7.629511,-0.346563,1.1175709999999999,1.9999689999999999
848,157.351034,23.86511,-27.771420000000003,-0.414191,0.272099,0.9432520000000001
850,135.25597,4.577707,-6.103609,-0.365118,0.29126399999999997,0.340337
852,174.196994,-15.503166,6.164645,-0.28625900000000004,0.16931400000000002,0.719615
854,188.60151100000002,-25.818265,12.085144999999999,-0.117067,0.238285,1.34548
856,264.10315099999997,-8.850233,-4.272526,-0.073487,0.225223,1.536889
858,306.279088,20.263981,-18.24979,-0.171878,-0.079957,1.156268
860,321.35500099999996,31.494621000000002,-15.808347,-0.204227,-0.224735,1.167254
862,338.628214,25.146867999999998,-11.413748,-0.083742,-0.264164,1.4613260000000001
864,346.868086,50.904097,-24.475471,0.024781,-0.6562600000000001,0.9392229999999999
866,283.268483,103.944457,-28.992141999999998,0.1626,-0.6305029999999999,0.7799189999999999
868,247.074083,69.520104,-41.992828,0.307866,-0.401495,1.538964
870,234.073396,58.838788,-52.979324,0.320195,-0.44995799999999997,1.9999689999999999
872,258.548867,60.425727,-66.04104699999999,0.252323,-0.563851,1.9999689999999999
874,291.02006600000004,76.234073,-74.952316,0.317144,-0.788464,1.9999689999999999
876,283.085374,83.741512,-78.61448100000001,0.441413,-0.81886,1.8611119999999999
878,264.40833100000003,82.52079,-88.746471,0.556161,-0.875624,1.7184099999999998
880,235.049973,104.67689,-100.404364,0.36023499999999997,-1.262959,1.357076
882,169.49721499999998,134.218357,-82.642863,0.087648,-1.9746400000000002,1.1665219999999998
884,101.441978,136.6598,-32.898451,0.273564,-2.0000310000000003,0.874525
886,85.02327,102.479591,4.760815,0.349248,-2.0000310000000003,-0.46912299999999996
888,-116.700999,-72.205692,59.449149,0.171145,-2.0000310000000003,-2.0000310000000003
890,-159.243153,-196.108949,70.923934,1.014054,-0.160281,1.9999689999999999
892,-142.64133700000002,-92.77485300000001,54.077974,-0.44165699999999997,0.8374149999999999,-0.093385
894,-356.69489599999997,-119.26451499999999,101.075761,0.7043560000000001,-0.437751,1.626368
896,-191.653315,-42.236973,45.593957,1.9242240000000002,-0.055787,1.9999689999999999
898,-141.908904,-5.432212,-7.2022580000000005,-0.8610969999999999,-0.20947600000000002,1.9999689999999999
900,-65.796902,-102.357519,62.317845,-1.1074389999999998,-0.27270900000000003,0.808362
902,-54.383154000000005,-59.449149,6.958114,1.7512470000000002,-0.036866,1.30544
904,-64.393072,-50.2327,5.493248,-0.48267299999999996,-0.206546,1.271626
906,-32.776379,-19.592584,-4.455634,0.248295,0.094118,1.033341
908,-26.001373,-29.541465999999996,1.342794,0.084596,0.002075,1.022721
910,-22.217136,-8.972305,1.70901,0.118288,-0.103395,1.023819
912,-8.972305,-1.342794,5.065995,0.112062,0.091798,0.9751129999999999
914,-16.418708,0.793469,5.127031,0.013428,0.037476,0.968276
916,-21.423667000000002,-0.549325,3.540093,0.05651900000000001,0.07434199999999999,0.9710840000000001
918,-27.283131,-7.080186,3.90631,0.027710000000000002,-0.013062,0.9121229999999999
920,-31.982909999999997,-10.254063,3.356985,0.033448,0.030396,0.9670559999999999
922,-27.832456,-8.728161,2.50248,0.058961,-0.023438,1.011978
924,-25.452049,-7.385367,1.70901,0.05712999999999999,-0.004883,1.007584
926,-21.545739,-6.347753,-0.244144,0.080812,-0.062013,1.049821
928,-13.733120000000001,-6.2867169999999994,0.732433,0.140261,-0.026978,1.031266
930,-19.34844,-6.469825,0.183108,0.080446,0.01294,0.988663
932,-18.982223,-5.737392,-0.244144,0.063966,-0.017578,1.010758
934,-23.682002,-5.432212,-0.671397,0.06884900000000001,-0.033448,0.999771
936,-22.583351999999998,-4.882887,0.0,0.079225,-0.033204000000000004,0.989029
938,-22.46128,-1.525902,0.366217,0.07190099999999999,-0.078737,1.019303
940,-23.804074,-0.9155409999999999,1.586938,0.09131,-0.044923000000000005,1.001358
942,-24.475471,0.793469,0.793469,0.065187,-0.04358,0.9858549999999999
944,-36.316472,4.333562000000001,-0.854505,0.074586,-0.051637,1.014298
946,-39.734493,3.845274,-0.732433,0.036011,-0.087648,1.0236969999999999
948,-42.725260999999996,5.3101400000000005,1.586938,0.070069,-0.111818,1.005264
950,-49.683375,12.024109,8.484016,0.026368,-0.134768,1.024918
952,-32.043946000000005,9.460594,3.540093,0.022338999999999998,-0.044923000000000005,1.024674
954,-39.856565,8.42298,-14.587625,-0.054688,-0.11523599999999999,0.938369
956,-45.777066,9.338521,-41.748684000000004,0.068605,-0.188479,0.958145
958,-13.794156,5.554284,-14.831769,0.299687,-0.31165,1.153948
960,-42.053864000000004,27.344167,11.535821,0.016602000000000002,0.28101,0.95314
962,-170.04654,38.452735,-1.7700470000000001,-0.21521300000000002,0.564462,0.65565
964,-240.17700499999998,-55.481804000000004,-20.630198,-0.063233,0.39026500000000003,1.054093
966,-664.0115969999999,-261.84481600000004,45.838102,-0.397223,0.271,1.6916759999999997
968,-893.2021060000001,-237.30830899999998,101.930266,0.549569,-0.24853899999999998,1.191547
970,-434.27176299999996,-9.887846000000001,88.92958,-0.875624,-0.912856,1.9999689999999999
972,304.020752,75.31853199999999,-85.267414,-0.383429,1.671168,1.9999689999999999
974,-7.080186,-30.823224,13.550010999999998,-0.443,0.437018,0.408576
976,84.657053,1.8310830000000002,9.82681,-0.2168,0.161501,0.6189060000000001
978,66.65140799999999,9.033341,16.174563,-0.00293,0.377325,0.67042
980,121.400778,3.6621650000000003,3.723201,0.135988,0.457527,0.9483790000000001
982,142.397192,2.4414439999999997,-12.451362,0.183719,0.433845,1.233539
984,199.160754,20.386053,-34.119172999999996,0.132937,0.390997,1.221088
986,232.30334900000003,38.574807,-46.143282,0.082277,0.19971,1.318257
988,271.976806,41.321431,-49.317159000000004,0.082643,0.033814,1.371969
990,302.800031,41.199359,-53.528649,0.17663800000000002,-0.023194,1.416037
992,309.147784,57.129778,-63.233387,0.149172,-0.330816,1.259419
994,285.465782,109.315633,-65.796902,0.20825500000000002,-0.583871,0.188602
996,190.432593,57.007706000000006,-65.06446899999999,0.385382,-0.245365,1.245258
998,170.412757,67.139696,-80.262455,0.431403,-0.34985900000000003,1.9999689999999999
1000,303.715572,119.386587,-95.521477,0.171756,-0.812634,1.726955
1002,228.763256,85.938811,-65.308614,0.11645699999999999,-0.912856,1.9999689999999999
1004,300.053407,103.02891600000001,-54.016938,0.404913,-0.9354389999999999,1.9999689999999999
1006,276.188296,119.996948,-51.758602,0.636606,-1.061295,1.456931
1008,236.881056,108.461128,-53.223468000000004,0.524422,-1.32192,1.550927
1010,199.282826,114.808881,-32.288090000000004,0.155154,-2.0000310000000003,1.352316
1012,130.495155,126.40573700000002,3.1128400000000003,0.380011,-2.0000310000000003,0.406256
1014,70.740826,122.072175,21.301595000000002,0.645762,-2.0000310000000003,-1.160418
1016,-96.131838,-65.980011,89.112688,0.49939700000000004,-1.94461,0.38294
1018,-118.532082,-128.480964,58.3505,0.7479359999999999,0.988418,1.9999689999999999
1020,-108.5832,-71.717403,15.747310999999998,-0.8155640000000001,0.933242,-0.033936
1022,-357.488365,-94.239719,106.935225,0.117556,-0.791516,0.773083
1024,-264.89662000000004,-42.90837,61.219196,1.9999689999999999,-0.010498,1.9999689999999999
1026,-150.881209,-13.305867000000001,13.733120000000001,-1.032975,-0.162234,1.9999689999999999
1028,-50.171664,-108.09491100000001,51.270314,0.173098,0.193973,1.3510950000000002
1030,-61.707485,-32.043946000000005,3.90631,0.539071,-0.071168,1.6438240000000002
1032,-43.335622,-80.872816,14.343481,0.340093,0.165042,1.472313
1034,-53.284504000000005,-29.17525,6.591897,-0.127565,0.13610999999999998,1.224872
1036,-26.611734000000002,-38.452735,-2.929732,0.165286,0.049194999999999996,1.1299
1038,-26.977951,-20.141909,2.746624,0.060182000000000006,-0.072999,1.1621270000000001
1040,-20.996414,-10.131991000000001,5.9205,0.06347799999999999,0.049073,0.973648
1042,-27.283131,-7.568475,7.629511,0.056152999999999995,0.013916,0.9786530000000001
1044,-28.137635999999997,-7.751583,5.249104,0.053467999999999995,-0.045777,1.055558
1046,-17.517357,-7.01915,2.380407,0.06067,-0.038819,1.010147
1048,-12.451362,-6.225681,0.244144,-0.025513,-0.076905,1.0323639999999998
1050,-12.390326,-2.685588,1.70901,0.059815,-0.019532,0.976944
1052,-19.470512,-5.61532,0.793469,0.07324299999999999,-0.027710000000000002,0.992691
1054,-18.799115,-5.737392,-0.854505,0.07849199999999999,-0.06775,0.976699
1056,-21.362631,-5.0049589999999995,-0.671397,0.07715,-0.058595,0.976211
1058,-21.118485999999997,-4.21149,0.549325,0.07776,-0.044556,0.989273
1060,-16.84596,-4.638743,2.014191,0.071046,-0.072877,1.0520180000000001
1062,-14.709697,-1.70901,0.671397,0.088136,-0.100465,0.9987950000000001
1064,-11.474784,-1.586938,1.2207219999999999,0.07800399999999999,-0.052735000000000004,1.011002
1066,-12.573433999999999,-0.061036,1.464866,0.090455,-0.063966,1.013443
1068,-16.601816,1.953155,1.7700470000000001,0.073854,-0.06274500000000001,0.9864649999999999
1070,-24.597542999999998,2.990768,1.2207219999999999,0.085939,-0.042602999999999995,0.987442
1072,-29.114214,1.8310830000000002,-1.525902,0.049194999999999996,-0.054932,0.9896389999999999
1074,-30.334936,0.732433,-3.845274,0.035035000000000004,-0.108278,0.9991610000000001
1076,-35.584039000000004,2.319371,-1.037613,0.09668099999999999,-0.099001,0.9837799999999999
1078,-41.80972,5.737392,7.385367,0.071412,-0.114748,0.991348
1080,-30.945296000000003,6.897078,8.484016,0.033814,-0.115602,1.022843
1082,-28.931106,4.943923000000001,1.09865,-0.042725,-0.129641,0.9668120000000001
1084,-34.119172999999996,3.967346,-12.512398,-0.011353,-0.076905,1.148577
1086,-42.786297,10.437171000000001,-39.490349,0.116335,-0.292241,1.127337
1088,8.239872,13.733120000000001,5.7984279999999995,0.175051,-0.21252800000000002,1.041886
1090,-29.602502,23.987182,4.394598,-0.041505,0.23975,0.895033
1092,-151.735714,30.823224,15.686275,-0.053467999999999995,0.47608100000000003,0.776989
1094,-214.785992,-30.884259999999998,23.743038000000002,0.043458,1.018326,1.410544
1096,-688.487068,-65.552758,9.033341,-0.494514,0.151614,1.91165
1098,-862.623026,-137.75845,49.439231,0.182864,-0.398077,0.992935
1100,-516.7315179999999,-35.339895,92.77485300000001,-1.423239,-0.64564,1.9999689999999999
1102,225.345235,40.466926,-82.21561,-0.415167,1.404074,1.399435
1104,-138.735027,-51.697565999999995,34.546426000000004,-0.508919,0.47742399999999996,1.2293889999999998
1106,102.17441099999999,-20.813306,10.742351,-0.305791,0.401617,0.964614
1108,46.265353999999995,-28.809033000000003,21.972992,-0.170413,0.42603199999999997,0.859144
1110,132.326238,-27.038987,12.939651,-0.086793,0.478889,1.0089270000000001
1112,158.937972,-34.79057,4.760815,-0.019409,0.40015300000000004,1.210224
1114,211.42900699999998,-2.50248,-13.794156,-0.038452999999999994,0.33875,1.211078
1116,247.74548,20.996414,-24.048219,-0.10461600000000001,0.071412,1.1853209999999998
1118,276.06622400000003,21.911955,-22.278172,-0.107912,-0.063966,1.22414
1120,299.626154,20.263981,-20.019837,-0.068605,-0.104005,1.7000990000000002
1122,339.238575,36.743725,-25.26894,0.025025,-0.309697,1.5150379999999999
1124,324.773022,60.791943,-39.30724,0.174441,-0.603403,0.542367
1126,230.77744700000002,98.207065,-48.52369,0.226566,-0.474617,0.754162
1128,193.789578,69.275959,-54.016938,0.181399,-0.24683000000000002,1.9999689999999999
1130,253.42183599999998,90.760662,-57.679103000000005,0.180423,-0.658946,1.9999689999999999
1132,248.96620099999998,104.798962,-53.162431999999995,0.145022,-0.7797970000000001,1.9999689999999999
1134,280.643931,87.098497,-49.805446999999994,0.390021,-0.861952,1.9999689999999999
1136,277.775235,90.760662,-59.449149,0.583749,-0.888075,1.7716330000000002
1138,256.229496,78.858625,-72.022583,0.46424,-1.000381,1.556054
1140,228.946365,74.464027,-70.98496999999999,0.140261,-1.438621,1.391623
1142,181.155108,83.61944,-43.945983,0.132448,-2.0000310000000003,0.8883190000000001
1144,99.977111,118.776226,-22.949569,0.42029399999999995,-2.0000310000000003,-0.036988
1146,20.141909,78.553445,10.193027,0.07470800000000001,-2.0000310000000003,-0.797375
1148,-85.267414,-86.060884,78.3093,0.092164,-1.459861,0.6416109999999999
1150,-187.747005,-144.960708,66.83451600000001,0.442512,-0.016114,0.759533
1152,-66.22415500000001,-90.150301,61.585412,-0.30688899999999997,1.238178,0.73695
1154,-359.258412,-147.280079,104.310674,0.83534,-0.270268,-0.347051
1156,-304.325933,-79.59105799999999,65.186542,1.7912869999999999,-0.447272,1.9999689999999999
1158,-122.49942800000001,-10.803388,-4.943923000000001,-0.20996399999999998,0.022095,1.6625009999999998
1160,-131.96002099999998,-65.491722,53.223468000000004,-0.953384,-0.570809,1.209125
1162,-84.901198,-74.83024300000001,20.813306,1.710231,0.046265,1.976837
1164,-65.06446899999999,-37.964446,4.21149,-0.732677,-0.18115499999999998,1.365133
1166,-24.170291,-33.752956,-1.281758,0.45557299999999995,0.11840999999999999,1.462913
1168,-1.8921189999999999,-17.822538,-0.183108,0.042602999999999995,0.037232,1.112688
1170,-19.775692000000003,-12.146181,0.427253,0.026856,0.046021,0.9902489999999999
1172,-21.545739,-1.70901,2.014191,0.116579,0.021241,1.0247959999999998
1174,-16.906996,8.1178,5.065995,0.078126,0.035035000000000004,1.046403
1176,-16.601816,5.188067,3.90631,0.004883,-0.047852,0.90956
1178,-16.601816,0.48828900000000003,4.333562000000001,0.015137000000000001,0.045411,0.976944
1180,-15.197985999999998,-5.493248,1.586938,0.067262,0.083375,1.050309
1182,-11.963073,-2.014191,1.586938,0.041016000000000004,-0.017334,0.996597
1184,-9.277485,-1.281758,2.685588,0.051148,0.092775,1.091691
1186,-7.507439,-0.48828900000000003,3.1128400000000003,0.012818000000000001,-0.000244,0.999771
1188,-7.751583,-1.464866,1.342794,0.0271,-0.003296,0.9803620000000001
1190,-11.596857,-4.638743,1.525902,0.007568000000000001,0.029297000000000004,0.9719389999999999
1192,-12.63447,-8.1178,0.854505,0.033569999999999996,0.0043950000000000005,1.010391
1194,-10.498207,-7.934691,-0.48828900000000003,0.045655,-0.021729,1.015885
1196,-10.864424,-7.6905470000000005,-0.854505,0.049683,-0.014282,0.982193
1198,-10.925460000000001,-6.836042,-0.9155409999999999,0.060303999999999996,-0.050416,1.000626
1200,-16.418708,-6.591897,0.793469,0.05505499999999999,-0.002441,0.991836
1202,-20.080873,-5.676356,1.464866,0.065064,-0.015137000000000001,0.9908600000000001
1204,-24.292363,-3.845274,1.09865,0.07067999999999999,-0.05774,0.9195700000000001
1206,-28.259709,-3.234913,1.647974,0.062501,-0.051637,0.985611
1208,-29.785611,-5.371176,2.746624,0.078859,0.016724,1.044083
1210,-42.481117,0.30518,4.882887,0.057862000000000004,-0.11718900000000002,1.0359040000000002
1212,-32.593271,1.70901,6.591897,0.080446,0.028199000000000002,0.976822
1214,-64.576181,1.464866,4.394598,0.033814,-0.087892,1.027726
1216,-45.105669,0.183108,-7.568475,0.005982,-0.067384,1.0477450000000001
1218,-66.895552,5.61532,-29.297321999999998,-0.011963,-0.061524,1.116106
1220,-48.462654,0.793469,-36.49958,0.215335,-0.40576799999999996,1.0918139999999998
1222,-10.009917999999999,7.751583,9.033341,0.139284,0.016236,1.060929
1224,-113.282979,37.048905,-16.662851999999997,0.058961,0.42444499999999996,0.718517
1226,-241.15358199999997,-7.629511,-21.362631,-0.484382,0.039307,0.908217
1228,-497.566186,-112.12329299999999,-53.894865,-0.537728,0.165042,0.90248
1230,-841.6266119999999,-320.74464,94.97215200000001,-0.039550999999999996,0.016968,0.97377
1232,-1226.947433,-263.85900699999996,282.475013,-0.710216,-1.065934,1.9999689999999999
1234,385.80911000000003,48.584726,-39.917601,-0.167605,0.851698,1.9999689999999999
1236,65.857939,55.542840000000005,7.263294,-0.8215459999999999,0.733654,0.925673
1238,-12.512398,-25.696193,95.338369,-0.214969,0.42102700000000004,0.510994
1240,126.039521,6.71397,50.293735999999996,0.116335,0.48365,0.397467
1242,95.277333,12.268253999999999,34.424353,0.21069699999999997,0.411261,0.9348290000000001
1244,166.14023,-8.606088,6.836042,0.26269899999999996,0.505257,1.151141
1246,216.983291,-6.836042,-24.719615,0.278325,0.375616,1.41091
1248,262.455177,27.405203000000004,-51.33135,0.16211199999999998,0.146609,1.389792
1250,301.88448900000003,39.185168,-55.786984,0.0365,-0.09253099999999999,1.454002
1252,336.919203,40.894179,-50.110628000000005,0.152346,-0.190799,1.42678
1254,340.459297,57.312886,-58.228428,0.373175,-0.495613,1.062516
1256,298.100252,95.704585,-78.61448100000001,0.519051,-0.725963,0.300664
1258,206.607156,53.345541000000004,-92.652781,0.354131,-0.41638800000000004,1.392233
1260,192.935073,70.130465,-97.047379,0.140017,-0.584482,1.9999689999999999
1262,279.545281,119.325551,-92.896925,-0.08191,-1.002579,1.7413599999999998
1264,207.705806,99.488823,-47.547112,-0.030762,-1.183978,1.9999689999999999
1266,267.887388,90.150301,-27.466239,0.5358970000000001,-0.9945219999999999,1.9999689999999999
1268,260.013733,84.596017,-31.799802000000003,0.712657,-0.972183,1.421775
1270,236.575875,43.396658,-37.476158,0.33374499999999996,-1.16286,1.344015
1272,208.865492,48.157472999999996,-29.419394,-0.218509,-1.6871599999999998,0.988174
1274,138.918135,85.51155899999999,2.685588,-0.232303,-2.0000310000000003,0.404425
1276,52.552071,127.870604,31.677729,-0.083131,-2.0000310000000003,-0.184817
1278,-56.153201,59.63225799999999,88.380255,-0.133181,-2.0000310000000003,-2.0000310000000003
1280,-278.385595,-172.8542,122.98771599999999,1.541161,-1.4183569999999999,0.6732279999999999
1282,-137.819486,-101.319905,34.607462,0.560311,1.396994,1.9999689999999999
1284,-220.523384,-66.590372,13.427939000000002,0.5081859999999999,-0.47901099999999996,-0.09485
1286,-258.487831,-23.498894,31.372549,0.147951,-0.133547,1.9999689999999999
1288,-101.625086,11.108568,15.197985999999998,-0.17847000000000002,-0.092775,1.286519
1290,-108.278019,-61.829556999999994,39.00206,-0.492195,-0.41260399999999997,1.282124
1292,-51.880674,-50.598917,8.239872,0.938125,-0.107424,1.9999689999999999
1294,-49.256122999999995,-34.302281,12.63447,-0.174929,0.058473000000000004,0.826673
1296,-37.476158,-3.418021,0.671397,0.108644,-0.003418,1.1651790000000002
1298,-34.973678,-7.446403,6.164645,0.111574,0.025513,1.259052
1300,-23.132676999999997,3.967346,5.61532,-0.01001,0.038087,1.0268709999999999
1302,-19.165332,5.981537,5.61532,0.002564,0.016724,1.037858
1304,-17.517357,7.2022580000000005,4.21149,0.016602000000000002,0.00647,1.017716
1306,-16.84596,8.667124000000001,3.90631,-0.015625,0.016114,0.981949
1308,-19.226368,7.629511,4.8218510000000006,-0.035157,0.009522,0.9476459999999999
1310,-21.545739,0.976577,4.455634,-0.032227,-0.013793999999999999,1.018326
1312,-18.921187,-0.427253,1.8921189999999999,-0.043091000000000004,-0.009155,0.991348
1314,-20.019837,-3.356985,0.976577,-0.021729,-0.030151999999999998,1.00441
1316,-16.662851999999997,-1.70901,-1.159686,0.09668099999999999,-0.187137,0.786877
1318,-17.151141,-2.929732,1.342794,0.0,-0.03418,1.0042879999999998
1320,-10.193027,0.671397,2.197299,-0.021363,-0.042725,1.050309
1322,-4.882887,0.671397,2.4414439999999997,-0.031738999999999996,-0.057862000000000004,1.003311
1324,-1.7700470000000001,-2.319371,1.8921189999999999,-0.050782,-0.029297000000000004,0.973281
1326,-4.699779,-7.324331,0.48828900000000003,-0.043458,-0.014527000000000002,0.975967
1328,-2.380407,-10.070953999999999,0.671397,0.013062,0.023072,0.843275
1330,-10.009917999999999,-9.82681,-0.48828900000000003,-0.0008550000000000001,-0.049928,1.074235
1332,-5.371176,-5.859464,-0.183108,-0.015991,-0.055421000000000005,1.0091709999999998
1334,-2.746624,-4.8218510000000006,0.183108,-0.011353,-0.043336,0.960952
1336,-8.361944,-7.01915,-1.342794,-0.047242,-0.025025,0.945083
1338,-16.479744,-10.986496,-0.671397,-0.024781,-0.026368,0.928969
1340,-28.0766,-15.869383,-0.366217,-0.020874,-0.005493,0.968887
1342,-41.80972,-13.183795000000002,2.014191,-0.006958,-0.083864,1.011978
1344,-40.527962,-10.620279,2.50248,0.023681999999999998,-0.034302,1.005264
1346,-45.838102,-9.948882000000001,1.525902,-0.007935,-0.077516,0.9709620000000001
1348,-43.579767,-11.718929,0.183108,-0.005249,-0.076417,1.002945
1350,-46.875715,-11.169604,-5.127031,0.053346000000000005,-0.119631,1.006729
1352,-67.07866,-4.150454,-36.804761,0.026001,-0.080079,0.907118
1354,-52.796216,-1.647974,-15.930419,0.10803399999999999,-0.31811999999999996,1.029679
1356,-78.065156,-9.216449,-13.794156,0.038941,0.066163,0.93727
1358,-126.71091799999999,-8.361944,-21.240558,0.116335,0.035279000000000005,0.945693
1360,-196.475166,-12.085144999999999,-32.471199,0.298589,0.734264,1.061173
1362,-582.8336,-10.131991000000001,-22.339208,-0.360113,0.723156,1.9999689999999999
1364,-810.498207,-107.911803,63.843748,0.020996,-0.19336199999999998,1.018326
1366,-1105.607691,-213.809415,164.065003,-0.685801,-1.078508,1.9999689999999999
1368,213.68734300000003,-143.251698,-26.977951,-0.203738,0.841199,1.9999689999999999
1370,174.13595800000002,-15.747310999999998,-37.659265999999995,-0.180789,0.665049,1.705226
1372,92.59174499999999,11.596857,30.090790999999996,-0.22204899999999997,0.142214,0.095338
1374,118.41001000000001,27.466239,18.432898,-0.11194000000000001,0.238163,-0.129397
1376,105.714504,0.671397,20.691233999999998,-0.014649,0.264775,0.544076
1378,138.735027,-26.977951,7.812619000000001,0.122927,0.413825,1.016251
1380,185.915923,-6.591897,-19.409476,0.136599,0.37109899999999996,1.4269020000000001
1382,238.406958,16.784924,-40.161746,-0.013672,0.151614,1.570581
1384,295.963989,36.682689,-41.931792,-0.182864,-0.18396300000000002,1.521508
1386,328.313115,54.505226,-25.757229000000002,-0.218021,-0.410163,1.195087
1388,324.284733,41.992828,-6.836042,-0.06543099999999999,-0.509163,0.888441
1390,281.010147,50.2327,-12.268253999999999,0.307256,-0.64564,0.595712
1392,215.640497,66.590372,-34.729534,0.435676,-0.417365,1.177508
1394,196.292058,51.087205,-57.679103000000005,0.371832,-0.284428,1.9999689999999999
1396,280.704967,69.275959,-78.736553,0.21875300000000003,-0.6214689999999999,1.9999689999999999
1398,281.681544,59.510185,-72.999161,0.086671,-0.800061,1.9999689999999999
1400,297.367819,70.130465,-82.825971,0.408942,-0.862562,1.567285
1402,249.33241800000002,80.81178,-95.887694,0.37598200000000004,-0.907485,1.9999689999999999
1404,250.06485099999998,81.11695999999999,-107.728695,0.326665,-1.172747,1.5251700000000001
1406,196.780346,106.263828,-94.728008,-0.035889,-1.9068889999999998,0.988785
1408,108.21698300000001,115.84649399999999,-39.368276,0.21631199999999998,-2.0000310000000003,0.956802
1410,109.19356100000002,127.38231499999999,-7.751583,0.319463,-2.0000310000000003,-0.5848479999999999
1412,-63.294422999999995,-0.854505,60.425727,0.02417,-1.929107,-0.604379
1414,-244.20538599999998,-215.518425,98.69535400000001,0.782971,-0.287602,1.7162130000000002
1416,-58.716716000000005,-91.30998699999999,41.687647999999996,-0.424933,1.311788,1.3180129999999999
1418,-327.45861,-143.73998600000002,88.50232700000001,0.686168,-0.38941,-0.343145
1420,-286.99168399999996,-63.416495,58.594643999999995,1.835721,-0.316533,1.9999689999999999
1422,-169.74136000000001,3.6621650000000003,7.507439,-1.066178,0.111452,1.9999689999999999
1424,-50.476844,-131.34966,34.302281,0.488655,-0.10925499999999999,1.9999689999999999
1426,-68.36041800000001,-10.009917999999999,15.564201999999998,0.098268,0.16809300000000002,1.0213780000000001
1428,-52.552071,-59.63225799999999,9.948882000000001,0.277836,-0.088991,1.238422
1430,-55.90905600000001,-23.987182,3.90631,-0.112795,-0.08276499999999999,1.136858
1432,-4.699779,-26.977951,-3.479057,0.12549000000000002,0.093874,0.9143209999999999
1434,-14.709697,-20.019837,-0.6103609999999999,0.010864,-0.06958099999999999,1.1103690000000002
1436,-16.906996,-10.742351,1.647974,0.071534,-0.029175,1.0799729999999998
1438,-0.549325,-2.685588,4.028382,0.060303999999999996,0.033448,0.945937
1440,-10.864424,-4.5166699999999995,4.8218510000000006,0.036378,0.066041,1.012589
1442,-20.813306,-6.347753,1.70901,-0.023438,-0.001343,0.991592
1444,-10.803388,-5.7984279999999995,0.549325,0.047852,-0.008179,1.026139
1446,-5.9205,-1.2207219999999999,1.342794,0.066285,-0.020752,1.044327
1448,-9.765774,3.479057,1.70901,0.028321,0.043336,0.9666899999999999
1450,-17.822538,4.5166699999999995,0.671397,0.035889,-0.000977,0.961318
1452,-18.921187,6.652933999999999,-0.976577,0.052003,-0.048585,1.008316
1454,-15.991454999999998,7.751583,-0.48828900000000003,0.052735000000000004,-0.045655,1.044327
1456,-9.643702000000001,8.789197,-0.671397,0.026733999999999997,-0.036866,0.9862209999999999
1458,-9.460594,4.638743,0.48828900000000003,-0.02417,0.004761,0.965225
1460,-13.977264000000002,-1.40383,-0.183108,0.017456,-0.027710000000000002,0.968887
1462,-15.625238000000001,-3.6621650000000003,-0.122072,0.031495,-0.042969,1.0129549999999998
1464,-12.207218,-0.9155409999999999,0.9155409999999999,0.059692999999999996,-0.08203300000000001,1.06215
1466,-4.577707,2.380407,2.685588,0.021851,-0.041993,0.9914700000000001
1468,-8.361944,0.6103609999999999,2.380407,-0.001953,-0.048463,0.9868309999999999
1470,-10.376135000000001,-2.50248,1.464866,0.011597,-0.0271,0.9751129999999999
1472,-16.296635000000002,-4.760815,0.48828900000000003,0.011963,-0.010986,0.941787
1474,-26.733806,-6.836042,0.244144,0.048951,-0.036866,1.017594
1476,-29.358358000000003,-5.188067,2.014191,0.06543099999999999,-0.082399,0.997452
1478,-25.696193,-2.80766,5.371176,0.035279000000000005,-0.10132000000000001,1.0042879999999998
1480,-22.034028,-0.30518,6.71397,0.059815,0.006592,0.956802
1482,-39.429313,-2.2583349999999998,2.563516,0.027344,-0.053834,1.007584
1484,-49.622339000000004,-1.586938,-0.366217,0.009766,-0.090455,1.01796
1486,-43.884947,0.6103609999999999,-3.784237,-0.017212,-0.08996699999999999,1.057389
1488,-44.007019,1.70901,-16.84596,0.015259,-0.169802,1.060441
1490,-56.458381,11.657893,-37.29305,0.129885,-0.38941,0.984512
1492,-18.188754,5.065995,-0.122072,0.031495,0.11621300000000001,0.950576
1494,-125.42916000000001,15.564201999999998,-29.236286,0.140139,0.126345,0.804822
1496,-173.281453,-10.864424,-18.982223,-0.208621,0.30249499999999996,0.74403
1498,-457.40444,-22.034028,-51.087205,-0.020630000000000003,-0.03003,1.2798049999999999
1500,-644.724193,-184.267948,49.073014,-0.261845,-0.405035,0.6872659999999999
1502,-774.181735,-239.749752,86.793317,0.558602,-1.228779,1.9999689999999999
1504,-239.87182400000003,-148.683909,39.246204,-0.208988,-0.658824,1.9999689999999999
1506,299.38201000000004,34.912642,-54.566262,-0.124025,1.486595,1.7789580000000003
1508,41.077287,-1.342794,9.82681,-0.48181899999999994,0.256229,0.235721
1510,145.08278,13.733120000000001,10.070953999999999,-0.30225100000000005,0.21509099999999998,0.12842
1512,96.620127,3.90631,16.540779999999998,-0.03125,0.314946,0.6619970000000001
1514,159.609369,17.639429,-2.624552,0.157351,0.46607200000000004,1.24892
1516,202.761883,28.564889,-35.278859000000004,0.41480100000000003,0.2439,1.434104
1518,254.45944900000003,55.542840000000005,-73.853666,0.383185,-0.063722,1.2044860000000002
1520,268.131533,61.34126800000001,-90.089265,0.11767799999999999,-0.486458,1.000137
1522,265.568017,52.124819,-78.98069699999999,-0.028076999999999998,-0.622568,1.088396
1524,251.95697,53.162431999999995,-62.623026,0.026612,-0.751232,1.419577
1526,257.81643399999996,64.69825300000001,-44.983596999999996,-0.051148,-0.846448,1.428244
1528,241.092546,78.248264,-25.696193,0.063966,-0.8966200000000001,1.3351030000000002
1530,216.311894,89.23476,-12.756542,0.199466,-0.8360719999999999,1.151263
1532,184.512093,72.14465600000001,-5.065995,0.269291,-0.737438,1.412741
1534,179.018845,55.786984,-9.948882000000001,0.306157,-0.639048,1.614771
1536,183.169299,50.843061,-18.554971,0.222904,-0.626596,1.547875
1538,175.41771599999998,53.589684999999996,-21.423667000000002,0.038697,-0.66273,1.436301
1540,157.473106,66.71244399999999,-10.193027,-0.196658,-0.7542840000000001,1.254536
1542,130.92240800000002,82.093538,13.427939000000002,-0.324712,-0.898085,1.088762
1544,102.784772,88.380255,45.838102,-0.088258,-0.9702299999999999,1.413352
1546,92.957961,115.968566,77.63790300000001,0.20923200000000003,-1.245747,1.486107
1548,106.446937,86.182956,97.10841500000001,0.539193,-1.964752,1.118303
1550,76.112001,76.173037,62.378882,0.585214,-2.0000310000000003,-2.0000310000000003
1552,-164.614328,-82.21561,55.237658999999994,1.04567,-1.9974669999999999,-1.8242470000000002
1554,-119.386587,-98.75639,-2.685588,0.130129,1.411276,1.9999689999999999
1556,-249.088273,-95.033188,18.24979,-0.27515100000000003,-0.337163,0.7528189999999999
1558,-199.404898,-67.20073199999999,29.602502,0.150759,0.09777999999999999,1.150042
1560,-195.74273300000002,-46.509499,23.926146,-0.017212,-0.598276,1.396506
1562,-194.827192,-128.480964,35.584039000000004,0.972427,-0.228275,1.9999689999999999
1564,67.627985,29.724575,-24.170291,-0.34741700000000003,0.332525,1.041764
1566,-52.429999,-15.930419,17.212177,0.41663199999999995,0.040894,1.411154
1568,-31.494621000000002,4.8218510000000006,6.591897,-0.197147,0.10425,0.812757
1570,-44.739452,-11.657893,3.723201,-0.017456,-0.050538,0.9948879999999999
1572,-21.545739,-21.606775,-2.136263,0.023804,0.048951,1.0283360000000001
1574,-28.320745000000002,-15.075914000000001,-3.173877,0.030396,-0.07067999999999999,1.091325
1576,-16.540779999999998,-11.657893,-2.868696,0.080812,-0.037232,1.0274809999999999
1578,-15.320058,-7.01915,0.0,0.023194,-0.01648,0.9990389999999999
1580,-16.235599,-7.812619000000001,0.0,0.00647,-0.050294,1.019425
1582,-13.427939000000002,-10.009917999999999,-0.6103609999999999,0.013672,-0.032837,1.0207680000000001
1584,-8.239872,-7.9957270000000005,-0.9155409999999999,0.041627,-0.048463,1.0472569999999999
1586,-7.568475,-5.432212,0.0,0.040406,-0.054688,1.015763
1588,-4.394598,-2.990768,0.427253,0.025391,-0.048585,1.009415
1590,-4.394598,-3.479057,-0.122072,0.040284,-0.033692,1.0121
1592,-3.173877,-2.075227,0.244144,0.038697,-0.057008,0.997452
1594,-6.225681,-2.624552,0.366217,0.033082,-0.032471,0.991348
1596,-7.507439,-3.173877,-0.244144,0.035889,-0.041505,0.9834129999999999
1598,-8.728161,-2.50248,-0.48828900000000003,0.040284,-0.062989,1.0112459999999999
1600,-6.164645,-1.40383,-0.48828900000000003,0.041016000000000004,-0.064088,1.007462
1602,-4.8218510000000006,-1.647974,-0.366217,0.021851,-0.058473000000000004,0.9869540000000001
1604,-8.728161,-3.295949,-0.732433,0.022216999999999997,-0.046998000000000005,0.9876860000000001
1606,-7.385367,-3.845274,-1.159686,0.049194999999999996,-0.060792,1.0046540000000002
1608,-7.446403,-1.8310830000000002,-0.671397,0.039185000000000005,-0.079591,1.0272370000000002
1610,-5.249104,0.0,0.244144,0.043336,-0.083986,1.0272370000000002
1612,-4.333562000000001,0.122072,-0.244144,0.043458,-0.071656,1.010025
1614,-1.8310830000000002,0.244144,-1.342794,0.04419,-0.079591,1.007584
1616,-0.30518,0.244144,-1.953155,0.052613,-0.075441,0.995865
1618,-0.244144,1.7700470000000001,-1.037613,0.051881,-0.093507,1.012589
1620,4.028382,3.90631,0.061036,0.052735000000000004,-0.098146,1.054215
1622,12.268253999999999,5.61532,1.342794,0.025513,-0.078737,1.015885
1624,11.841001,4.760815,0.732433,-0.004639,-0.011597,0.90956
1626,-3.295949,0.30518,0.122072,0.022095,-0.049439,0.968521
1628,-3.723201,-0.30518,0.0,0.046876,-0.062135,1.000626
1630,-4.150454,0.183108,-0.30518,0.0448,-0.060792,1.009659
1632,-2.929732,0.6103609999999999,-0.30518,0.034791,-0.061524,1.004532
1634,-3.234913,0.6103609999999999,-0.854505,0.028564999999999997,-0.06286699999999999,0.992325
1636,-4.5166699999999995,0.0,-1.281758,0.024048,-0.073365,0.9994049999999999
1638,-1.464866,0.122072,-1.342794,0.033448,-0.07422000000000001,1.008682
1640,1.40383,0.976577,-0.6103609999999999,0.039307,-0.087404,1.0196690000000002
1642,3.540093,1.8310830000000002,0.30518,0.03125,-0.073732,1.0118559999999999
1644,5.249104,2.197299,0.427253,0.032593000000000004,-0.075807,1.0160069999999999
1646,8.728161,2.929732,0.48828900000000003,0.037476,-0.08520599999999999,1.026139
1648,13.672084,4.028382,0.427253,0.033082,-0.073121,1.017105
1650,14.648660999999999,2.868696,-0.366217,-0.018555000000000002,-0.012695999999999999,0.890272
1652,-3.051804,-0.732433,-1.2207219999999999,0.018555000000000002,-0.053101,0.996353
1654,2.380407,0.976577,-1.159686,0.034546,-0.051514,1.018448
1656,4.760815,3.234913,-0.793469,0.035523,-0.056275,1.0129549999999998
1658,5.249104,4.394598,-0.30518,0.029053,-0.06652899999999999,1.014298
1660,6.836042,4.8218510000000006,0.30518,0.010376,-0.044923000000000005,0.9987950000000001
1662,7.934691,4.150454,0.854505,0.0271,-0.051514,1.002457
1664,9.82681,4.089418,0.671397,0.012451,-0.06421,1.029801
1666,13.061722999999999,3.723201,0.427253,0.020508000000000002,-0.059815,0.9980620000000001
1668,14.648660999999999,2.990768,-0.732433,0.029053,-0.041260000000000005,1.008438
1670,17.578393,4.272526,-1.09865,0.025147,-0.040284,1.037613
1672,19.714656,6.225681,-0.366217,-0.021973,0.026489999999999996,0.8890520000000001
1674,-2.197299,-0.671397,1.159686,-0.028076999999999998,0.031373000000000005,0.882826
1676,-10.803388,-3.90631,0.427253,0.013916,-0.030639999999999997,1.017105
1678,-2.868696,-4.455634,-0.9155409999999999,0.033936,-0.01648,1.0042879999999998
1680,-0.671397,-1.159686,-0.366217,0.026733999999999997,-0.041382,1.022477
1682,-1.586938,1.7700470000000001,1.40383,0.009644,-0.028443,1.002213
1684,-4.577707,-0.061036,1.8921189999999999,-0.0094,0.0015869999999999999,0.9340959999999999
1686,-12.024109,-7.385367,0.0,-0.021241,-0.016968,0.965225
1688,-4.089418,-9.094377,-1.464866,0.036622,-0.058227999999999995,1.0509190000000002
1690,-2.4414439999999997,-2.746624,0.976577,0.056152999999999995,-0.059815,1.049332
1692,5.432212,0.427253,1.8310830000000002,0.014282,-0.0058590000000000005,0.9788969999999999
1694,0.244144,-1.40383,0.793469,-0.010498,0.017334,0.9344629999999999
1696,-15.075914000000001,-6.591897,-1.40383,0.020142,-0.027344,0.9976959999999999
1698,-11.047532,-6.2867169999999994,-1.953155,0.017578,-0.053101,1.016983
1700,-1.159686,-0.549325,-0.183108,0.071534,-0.056641,1.047501
1702,-0.30518,0.854505,-0.122072,-0.0094,-0.010742,0.95729
1704,-2.80766,-3.540093,-2.136263,0.039307,-0.023072,0.9945219999999999
1706,-6.225681,0.671397,-0.732433,0.042115,-0.026489999999999996,0.9817040000000001
1708,-13.733120000000001,2.014191,0.549325,0.003906,-0.018067,1.044327
1710,-4.394598,3.6011290000000002,0.976577,0.012573,-0.04419,0.992691
1712,-6.2867169999999994,0.0,0.0,-0.008789,-0.055177,0.992691
1714,3.479057,-1.586938,-1.09865,0.035644999999999996,-0.073976,1.037613
1716,4.150454,0.0,0.0,0.027344,-0.046387,1.00502
1718,-2.197299,-0.732433,0.30518,0.027955,-0.022705,0.9863430000000001
1720,-4.638743,-0.366217,0.366217,0.022095,-0.041016000000000004,1.003433
1722,-1.8921189999999999,-1.7700470000000001,-0.366217,0.016358,-0.049928,1.013199
1724,-0.6103609999999999,-2.075227,-0.793469,0.027955,-0.059083000000000004,1.031144
1726,1.09865,-1.342794,-0.671397,0.029053,-0.058473000000000004,1.02504
1728,7.507439,-1.953155,-1.2207219999999999,0.018433,-0.037964,0.985489
1730,4.272526,-3.234913,-1.40383,0.014649,0.010131999999999999,0.9382469999999999
1732,-2.2583349999999998,-3.051804,-0.976577,0.031127999999999996,-0.050416,1.0047760000000001
1734,-2.80766,-1.8921189999999999,-0.549325,0.039307,-0.075074,1.0428629999999999
1736,-1.8310830000000002,-1.159686,-0.244144,0.018677000000000003,-0.043091000000000004,0.999283
1738,-0.48828900000000003,-2.685588,-1.2207219999999999,0.032349,-0.036866,0.999893
1740,1.342794,-2.075227,-1.159686,0.043702,-0.038819,1.006607
1742,-0.9155409999999999,-0.9155409999999999,-0.48828900000000003,0.035279000000000005,-0.026489999999999996,0.9869540000000001
1744,-1.342794,-0.366217,-0.671397,0.030274000000000002,-0.038575,1.000259
1746,-0.793469,-0.244144,-1.037613,0.037476,-0.050660000000000004,1.0078280000000002
1748,1.2207219999999999,1.2207219999999999,-0.427253,0.028687,-0.046387,1.0042879999999998
1750,-0.30518,0.061036,-0.671397,0.026368,-0.036255,1.003067
1752,0.366217,-0.30518,0.0,0.031738999999999996,-0.042725,1.010758
1754,1.09865,1.2207219999999999,-1.40383,0.043213999999999995,-0.036988,1.0150299999999999
1756,-1.159686,1.8310830000000002,0.30518,0.032593000000000004,-0.036133,1.021988
1758,3.540093,2.380407,-0.48828900000000003,0.033204000000000004,-0.049194999999999996,1.006485
1760,6.042573,1.342794,-0.793469,0.029297000000000004,-0.057008,1.02504
1762,11.169604,1.342794,-0.30518,0.010742,-0.018799,0.942641
1764,-2.075227,0.427253,-0.122072,0.027587999999999998,0.013184,0.9437399999999999
1766,-4.21149,0.061036,-0.30518,0.034668,-0.033204000000000004,1.0036770000000002
1768,-2.380407,0.6103609999999999,-0.671397,0.023804,-0.043091000000000004,1.0129549999999998
1770,0.976577,-1.09865,-0.366217,0.014527000000000002,-0.036988,1.011124
1772,0.061036,-0.793469,-0.671397,0.027587999999999998,-0.045411,1.00795
1774,-0.671397,-0.30518,-0.549325,0.020630000000000003,-0.034791,0.993179
1776,0.793469,-0.30518,-0.854505,0.03003,-0.030396,0.9837799999999999
1778,-0.122072,-0.732433,-1.342794,0.019287000000000002,-0.036011,1.0047760000000001
1780,1.647974,-1.159686,-0.671397,0.026978,-0.038452999999999994,1.002579
1782,0.9155409999999999,-0.854505,-0.427253,0.031617,-0.035279000000000005,1.0085600000000001
1784,2.624552,-0.549325,0.244144,0.023072,-0.031617,1.000504
1786,3.295949,-1.40383,1.2207219999999999,0.022338999999999998,-0.040162,1.007462
1788,3.356985,-1.40383,1.09865,0.024659,-0.026123,0.9909819999999999
1790,-0.183108,-1.037613,0.366217,0.029175,-0.022338999999999998,0.9948879999999999
1792,-0.6103609999999999,-0.244144,-0.427253,0.020508000000000002,-0.016846,1.0042879999999998
1794,-1.342794,-0.183108,-0.244144,0.025025,-0.030518,1.00441
1796,0.244144,-0.549325,-0.122072,0.027710000000000002,-0.017945,1.009293
1798,1.159686,-0.427253,0.30518,0.030762,-0.025757,1.000992
1800,0.671397,-0.122072,-0.30518,0.026489999999999996,-0.018189,0.9946440000000001
1802,-1.342794,0.183108,-0.549325,0.027587999999999998,-0.022827,0.998917
1804,-3.784237,0.671397,-0.549325,0.026123,-0.016358,0.992081
1806,-7.446403,2.136263,-3.295949,0.10693499999999999,-0.024781,1.083879
1808,-2.929732,-1.40383,-0.122072,0.07776,-0.042359,1.01442
1810,1.09865,-1.40383,1.09865,0.051026,-0.026001,1.004166
1812,2.50248,-0.427253,0.48828900000000003,0.045045,-0.022216999999999997,1.005875
1814,5.9205,0.061036,0.244144,0.002686,-0.010131999999999999,0.980606
1816,9.094377,-0.244144,-1.159686,0.026246,-0.023438,0.973404
1818,2.50248,0.244144,-1.2207219999999999,0.030274000000000002,-0.012818000000000001,0.9946440000000001
1820,-0.427253,0.732433,-2.624552,0.026123,-0.019898,0.9959870000000001
1822,-0.9155409999999999,0.6103609999999999,-2.746624,0.027832,-0.027587999999999998,1.0000149999999999
1824,-1.8310830000000002,0.183108,-2.746624,0.016114,-0.029664,0.9870760000000001
1826,-1.647974,-0.793469,-1.586938,0.018677000000000003,-0.028076999999999998,0.9976959999999999
1828,-0.854505,-0.366217,-1.037613,0.026856,-0.016724,0.9858549999999999
1830,-2.319371,-0.061036,-0.244144,0.025147,-0.028076999999999998,1.002823
1832,-0.549325,0.30518,-0.122072,0.021118,-0.025147,0.994766
1834,0.976577,-0.122072,0.0,0.027710000000000002,-0.029664,1.0031889999999999
1836,2.746624,0.0,-0.549325,0.031127999999999996,-0.023926,1.000626
1838,1.8310830000000002,0.30518,-0.976577,0.033569999999999996,-0.023194,1.001724
1840,0.061036,1.037613,-3.418021,0.016358,-0.027344,0.988785
1842,-1.8310830000000002,0.122072,-1.647974,0.017945,-0.026489999999999996,0.989395
1844,-1.037613,0.30518,-1.342794,0.034546,-0.015381,0.9980620000000001
1846,-1.2207219999999999,1.586938,-4.577707,0.016846,-0.029786,0.9944
1848,3.173877,-0.183108,-0.854505,0.016968,-0.031127999999999996,0.992935
