Packet number,Gyroscope X (deg/s),Gyroscope Y (deg/s),Gyroscope Z (deg/s),Accelerometer X (g),Accelerometer Y (g),Accelerometer Z (g)
0,-0.061036,-0.244144,-0.122072,-0.010864,0.005249,0.999405
1,-0.244144,-0.427253,-0.183108,-0.005982,0.002930,0.995377
2,-0.122072,-0.366217,0.000000,-0.006226,0.005127,1.005509
3,-0.122072,-0.427253,-0.183108,-0.008423,0.005615,1.002579
4,-0.122072,-0.305180,0.000000,-0.003662,0.002564,0.995865
5,-0.427253,-0.488289,-0.122072,-0.001831,0.002075,0.990372
6,-0.366217,-0.366217,-0.183108,-0.006958,0.002808,0.997086
7,-0.671397,-0.366217,-0.122072,-0.000732,-0.000244,0.996719
8,-0.427253,-0.183108,-0.122072,-0.004883,0.001465,1.003922
9,-0.427253,-0.183108,-0.122072,-0.013428,0.002319,1.002335
10,-0.305180,-0.061036,-0.122072,-0.003540,0.003418,0.999161
11,0.000000,0.061036,-0.122072,-0.007446,0.004395,1.003555
12,-0.122072,0.000000,-0.122072,-0.002808,0.005005,1.000870
13,0.244144,0.122072,0.000000,-0.011353,-0.000732,0.991958
14,-0.366217,-0.244144,0.000000,-0.003662,0.001953,1.000626
15,0.061036,-0.122072,0.000000,-0.008545,0.000122,1.000137
16,0.305180,-0.244144,0.061036,-0.010010,0.011353,0.984146
17,-0.305180,-0.305180,0.000000,-0.008667,0.010620,0.983291
18,-0.976577,-0.671397,-0.183108,-0.010376,0.014893,0.997086
19,-1.647974,-0.610361,0.000000,-0.001465,0.002075,1.006485
20,-0.854505,-0.305180,-0.183108,-0.004150,0.007080,0.991348
21,-2.075227,-0.061036,0.061036,-0.006836,-0.006226,0.994888
22,-0.488289,0.244144,0.061036,-0.000488,0.004395,1.006729
23,-1.342794,-0.061036,0.000000,-0.010010,0.001099,0.994156
24,-1.098650,-0.061036,0.000000,-0.006470,-0.006714,1.006119
25,-0.244144,0.000000,0.000000,-0.006714,0.004761,0.992081
26,-0.732433,-0.244144,0.000000,-0.008789,0.006714,1.004654
27,-0.488289,-0.183108,0.000000,-0.009277,0.002441,0.999161
28,-0.427253,-0.366217,-0.122072,-0.002564,0.006226,0.997208
29,-0.488289,-0.610361,0.000000,-0.008301,0.001465,0.995254
30,-0.061036,-0.549325,-0.122072,-0.004639,0.003784,1.002213
31,-0.244144,-0.732433,-0.122072,-0.010742,0.008057,0.989883
32,-0.793469,-0.976577,0.000000,-0.003418,0.009277,0.994888
33,-0.671397,-1.037613,-0.244144,-0.002441,0.012085,0.994644
34,-2.014191,-1.037613,0.000000,-0.003662,0.003418,0.995132
35,-1.220722,-0.854505,-0.122072,-0.013306,-0.002197,1.005386
36,-1.281758,-0.671397,-0.122072,-0.000122,0.001465,1.003799
37,-1.098650,-0.610361,0.000000,-0.012085,0.000732,1.008560
38,-0.854505,-0.610361,0.000000,0.001465,0.005493,1.013931
39,-0.305180,-0.305180,-0.183108,-0.006226,0.001465,1.004044
40,-0.183108,-0.488289,0.000000,-0.005737,-0.000488,1.003189
41,-0.244144,-0.427253,-0.183108,-0.008057,0.006226,0.994522
42,-0.549325,-0.610361,0.000000,-0.010132,0.001099,0.999283
43,-0.061036,-0.549325,-0.122072,-0.006226,0.000244,0.990127
44,-0.366217,-0.671397,-0.122072,-0.009644,0.002075,1.001724
45,-0.427253,-0.732433,-0.122072,-0.001465,0.004150,0.998550
46,-0.427253,-0.793469,-0.122072,-0.004639,0.010620,0.995132
47,-0.793469,-0.671397,-0.122072,-0.004883,0.006958,0.997086
48,-0.732433,-0.854505,0.000000,-0.007446,0.006714,1.001602
49,-0.976577,-0.854505,-0.183108,-0.001953,0.000610,0.998672
50,-0.671397,-0.671397,0.000000,-0.001221,0.005982,0.999283
51,-0.488289,-0.671397,0.000000,-0.003784,-0.003906,0.999771
52,-0.183108,-0.427253,-0.122072,-0.005615,0.003052,1.002823
53,-0.488289,-0.305180,0.000000,-0.009033,0.002930,0.994034
54,-0.061036,-0.305180,0.000000,-0.008911,0.005493,0.993668
55,-0.427253,-0.488289,0.000000,-0.009155,0.001831,0.997818
56,-0.061036,-0.427253,0.000000,-0.005737,0.006104,0.995987
57,-0.122072,-0.732433,0.000000,-0.006958,0.003540,0.995987
58,-0.122072,-0.732433,0.061036,-0.005615,0.004517,0.996963
59,-0.183108,-0.732433,0.000000,-0.004395,0.007080,0.987198
60,-0.366217,-0.732433,-0.122072,-0.006714,0.007568,0.993301
61,-1.770047,-1.037613,0.061036,-0.005615,-0.000855,1.007706
62,-0.488289,-0.671397,-0.122072,-0.000244,0.001953,0.992203
63,-1.037613,-0.549325,0.000000,-0.004395,0.005249,0.987686
64,-0.915541,-0.488289,0.000000,-0.008789,-0.000122,0.999405
65,-0.976577,-0.549325,0.000000,-0.000366,0.009155,0.999893
66,-1.098650,-0.610361,0.000000,-0.011719,0.002808,0.998917
67,-0.854505,-0.732433,0.000000,-0.007324,0.004028,1.000870
68,-0.732433,-0.793469,0.061036,-0.004273,0.000488,1.001114
69,-0.488289,-0.854505,0.000000,-0.011353,0.003540,0.997696
70,-0.549325,-0.976577,0.000000,-0.008423,0.002075,0.994644
71,-0.610361,-0.976577,0.000000,-0.003906,0.002808,1.003189
72,-0.244144,-0.854505,0.061036,-0.005005,0.004761,0.997208
73,-0.488289,-0.610361,0.244144,-0.001343,0.002686,0.999527
74,-0.183108,-0.610361,0.183108,-0.008057,-0.000122,1.000992
75,-0.122072,-0.488289,0.244144,-0.001099,0.003296,0.993790
76,-0.366217,-0.488289,0.183108,-0.003784,0.005371,1.009781
77,0.061036,-0.305180,0.183108,0.004883,-0.003418,1.002213
78,0.671397,0.000000,0.122072,-0.003174,-0.008301,1.009293
79,1.220722,0.122072,0.183108,-0.010254,0.001709,1.008560
80,1.586938,0.183108,0.244144,-0.001221,0.000732,1.007218
81,2.380407,0.244144,0.244144,-0.003052,-0.001831,1.006729
82,3.479057,0.244144,0.244144,-0.000977,-0.001709,1.005142
83,4.882887,0.427253,0.122072,-0.007324,0.005005,1.017838
84,7.507439,1.403830,0.000000,-0.015259,0.019165,0.940688
85,5.920500,0.549325,0.061036,-0.010254,0.004761,0.976333
86,4.821851,0.000000,0.122072,-0.008545,0.021851,1.012100
87,4.760815,0.061036,0.000000,-0.016114,0.015869,0.963272
88,3.967346,-0.488289,0.244144,-0.006348,0.023560,0.992569
89,2.807660,-0.366217,0.122072,0.001709,0.015625,1.003799
90,3.356985,-0.793469,0.244144,-0.007935,0.011475,0.986343
91,2.197299,-0.976577,0.244144,-0.008179,0.019532,0.993545
92,2.807660,-0.732433,0.000000,-0.005859,0.011475,0.998062
93,3.295949,-1.220722,0.061036,0.001709,-0.009400,0.972061
94,2.380407,-1.220722,0.061036,-0.000732,0.029297,1.001480
95,2.319371,-0.976577,0.122072,-0.015015,0.010376,1.008072
96,2.685588,-0.915541,0.061036,0.005615,0.019043,0.996963
97,2.807660,-0.488289,0.000000,-0.008789,0.013672,0.976944
98,1.953155,-0.976577,-0.122072,-0.005982,0.015259,0.997452
99,2.319371,-0.976577,0.061036,0.008667,0.013062,0.997452
100,2.136263,-0.610361,0.000000,-0.015991,0.031373,1.003067
101,2.502480,-0.732433,-0.183108,0.007691,-0.005737,0.983658
102,2.868696,0.000000,-0.183108,0.003174,0.002441,1.008316
103,3.418021,0.183108,0.305180,-0.020020,0.031617,1.012833
104,3.173877,-0.305180,0.549325,-0.003174,0.025269,0.994888
105,3.051804,-0.244144,0.366217,-0.011719,0.033692,0.976822
106,2.014191,-0.854505,0.244144,-0.012573,0.028931,0.981949
107,1.281758,-1.281758,0.122072,-0.015625,0.024414,0.998062
108,1.159686,-1.281758,0.061036,0.014282,0.020264,1.011612
109,2.136263,-0.610361,0.000000,-0.008423,0.048829,1.024430
110,1.159686,-0.793469,-0.122072,-0.002808,0.004639,0.997818
111,2.624552,-0.915541,-0.122072,-0.007446,0.046265,1.005997
112,0.854505,-1.098650,0.244144,-0.005249,0.013306,0.996841
113,2.807660,-1.586938,0.427253,-0.011841,0.057862,0.987320
114,-0.549325,-2.075227,0.488289,-0.008911,0.013550,0.977066
115,1.281758,-1.953155,0.244144,-0.011597,0.036866,0.994644
116,0.671397,-2.319371,0.366217,-0.005127,0.028199,0.984878
117,0.183108,-2.746624,0.183108,-0.014405,0.024659,0.970840
118,0.000000,-3.601129,0.305180,-0.004395,0.027222,0.995499
119,-0.244144,-3.418021,0.671397,-0.006348,0.017456,1.012100
120,1.159686,-2.929732,0.854505,-0.013794,0.014282,1.011734
121,2.929732,-3.234913,1.037613,-0.002564,0.037232,0.992569
122,1.770047,-3.845274,0.915541,-0.007813,0.027955,0.990372
123,1.464866,-4.394598,0.915541,-0.010010,0.020752,0.988907
124,3.051804,-5.004959,1.098650,-0.014038,0.040894,0.969619
125,1.037613,-5.310140,1.159686,0.027100,0.039673,0.996475
126,0.854505,-4.211490,0.854505,0.015015,0.015625,1.015152
127,3.173877,-2.685588,0.671397,0.028809,0.040040,1.001968
128,1.464866,-1.281758,0.549325,0.029908,0.037232,0.998672
129,1.464866,0.000000,0.305180,0.025635,0.024659,1.017838
130,1.831083,1.709010,0.549325,0.033814,0.049928,1.016129
131,1.403830,3.906310,0.671397,0.020874,0.023926,1.021378
132,3.601129,4.699779,0.427253,-0.005493,0.015991,0.944472
133,1.098650,4.333562,0.671397,-0.012940,0.052247,0.981827
134,-0.488289,2.990768,0.793469,-0.025879,0.033204,1.014786
135,1.770047,2.075227,0.305180,-0.013306,0.023316,1.003067
136,4.028382,0.793469,0.305180,-0.034668,0.034302,0.992203
137,4.516670,-1.464866,0.122072,-0.027222,0.043091,0.957290
138,2.746624,-3.845274,-0.244144,-0.020752,0.057252,0.962539
139,1.098650,-5.554284,-0.610361,-0.007813,0.040772,0.978531
140,0.366217,-6.103609,-0.976577,0.002319,0.040772,0.980850
141,-0.305180,-5.493248,-0.915541,0.012207,0.042725,0.983902
142,-1.647974,-4.455634,-0.732433,0.023560,0.046998,1.000626
143,-2.502480,-2.807660,-0.427253,0.014405,0.040284,1.007462
144,-2.197299,-1.220722,-0.244144,0.014038,0.061402,0.954360
145,-6.408789,-1.159686,-0.183108,-0.014527,0.055909,0.940444
146,-9.704738,-1.159686,-0.244144,0.016968,0.035157,0.988907
147,-8.972305,-0.244144,-0.305180,0.004273,0.016114,1.028580
148,-7.141222,0.488289,0.061036,0.019532,0.006714,1.030045
149,-3.723201,1.342794,0.000000,0.010010,0.025025,0.992081
150,-4.333562,1.281758,0.000000,0.002686,0.024414,1.015030
151,-3.234913,1.037613,0.000000,0.005859,0.016846,1.000748
152,-1.403830,1.281758,-0.244144,-0.004639,0.034913,0.979385
153,-3.173877,0.915541,-0.305180,-0.001953,0.044312,0.968399
154,-5.249104,0.488289,-0.366217,-0.004150,0.044556,0.963760
155,-6.530861,0.366217,-0.793469,0.009033,0.056519,0.957412
156,-11.596857,0.061036,-0.549325,0.005737,0.020996,1.001724
157,-9.033341,0.793469,-0.549325,0.018677,0.022095,1.011002
158,-10.009918,1.525902,-0.366217,0.003906,0.007324,1.028336
159,-7.507439,1.953155,0.000000,0.003418,0.003540,1.014664
160,-5.432212,2.075227,-0.183108,-0.004639,0.014771,0.997940
161,-5.859464,1.281758,-0.183108,-0.019654,0.010132,0.985367
162,-4.089418,0.183108,-0.366217,-0.014893,0.021851,0.975479
163,-5.859464,-1.220722,-0.183108,-0.021363,0.019654,0.958511
164,-5.981537,-2.380407,0.061036,-0.011109,0.042725,0.960708
165,-10.070954,-3.540093,0.183108,-0.000244,0.035523,0.953750
166,-12.512398,-4.028382,0.244144,0.005982,0.014405,0.995987
167,-12.268254,-3.784237,0.183108,-0.000977,0.009400,1.019059
168,-12.207218,-3.479057,0.366217,0.012696,0.001465,1.006119
169,-10.620279,-2.441444,0.488289,0.013428,-0.016846,1.022354
170,-8.545052,-1.525902,0.732433,0.011597,0.001587,1.003799
171,-8.361944,-1.342794,1.098650,0.008789,0.004150,0.978897
172,-10.070954,-2.502480,1.098650,-0.012085,0.006714,0.968521
173,-11.169604,-3.723201,1.098650,0.005493,0.002197,0.997940
174,-10.559243,-4.333562,1.220722,-0.008911,0.003174,0.968887
175,-11.902037,-5.676356,1.342794,0.000732,0.006958,0.965103
176,-14.831769,-6.225681,1.586938,-0.000244,-0.008789,0.980728
177,-13.611048,-6.347753,1.831083,0.011719,0.001709,0.990005
178,-15.991455,-6.103609,2.075227,0.018433,-0.007080,1.004776
179,-15.564202,-5.127031,2.380407,0.028199,-0.022827,1.028458
180,-13.000687,-3.601129,2.319371,0.028077,-0.019043,1.026871
181,-12.573434,-2.441444,2.502480,0.016846,-0.028321,1.018204
182,-11.596857,-2.136263,2.380407,-0.000732,-0.030884,0.998672
183,-10.193027,-2.746624,2.380407,-0.001587,-0.017212,0.979507
184,-11.535821,-4.150454,2.502480,-0.000366,-0.015625,0.975601
185,-12.390326,-5.004959,2.441444,0.001221,-0.008301,0.975845
186,-14.770733,-5.920500,2.380407,0.000244,-0.017578,0.979385
187,-15.930419,-6.164645,2.380407,0.018433,-0.010376,0.995621
188,-18.616007,-5.981537,2.441444,0.023072,-0.029908,1.020523
189,-18.493935,-5.249104,2.685588,0.025757,-0.044190,1.055558
190,-16.174563,-3.601129,2.563516,0.019409,-0.022095,1.036881
191,-17.456321,-3.601129,2.014191,0.031373,-0.024659,0.982559
192,-18.860151,-3.173877,0.915541,0.010254,0.000366,0.964614
193,-20.386053,-3.662165,-0.793469,0.017578,0.047120,0.975357
194,-27.710384,-2.502480,-1.342794,0.018067,0.040650,0.968032
195,-40.344854,-3.662165,-0.732433,-0.027588,-0.013428,0.889418
196,-43.335622,-4.638743,-1.220722,0.065309,-0.027466,0.998550
197,-41.809720,-3.051804,-0.305180,-0.007202,0.010986,1.028946
198,-40.772107,-1.464866,-3.173877,-0.004150,-0.062989,1.021012
199,-38.208591,3.967346,-1.281758,0.019532,-0.019532,1.083635
200,-38.208591,4.516670,-10.559243,-0.046143,-0.071168,1.004044
201,-47.730220,1.342794,-30.029755,-0.054932,-0.145144,1.052628
202,-56.275273,9.643702,-33.264668,0.138796,-0.175418,0.886244
203,-56.641489,13.611048,-22.827497,0.155520,-0.253544,1.038590
204,-38.696880,11.657893,-2.685588,0.041627,-0.108400,1.050553
205,-46.875715,10.681315,-3.906310,0.015503,-0.021851,0.953872
206,-65.980011,12.146181,-2.868696,0.076661,0.008789,1.002213
207,-76.661326,14.831769,6.347753,0.002808,0.028565,0.900526
208,-94.056611,12.573434,8.850233,-0.081422,0.165286,0.848646
209,-138.612955,12.878614,10.193027,-0.067506,0.044312,0.981827
210,-209.170672,6.286717,30.334936,0.004639,0.126955,1.084367
211,-228.763256,20.325017,18.921187,0.091798,-0.010254,1.189105
212,-279.118029,20.691234,-1.220722,0.023316,0.185061,0.975601
213,-390.569924,22.217136,28.625925,0.297002,0.271977,1.896025
214,-467.231251,54.200046,32.898451,0.229740,-0.117678,1.999969
215,-486.701762,101.380941,22.644388,0.340581,0.230838,1.556298
216,-526.680400,149.111162,4.150454,0.423590,0.102052,1.443870
217,-572.152285,176.089113,49.805447,-0.072145,-0.313359,1.999969
218,-459.357595,133.119707,46.936751,-1.353414,0.143679,1.999969
219,-27.100023,51.575494,-54.261082,-0.406989,-0.150881,1.999969
220,151.430533,23.315785,-57.984283,-0.558968,0.803723,1.605127
221,42.786297,-19.104295,-9.399557,-0.272099,0.711315,1.309712
222,-34.546426,-60.425727,24.048219,-0.006958,0.371954,0.941909
223,53.711757,-44.434272,6.469825,0.237186,0.383551,0.782483
224,67.200732,-28.381781,-15.686275,0.292241,0.563729,0.554208
225,30.395972,-16.052491,-25.696193,0.273075,0.415656,0.785901
226,61.524376,-4.821851,-42.420081,0.150393,0.375738,0.866712
227,79.346914,-7.202258,-50.476844,0.034180,0.433356,0.892836
228,84.901198,-17.029068,-50.049592,-0.089845,0.333623,1.026993
229,111.635004,-25.268940,-47.425040,-0.158450,0.318242,1.109270
230,130.556191,-30.701152,-42.420081,-0.191043,0.313603,1.176654
231,146.364538,-31.128405,-36.865797,-0.205081,0.273320,1.275410
232,168.764782,-27.649348,-32.654307,-0.205692,0.239872,1.350362
233,188.235294,-20.508125,-28.564889,-0.200809,0.196414,1.347189
234,205.813687,-12.207218,-23.926146,-0.186526,0.126101,1.245380
235,220.218204,-5.127031,-20.080873,-0.135134,0.066896,1.069352
236,225.711452,-2.258335,-16.052491,-0.077882,0.029053,0.939834
237,227.786679,-4.638743,-14.343481,0.007202,0.028199,0.919203
238,227.542535,-8.300908,-15.564202,0.113039,0.049439,1.032975
239,228.336004,-9.216449,-21.606775,0.209110,0.021118,1.104143
240,229.190509,-4.272526,-32.043946,0.287968,-0.046754,1.062516
241,222.842756,6.469825,-44.068055,0.351812,-0.128420,0.987076
242,210.391394,12.939651,-55.176623,0.262577,-0.156130,1.114397
243,202.395666,12.085145,-63.233387,0.192020,-0.145388,1.411154
244,201.785306,11.047532,-69.153887,0.122927,-0.149172,1.605371
245,205.020218,17.883574,-73.853666,0.063966,-0.169924,1.813748
246,205.264363,30.151827,-75.318532,-0.003418,-0.260258,1.910430
247,210.452430,37.598230,-74.402991,-0.069093,-0.390143,1.858183
248,215.091173,39.673457,-71.839475,-0.093141,-0.509041,1.743191
249,211.367971,41.260395,-66.895552,-0.109621,-0.588388,1.763577
250,207.766842,39.490349,-60.364691,-0.134768,-0.644663,1.903960
251,213.382162,38.269627,-53.955901,-0.117311,-0.663462,1.966094
252,221.499962,38.635843,-48.279545,-0.031006,-0.660166,1.881376
253,224.673838,39.612421,-45.227741,0.095827,-0.663462,1.678492
254,221.316854,39.368276,-45.288777,0.193973,-0.668711,1.552270
255,215.213245,38.391699,-47.730220,0.258183,-0.675425,1.541772
256,208.804456,37.781338,-50.415808,0.219852,-0.748913,1.577417
257,208.194095,33.447776,-50.232700,0.142580,-0.852674,1.507225
258,207.766842,26.123445,-47.302968,0.088502,-0.953872,1.259907
259,196.841382,19.653620,-44.129091,0.107790,-1.071916,1.019059
260,175.783932,17.639429,-43.945983,0.203494,-1.210956,0.803479
261,150.453956,20.935378,-51.209277,0.330938,-1.360983,0.635142
262,120.241093,30.273899,-64.820325,0.392462,-1.542016,0.498665
263,88.624399,42.114900,-76.417182,0.361700,-1.694728,0.291020
264,58.289464,39.246204,-78.797589,0.216434,-1.739406,0.138064
265,24.658579,19.165332,-66.102083,-0.056764,-1.688258,0.161868
266,-10.193027,-8.606088,-40.405890,-0.481086,-2.000031,-1.685328
267,-104.493782,-100.038148,13.733120,-0.437018,-1.536645,-0.277714
268,-156.496529,-119.447623,42.481117,-0.163821,-1.723293,0.476814
269,-198.062104,-74.525063,57.129778,-0.337163,-1.403098,0.617441
270,-113.588159,-47.791257,55.725948,-0.102663,-0.042481,1.514427
271,-119.569696,-47.608148,58.472572,0.207034,0.823621,1.852811
272,-156.130312,-62.500954,55.542840,0.505257,0.573861,0.790906
273,-194.705119,-69.764248,44.678416,0.541756,0.045533,0.265141
274,-224.795911,-59.021897,41.016251,0.549081,-0.023316,1.507225
275,-224.612802,-38.025483,34.546426,0.597055,-0.007446,1.999969
276,-158.205539,-24.048219,14.892805,0.517586,-0.125734,1.999969
277,-93.873503,-3.906310,-1.342794,0.127810,-0.123781,1.594995
278,-80.018311,7.995727,-0.793469,-0.285771,-0.034424,1.115373
279,-87.708858,8.545052,13.733120,-0.631357,0.019532,0.971450
280,-114.930953,-45.777066,33.203632,-0.497322,-0.112795,1.471214
281,-60.242618,-70.130465,30.823224,0.144411,0.046143,1.494896
282,-56.336309,-66.773480,17.517357,0.939956,0.264164,1.999969
283,-44.678416,-19.348440,2.502480,0.332036,-0.076661,1.094377
284,-34.241245,-9.704738,1.464866,-0.506722,0.142702,1.011490
285,-71.107042,-41.321431,8.850233,-0.031739,-0.056031,1.150774
286,-30.457008,-31.616693,1.586938,0.309453,0.044556,1.325826
287,-29.846647,-18.310826,2.075227,-0.005493,0.107668,1.079850
288,-40.222782,-18.493935,2.319371,-0.038941,-0.051759,1.122942
289,-12.329290,-17.944610,-1.403830,0.022339,0.056764,1.067521
290,-21.728847,-16.906996,-0.427253,0.015625,0.055055,1.025406
291,-24.292363,-15.686275,0.000000,-0.004883,-0.014649,1.097795
292,-10.620279,-13.122759,-0.793469,0.073487,0.024781,1.024063
293,-13.794156,-7.141222,0.061036,0.068238,0.077272,1.042496
294,-17.456321,-3.906310,1.159686,0.029908,0.023682,1.035416
295,-14.709697,-1.892119,1.159686,0.043214,0.007324,1.033341
296,-13.061723,0.366217,1.525902,0.035157,0.007691,1.024552
297,-11.779965,0.610361,1.525902,-0.004150,0.005859,1.017716
298,-9.948882,-0.610361,1.647974,0.009400,0.008545,1.029923
299,-7.629511,-0.671397,2.075227,0.001099,0.014038,1.021744
300,-4.882887,-1.159686,2.014191,-0.005493,0.005982,0.999771
301,-8.117800,-2.075227,2.197299,-0.000488,-0.006714,0.995010
302,-8.117800,-2.197299,1.892119,0.018189,-0.008789,1.015152
303,-8.972305,-1.098650,2.502480,0.037476,0.054322,1.040055
304,-7.934691,-0.549325,2.807660,0.023926,0.062501,1.010513
305,-8.484016,-0.671397,2.685588,0.008423,0.070436,1.014298
306,-9.643702,-1.403830,2.563516,0.016114,0.005737,1.000504
307,-7.995727,-2.014191,2.075227,0.001343,0.053712,1.026871
308,-5.920500,-2.624552,1.709010,0.017578,-0.025635,0.965591
309,-8.606088,-3.540093,1.586938,-0.006226,0.021729,0.996841
310,-8.117800,-4.760815,1.342794,-0.007202,0.027344,0.949844
311,-11.413748,-6.347753,1.098650,-0.002319,0.039551,0.953750
312,-15.991455,-7.507439,1.159686,0.015381,0.009277,0.997940
313,-15.014878,-6.897078,0.976577,0.025025,-0.004028,1.000015
314,-14.648661,-6.225681,0.793469,0.008179,-0.012573,0.996963
315,-13.977264,-6.164645,1.037613,0.031495,-0.006226,1.000381
316,-13.244831,-5.737392,0.671397,0.018311,-0.005127,0.994278
317,-14.038300,-5.920500,0.488289,0.021118,-0.000610,0.993301
318,-14.160372,-5.859464,0.549325,0.029664,-0.014160,0.993790
319,-15.197986,-5.615320,0.305180,0.042237,-0.018677,1.009903
320,-14.343481,-5.004959,0.427253,0.024781,-0.007202,0.986587
321,-16.845960,-5.127031,0.854505,0.032593,0.003906,0.973159
322,-20.752270,-4.211490,1.037613,0.008789,-0.032837,0.982315
323,-22.095064,-5.737392,1.037613,0.014771,-0.014893,1.011124
324,-21.484703,-6.103609,0.793469,0.026978,-0.021729,0.982071
325,-21.118486,-6.225681,0.488289,0.015625,-0.011597,0.967422
326,-23.926146,-7.324331,0.427253,0.034791,-0.035645,0.998428
327,-21.911955,-7.324331,0.183108,0.009888,-0.025025,0.956191
328,-23.682002,-8.972305,0.854505,0.028687,-0.017212,0.981582
329,-27.222095,-6.958114,1.342794,0.075196,-0.045289,1.110246
330,-27.771420,-3.662165,0.488289,0.043702,-0.046754,0.979019
331,-33.813993,-2.319371,1.586938,0.045899,-0.059083,0.978775
332,-35.645075,-0.671397,3.906310,0.062989,-0.064698,1.017838
333,-34.180209,2.075227,6.469825,0.072145,-0.033570,1.005386
334,-45.166705,6.652934,8.728161,0.025635,-0.033448,1.019791
335,-52.368963,5.737392,8.728161,0.007324,-0.077638,0.991104
336,-43.274586,5.615320,6.164645,0.023194,-0.037720,1.014664
337,-49.134051,5.065995,2.868696,0.000610,-0.072511,1.003433
338,-48.584726,2.624552,0.976577,-0.011841,-0.087282,0.973037
339,-41.382467,2.624552,-3.601129,-0.023682,-0.079713,1.087785
340,-41.077287,2.929732,-15.014878,-0.062379,-0.017945,0.989151
341,-56.580453,8.117800,-36.926833,-0.011109,-0.084840,0.988418
342,-55.725948,9.765774,-38.147555,0.119142,-0.342290,1.022477
343,-31.128405,7.080186,-14.343481,0.088502,-0.279667,1.102800
344,-12.573434,4.394598,-3.051804,0.081910,-0.106325,1.074113
345,-26.306554,6.042573,-5.981537,0.056397,0.033692,1.021012
346,-56.946670,12.451362,-8.545052,0.018311,0.175784,0.940566
347,-116.945144,21.118486,-16.052491,0.096925,0.194827,0.973159
348,-151.125353,22.461280,-5.920500,0.034180,0.073487,0.641978
349,-137.819486,5.432212,5.554284,-0.147463,0.514656,0.815320
350,-195.681697,-14.282444,-28.747997,-0.054688,0.857435,0.951064
351,-457.953765,-1.953155,-47.852293,0.027222,0.322026,1.574853
352,-642.954147,-37.048905,25.696193,-0.321904,0.359747,1.801541
353,-708.079652,-60.181582,19.775692,0.196292,0.045655,1.301900
354,-782.238499,-46.875715,16.113527,0.278202,-0.330205,1.083757
355,-873.914702,-33.630884,88.990616,-0.601328,-2.000031,1.999969
356,-515.632868,3.845274,43.457694,-1.669459,-0.822644,1.999969
357,184.939345,23.498894,-66.346227,-0.655772,0.654673,1.999969
358,287.052720,19.348440,-58.838788,-1.001114,0.997574,1.940215
359,92.591745,-14.892805,-23.987182,-0.703380,0.484749,1.064225
360,-21.179522,-87.769894,49.378195,-0.349248,0.424933,0.286625
361,17.578393,-92.835889,46.265354,-0.073732,0.362799,0.562142
362,102.113375,-69.581140,17.883574,-0.066041,0.542733,0.614145
363,71.839475,-56.031128,12.939651,0.063478,0.615000,0.697765
364,62.623026,-41.504540,4.028382,0.024781,0.524788,0.978164
365,107.972839,-26.001373,-11.779965,0.001221,0.566537,1.026871
366,125.429160,-19.958801,-21.728847,-0.032715,0.588388,1.056535
367,137.636378,-15.686275,-28.198672,-0.098146,0.484138,1.166278
368,167.055772,-8.422980,-32.837415,-0.170779,0.406134,1.168475
369,187.991150,-2.502480,-33.325704,-0.211429,0.348272,1.174212
370,203.738460,2.441444,-29.968719,-0.250858,0.249271,1.157244
371,222.293431,7.812619,-26.733806,-0.257206,0.147707,1.155657
372,237.003128,14.892805,-21.545739,-0.255497,0.112917,1.138567
373,247.623407,22.644388,-15.869383,-0.253544,0.068605,1.133440
374,257.450217,26.672770,-9.765774,-0.211551,0.026246,1.142107
375,266.666667,26.123445,-5.493248,-0.153323,0.008911,1.144427
376,270.634012,25.024796,-4.150454,-0.080690,-0.038087,1.135882
377,267.460136,32.959487,-7.080186,-0.020752,-0.173709,1.022843
378,255.191882,56.641489,-12.024109,0.013672,-0.321538,0.963272
379,234.866865,83.924620,-13.794156,0.010498,-0.328740,1.241230
380,221.316854,96.253910,-14.709697,0.028321,-0.310063,1.610010
381,227.298390,95.582513,-14.038300,-0.004028,-0.336797,1.793606
382,237.186236,86.305028,-10.131991,0.004150,-0.410895,1.786160
383,236.331731,75.379568,-5.981537,0.080812,-0.471199,1.755276
384,232.486458,68.665599,-6.897078,0.174197,-0.479988,1.817044
385,227.054246,65.796902,-12.329290,0.161501,-0.515633,1.999969
386,226.016632,66.773480,-16.479744,0.103883,-0.645274,1.999969
387,238.345922,73.121233,-21.301595,0.059205,-0.796033,1.999969
388,240.665293,78.736553,-22.095064,-0.050538,-0.840589,1.788602
389,227.542535,73.609522,-15.320058,-0.127077,-0.859144,1.918975
390,231.326772,62.561990,-7.995727,-0.059693,-0.855360,1.999969
391,245.731289,60.486763,-4.394598,0.129274,-0.837049,1.909697
392,243.900206,62.989242,-2.197299,0.210330,-0.848280,1.634058
393,239.261463,59.754330,-0.915541,0.268070,-0.890639,1.426169
394,226.993210,56.214237,1.770047,0.173465,-0.976822,1.288960
395,209.475853,50.293736,11.047532,-0.019409,-1.170550,1.178485
396,193.484398,41.687648,27.527276,-0.162234,-1.428244,0.968887
397,174.319066,29.907683,47.302968,-0.049439,-1.671168,0.817395
398,146.364538,22.949569,60.669871,0.327398,-1.890532,0.611826
399,113.649195,22.705425,56.214237,0.806531,-2.000031,0.306523
400,79.102770,34.302281,27.038987,1.001602,-2.000031,0.066896
401,41.992828,41.748684,7.934691,0.728161,-1.916533,-0.117556
402,-10.437171,14.465553,12.512398,0.356207,-1.701930,0.047120
403,-36.560616,-29.297322,27.161059,0.130983,-1.422751,0.650645
404,-42.908370,-65.796902,42.664225,0.083497,-0.862196,1.017227
405,-158.327611,-39.429313,0.549325,1.016129,-1.680812,-0.309209
406,-231.754025,-1.770047,25.024796,-0.286870,-1.273457,-0.503182
407,-119.691768,-29.114214,11.047532,-0.015869,0.252445,1.107927
408,-133.363851,-63.782712,-11.657893,-0.103395,1.091936,1.915435
409,-215.396353,-40.405890,8.300908,-0.599863,0.555795,0.758801
410,-287.663081,-66.102083,26.611734,-0.617563,-0.470954,0.726818
411,-260.379950,-56.641489,46.387427,0.113649,-0.442023,1.999969
412,-207.034409,-21.545739,43.579767,0.916762,-0.204593,1.999969
413,-127.443351,-8.728161,15.564202,1.031266,-0.038941,1.999969
414,-94.605936,20.996414,-6.897078,0.213016,0.066407,1.448020
415,-119.386587,31.250477,0.122072,-0.525154,-0.051759,1.463157
416,-114.137484,14.160372,23.132677,-0.930312,-0.086549,1.502953
417,-95.399405,-27.100023,37.720302,-0.518929,-0.192264,1.319112
418,-60.608835,-57.740139,35.950256,0.262699,0.203738,1.644434
419,-55.420768,-51.148241,19.836728,0.774182,0.079103,1.812161
420,-23.682002,-16.723888,4.333562,0.002930,0.028809,1.289570
421,-32.104982,-24.536507,9.521630,-0.267582,0.088258,1.061540
422,-31.494621,-37.476158,10.620279,0.133059,0.096681,1.179950
423,-23.376822,-24.963760,5.371176,0.189334,0.129885,1.200824
424,-28.076600,-15.869383,5.127031,-0.087282,0.030640,1.082902
425,-18.493935,-18.432898,2.502480,-0.050294,0.054932,1.108782
426,-14.892805,-18.616007,1.464866,0.046143,0.092531,1.017227
427,-16.235599,-14.404517,0.427253,0.002197,0.110353,0.976333
428,-23.437858,-11.413748,1.586938,0.020264,0.064820,0.972671
429,-23.010605,-6.652934,1.892119,0.079103,0.075074,1.069108
430,-22.949569,-1.220722,2.319371,0.020630,0.061158,1.034073
431,-21.545739,0.732433,2.441444,-0.011353,0.062257,1.014542
432,-20.996414,0.671397,2.258335,-0.003052,0.050660,1.014542
433,-20.386053,0.610361,1.892119,-0.020630,0.045167,1.018082
434,-18.127718,-0.549325,1.342794,-0.031373,0.044312,0.999893
435,-16.662852,-1.770047,0.671397,-0.033936,0.059815,0.986709
436,-18.921187,-2.319371,0.488289,-0.019409,0.046387,1.017716
437,-18.432898,-1.525902,0.427253,-0.033692,0.065675,1.113787
438,-13.427939,-1.403830,0.671397,-0.012329,0.005859,1.019181
439,-16.052491,-1.831083,1.220722,-0.028565,0.019532,0.993057
440,-14.221408,-1.831083,1.647974,-0.029541,0.016602,1.011734
441,-12.451362,-3.356985,2.014191,-0.032593,0.021118,1.004410
442,-10.986496,-4.333562,1.525902,-0.024537,0.013184,1.017594
443,-8.422980,-4.394598,0.976577,-0.051637,0.124025,1.186542
444,-5.127031,-4.333562,0.915541,-0.012573,0.011841,0.940200
445,-10.986496,-5.371176,0.488289,-0.035767,0.034913,0.920668
446,-12.878614,-6.286717,0.244144,-0.019654,0.045289,0.980362
447,-15.381094,-5.737392,0.305180,-0.010986,0.033570,0.976333
448,-17.761501,-4.577707,0.915541,0.001953,0.029541,0.979019
449,-20.813306,-3.295949,1.403830,-0.024048,0.019409,1.001480
450,-20.141909,-4.028382,2.685588,-0.003052,0.058717,0.998917
451,-20.080873,-2.746624,2.258335,-0.003540,-0.020264,1.003189
452,-17.944610,-2.258335,2.075227,-0.010986,-0.000855,1.034928
453,-16.784924,-2.075227,2.014191,-0.001099,-0.002564,1.024063
454,-15.320058,-0.976577,2.136263,-0.003296,-0.020264,1.000381
455,-13.122759,-0.610361,1.831083,-0.009766,0.011475,0.976089
456,-16.601816,-1.342794,1.831083,-0.022095,0.015015,0.981460
457,-18.432898,-2.563516,1.647974,-0.016114,-0.008423,0.992081
458,-17.090105,-2.258335,1.342794,-0.008301,-0.005493,0.998062
459,-19.226368,-1.464866,2.380407,0.005982,-0.039307,1.017105
460,-16.418708,0.000000,3.418021,-0.021851,-0.040284,1.003799
461,-15.442130,0.793469,3.906310,-0.024903,-0.022583,0.959243
462,-17.395285,-0.854505,4.272526,-0.009766,0.011719,0.984634
463,-20.874342,-1.831083,4.455634,-0.037842,0.027588,0.917372
464,-29.419394,-5.554284,4.089418,-0.051270,0.007080,0.961563
465,-33.142596,-9.521630,4.028382,-0.025513,-0.017090,0.962295
466,-32.288090,-9.826810,2.868696,-0.006836,-0.015747,0.954604
467,-38.208591,-11.352712,2.380407,-0.003784,-0.030030,1.024308
468,-37.232013,-8.850233,2.685588,0.044923,-0.042115,1.028336
469,-39.246204,-4.150454,4.943923,0.032593,-0.074586,1.049821
470,-39.795529,-1.281758,6.469825,-0.031983,-0.073732,1.003189
471,-33.386740,-1.037613,6.713970,0.008545,-0.036622,0.929580
472,-41.504540,-1.892119,7.263294,-0.032227,-0.054444,1.005509
473,-41.199359,-4.028382,4.943923,-0.033814,-0.051759,0.987320
474,-39.673457,-5.249104,0.976577,-0.033814,-0.028199,1.052628
475,-43.762875,-2.685588,-2.319371,-0.023072,-0.048096,0.922988
476,-44.861524,-1.892119,-3.967346,-0.055299,-0.005249,0.979751
477,-50.049592,-4.089418,-11.291676,-0.082155,-0.033326,1.090837
478,-55.420768,-4.089418,-25.207904,-0.094972,-0.029053,0.957778
479,-84.718090,-0.854505,-39.002060,-0.031128,-0.072511,0.992691
480,-94.300755,5.310140,-39.917601,0.120607,-0.316533,1.141131
481,-59.632258,-5.065995,-17.334249,0.036988,-0.359380,1.040543
482,-41.687648,-11.535821,-13.122759,-0.018067,-0.027344,1.046769
483,-60.547799,-5.065995,-20.813306,0.058106,0.060670,0.950454
484,-95.155261,-1.220722,-10.498207,0.114504,0.103273,0.904555
485,-120.607309,-4.821851,3.662165,-0.024903,0.222660,0.731823
486,-155.580987,-9.582666,9.704738,0.075563,0.217655,0.798474
487,-194.277867,-10.925460,0.000000,-0.012696,0.767956,1.561059
488,-417.853056,2.990768,-11.779965,0.241825,0.336309,1.151629
489,-620.981155,8.545052,43.945983,-0.025757,0.328130,1.507103
490,-700.083925,-22.095064,40.772107,-0.015869,0.140749,1.622950
491,-784.435798,-3.662165,36.865797,0.169192,0.089723,1.083024
492,-892.347601,-27.893492,69.581140,0.463508,-2.000031,1.999969
493,-827.832456,-2.258335,181.643397,-1.401389,-0.764538,1.999969
494,39.978637,-36.987869,-27.222095,-0.557382,-0.856947,1.999969
495,368.535897,-4.211490,-7.019150,-0.569955,0.661753,1.999969
496,173.464561,2.746624,-12.756542,-0.046387,0.999649,1.177386
497,19.165332,-32.288090,67.811093,-0.306279,0.684825,0.109743
498,-27.222095,-42.969406,58.594644,0.164797,0.194217,0.213748
499,81.971466,-4.333562,19.714656,0.149416,0.320928,0.204227
500,60.364691,8.484016,2.929732,0.189944,0.524056,0.194827
501,22.217136,10.864424,-3.173877,0.106935,0.381476,0.565072
502,68.970779,10.925460,-16.784924,0.061158,0.419318,0.646494
503,81.177996,-2.014191,-23.071641,0.018555,0.498665,0.655406
504,84.412909,-18.616007,-24.841688,-0.030884,0.408087,0.869032
505,115.724422,-27.100023,-28.809033,-0.076539,0.432746,1.156023
506,138.307774,-31.372549,-31.372549,-0.108766,0.430304,1.470115
507,167.177844,-28.992142,-33.752956,-0.168582,0.349248,1.677028
508,205.935760,-18.921187,-35.706111,-0.244266,0.244877,1.639307
509,235.416190,-7.751583,-34.241245,-0.301640,0.125612,1.465721
510,256.107424,1.586938,-29.114214,-0.313237,-0.000732,1.254536
511,272.281987,5.065995,-22.217136,-0.300053,-0.074586,1.122576
512,280.033570,2.807660,-15.686275,-0.223636,-0.108766,1.064225
513,284.855421,0.122072,-11.718929,-0.108522,-0.121950,1.065568
514,287.235828,0.854505,-13.366903,0.024048,-0.103151,1.110735
515,285.648890,7.263294,-20.141909,0.130495,-0.107912,1.189960
516,283.024338,20.569162,-31.494621,0.216068,-0.162478,1.224262
517,272.709239,40.650034,-44.007019,0.274907,-0.320806,1.067277
518,257.816434,58.411536,-54.261082,0.279179,-0.334112,1.114519
519,239.139391,58.106355,-61.951629,0.262333,-0.279545,1.464866
520,234.317540,50.049592,-69.642176,0.217533,-0.269902,1.834989
521,243.106737,50.904097,-74.830243,0.131350,-0.225834,1.999969
522,246.952010,62.073701,-77.149615,0.058106,-0.440070,1.999969
523,261.356527,75.196460,-75.928893,-0.020508,-0.575326,1.999969
524,266.666667,76.966506,-71.351186,-0.121950,-0.625132,1.999969
525,265.690089,65.064469,-60.425727,-0.176516,-0.715953,1.999969
526,285.099565,57.740139,-54.383154,0.029175,-0.844984,1.929595
527,283.085374,69.398032,-57.190814,0.152468,-0.800305,1.792386
528,253.849088,76.295109,-57.618067,0.204349,-0.838758,1.994659
529,261.295491,78.736553,-59.571221,0.189700,-0.919081,1.882719
530,261.295491,81.483177,-57.923247,0.157229,-0.982681,1.606592
531,235.660334,78.065156,-47.119860,-0.000977,-1.115007,1.521630
532,224.124514,68.787671,-31.555657,-0.139651,-1.291768,1.463035
533,213.992523,58.350500,-13.855192,-0.143313,-1.490135,1.229145
534,189.883268,54.566262,2.563516,0.000488,-1.775662,0.976699
535,158.083467,55.054551,10.742351,0.282109,-2.000031,0.766491
536,122.438392,62.012665,2.929732,0.567147,-2.000031,0.767224
537,92.530709,80.689708,-14.587625,0.568368,-2.000031,0.632822
538,78.431373,97.901884,-23.010605,0.324590,-2.000031,0.163821
539,41.321431,79.407950,-7.751583,0.051637,-2.000031,-0.149050
540,-10.986496,27.405203,21.179522,-0.121218,-1.827909,0.104372
541,-35.461967,-26.428626,49.988556,-0.130861,-1.488182,0.530526
542,-45.227741,-59.571221,66.285191,-0.068482,-1.531640,-1.892119
543,-177.737087,-138.368811,68.726635,0.549935,-0.712902,-0.829236
544,-164.553292,-133.302815,52.491035,0.239017,-0.309697,1.080583
545,-125.917449,-62.439918,47.302968,-0.257084,1.069841,1.696681
546,-181.521324,-87.098497,53.162432,-0.205570,0.647959,0.429938
547,-286.686503,-116.151675,79.774166,0.512215,-0.273564,0.151858
548,-308.842603,-87.586786,76.783398,0.795178,-0.312139,1.643091
549,-281.254292,-54.993515,62.012665,1.188006,-0.147463,1.999969
550,-198.794537,-28.564889,29.480430,1.366598,-0.133547,1.999969
551,-123.659113,6.958114,-10.742351,0.503914,-0.082765,1.721706
552,-140.810254,11.535821,-4.577707,-0.966201,-0.063600,1.944121
553,-151.247425,-30.457008,31.372549,-1.481468,-0.741833,1.539208
554,-67.811093,-90.638590,43.518730,-0.443122,-0.214847,0.976333
555,-86.610208,-113.771267,36.438544,1.337423,0.294560,1.999969
556,-73.060197,-48.096437,15.869383,0.944472,-0.029053,1.696803
557,-46.692607,-20.508125,6.469825,-0.737438,0.041138,1.050187
558,-62.073701,-60.669871,14.953841,-0.081056,0.123781,1.154314
559,-49.805447,-51.636530,3.906310,0.574960,0.103883,1.357198
560,-51.697566,-21.362631,0.244144,0.007813,-0.021851,1.300801
561,-30.334936,-25.146868,2.014191,-0.179690,-0.041138,1.168353
562,-8.239872,-28.992142,-2.624552,0.101930,0.067506,0.974502
563,-31.006332,-23.071641,0.366217,0.072389,0.064210,1.149798
564,-19.958801,-17.517357,0.000000,0.070924,-0.058839,1.103777
565,-9.033341,-9.460594,-0.244144,0.114626,0.006348,1.043839
566,-19.165332,-2.868696,2.990768,0.087648,0.069093,1.035904
567,-15.808347,1.159686,3.601129,0.045411,0.031006,1.013443
568,-16.845960,3.601129,3.784237,0.024292,-0.005371,1.033341
569,-20.874342,3.845274,4.760815,0.010620,-0.007691,1.018448
570,-17.639429,3.540093,3.418021,0.027344,-0.057252,0.971450
571,-15.503166,3.173877,3.051804,0.011719,-0.001343,1.021012
572,-13.672084,2.441444,2.502480,0.009277,-0.012329,1.014298
573,-12.634470,2.136263,2.441444,0.012085,-0.011353,1.010269
574,-9.216449,2.319371,2.319371,-0.004273,0.008789,0.992691
575,-11.108568,1.037613,2.563516,0.001709,-0.004517,0.995010
576,-9.582666,0.427253,1.770047,-0.002441,-0.032959,0.966201
577,-7.019150,-0.305180,1.892119,0.011719,0.006714,0.990005
578,-11.047532,-1.220722,2.014191,-0.000366,0.019898,1.008316
579,-8.239872,-1.342794,1.586938,0.004517,-0.002197,1.000381
580,-9.704738,-1.953155,1.525902,0.003418,0.005249,1.013687
581,-6.652934,-1.159686,1.037613,-0.001221,0.049195,1.021866
582,-7.202258,-2.136263,1.403830,-0.000366,0.005005,0.991226
583,-7.568475,-2.624552,0.488289,-0.016358,0.001709,0.944106
584,-10.803388,-4.272526,0.671397,-0.010986,0.004150,0.950332
585,-15.259022,-5.859464,1.525902,-0.003662,0.034913,0.971206
586,-18.616007,-7.568475,1.342794,0.001831,0.017456,1.016251
587,-17.151141,-7.690547,0.305180,0.004517,-0.015747,1.006973
588,-15.381094,-7.385367,0.122072,0.011719,-0.003418,1.043961
589,-14.404517,-6.347753,0.793469,0.029908,-0.028565,1.019059
590,-12.756542,-5.615320,0.122072,0.020264,-0.044556,0.992081
591,-12.939651,-5.310140,0.793469,0.030884,-0.013794,0.992203
592,-14.587625,-4.699779,1.525902,0.022583,-0.021485,0.993668
593,-16.052491,-3.662165,2.502480,0.049928,-0.046143,1.016373
594,-14.648661,-2.380407,2.746624,0.023682,-0.039673,0.991470
595,-16.296635,-2.136263,2.990768,0.032349,-0.037842,0.981827
596,-19.287404,-2.624552,2.685588,0.007813,-0.026246,0.955459
597,-21.179522,-5.004959,2.319371,0.011231,0.007935,0.942031
598,-29.419394,-8.117800,2.075227,-0.006958,-0.007202,0.951553
599,-29.907683,-10.315099,0.915541,-0.002686,-0.013550,0.936904
600,-33.386740,-12.512398,0.183108,0.006104,-0.028077,1.030900
601,-39.795529,-9.216449,-1.586938,0.049439,-0.087160,1.010147
602,-34.302281,-7.324331,-1.220722,0.044678,-0.098390,1.063127
603,-29.663539,-3.967346,1.586938,0.095827,-0.051026,0.964858
604,-44.922560,0.915541,7.263294,0.041627,-0.064210,1.066300
605,-44.312200,3.051804,9.277485,0.016236,-0.127199,1.013809
606,-36.255436,4.760815,8.606088,0.021607,-0.021973,0.999405
607,-48.218509,3.479057,7.263294,-0.029908,-0.030884,0.981704
608,-49.134051,-0.244144,0.854505,-0.046754,-0.025757,0.937636
609,-48.462654,-2.929732,-5.676356,-0.038331,-0.082521,0.991226
610,-52.796216,-7.141222,-18.249790,-0.097536,-0.093507,1.061906
611,-59.205005,-2.136263,-40.039673,0.005615,0.033448,0.888808
612,-71.168078,5.615320,-59.205005,0.146975,-0.242069,0.961685
613,-61.219196,-1.464866,-39.429313,0.235233,-0.408576,1.050675
614,-32.837415,-3.234913,-3.112840,0.165774,-0.119387,0.969497
615,-31.311513,5.004959,-0.854505,0.078370,0.188968,1.008194
616,-94.117647,19.958801,-18.066682,0.106081,0.315801,0.931655
617,-151.796750,33.142596,-5.371176,0.057130,0.213626,0.846082
618,-175.844968,3.662165,11.596857,-0.421637,0.316533,0.658457
619,-211.978332,-25.574121,20.508125,0.024903,1.192645,1.079484
620,-455.268177,-27.893492,-16.113527,0.199710,0.498665,1.528344
621,-641.428244,-70.923934,41.504540,-0.603037,0.243900,1.999969
622,-756.298161,-143.617914,64.576181,-0.245609,-0.255863,1.417136
623,-832.410163,-135.500114,93.995575,0.178836,-0.157473,1.130388
624,-991.348135,-138.857099,151.125353,0.888808,-2.000031,1.999969
625,-661.814298,-52.185855,168.520638,-1.108293,-0.719371,1.999969
626,137.758450,-11.108568,-53.345541,0.016480,0.309575,1.999969
627,284.367132,32.104982,-58.228428,-0.576913,1.035416,1.999969
628,71.168078,23.865110,-64.881361,-0.484749,0.863783,1.746365
629,-71.595331,-38.269627,29.602502,-0.476936,0.580453,0.776257
630,-48.218509,-36.438544,45.227741,-0.118166,0.275517,0.539071
631,87.830930,-3.601129,12.512398,-0.276616,0.297612,0.678599
632,89.845121,10.070954,11.047532,-0.078126,0.469856,0.413092
633,40.588998,10.193027,15.197986,-0.070069,0.350469,0.669566
634,77.332723,13.855192,8.484016,0.017823,0.335210,0.901259
635,114.747845,12.085145,-0.244144,0.039429,0.436286,0.927260
636,117.433433,-0.244144,-4.760815,0.062745,0.415167,1.085344
637,148.500801,-4.394598,-13.427939,0.079957,0.394049,1.293599
638,182.742046,-0.732433,-23.010605,0.080568,0.404669,1.362203
639,204.592966,3.540093,-30.334936,0.031250,0.327886,1.381491
640,231.204700,8.606088,-37.781338,-0.003906,0.201785,1.341451
641,258.243687,13.427939,-42.236973,-0.038331,0.101930,1.158831
642,270.878157,12.390326,-42.786297,-0.071046,0.010376,1.007950
643,279.606317,9.521630,-42.053864,-0.056886,-0.053468,0.982193
644,285.282673,8.728161,-42.175937,-0.016236,-0.034180,1.212299
645,288.761730,11.718929,-44.617380,0.041138,-0.054322,1.565576
646,305.973907,21.118486,-49.866484,0.115114,-0.111208,1.718288
647,327.031357,31.921874,-58.960861,0.112062,-0.240238,1.410056
648,327.336538,46.387427,-69.520104,0.108644,-0.510994,0.824964
649,304.631113,73.731594,-73.365377,0.163943,-0.605234,0.414923
650,259.708553,80.628672,-75.013352,0.211063,-0.452155,0.662119
651,219.974060,65.980011,-78.492409,0.274540,-0.368902,1.337789
652,220.157168,60.669871,-87.647822,0.271855,-0.335332,1.890898
653,225.955596,75.318532,-95.826658,0.156374,-0.391119,1.999969
654,227.176318,95.399405,-95.460441,-0.062379,-0.552010,1.999969
655,237.003128,105.165179,-86.121920,-0.243290,-0.722911,1.999969
656,248.172732,101.197833,-66.956588,-0.319707,-0.802502,1.999969
657,266.300450,86.243992,-46.875715,-0.291752,-0.923354,1.999969
658,305.851835,84.290837,-34.119173,-0.075807,-0.975845,1.999969
659,313.786526,98.573281,-30.395972,0.248539,-0.944594,1.975128
660,295.170520,112.306401,-32.104982,0.613169,-0.894057,1.729519
661,279.423209,117.067216,-42.908370,0.750378,-0.898695,1.686793
662,268.802930,113.405051,-52.796216,0.735363,-0.970840,1.696681
663,255.313954,109.071489,-55.054551,0.463386,-1.192523,1.593652
664,242.191196,99.061570,-47.119860,0.219730,-1.488060,1.345357
665,220.401312,86.549172,-33.997101,0.150515,-1.894438,1.087297
666,180.910964,81.544213,-21.850919,0.312749,-2.000031,0.897597
667,130.495155,98.939498,-24.658579,0.512215,-2.000031,0.587655
668,102.906844,136.110475,-41.382467,0.495979,-2.000031,-0.112428
669,87.464714,141.786831,-35.584039,0.241581,-2.000031,-1.058244
670,-4.150454,64.820325,0.732433,-0.040528,-2.000031,-1.107439
671,-112.916762,-64.576181,54.016938,-0.319463,-2.000031,-2.000031
672,-234.988937,-233.524071,108.339055,0.619883,-1.600732,0.346197
673,-202.578775,-218.387121,87.708858,0.975723,-0.501961,1.999969
674,-62.989242,-102.357519,49.011978,0.147585,0.771252,1.999969
675,-52.063783,-81.177996,48.462654,-0.129030,0.969131,0.632944
676,-149.050126,-107.606622,74.586099,0.556161,0.616342,-0.926406
677,-281.071183,-106.874189,71.290150,0.908705,0.057130,-0.092653
678,-326.054780,-64.820325,62.256809,1.070085,-0.211551,1.999969
679,-266.056306,-38.574807,40.650034,1.325582,-0.171267,1.999969
680,-164.248112,1.709010,1.709010,0.832288,-0.176516,1.999969
681,-108.705272,26.733806,-20.202945,-0.282719,-0.000488,1.416403
682,-145.815213,18.921187,6.958114,-1.509300,-0.148562,1.926909
683,-131.166552,-50.965133,43.091478,-1.253193,-0.684337,1.706691
684,-39.734493,-97.169451,39.246204,0.126467,-0.068238,1.162249
685,-56.275273,-102.906844,30.701152,1.394430,0.485359,1.999969
686,-44.434272,-47.913329,13.000687,0.552865,0.071412,1.518578
687,-35.400931,-32.654307,8.728161,-0.750256,0.194217,1.159808
688,-41.382467,-64.942397,14.648661,0.007691,0.147097,1.087541
689,-43.030442,-52.613108,3.601129,0.595590,0.176150,1.515160
690,-38.391699,-21.911955,2.197299,-0.048341,0.014282,1.047257
691,-33.081559,-28.747997,4.577707,-0.120119,0.082155,0.983658
692,-33.508812,-33.020523,2.685588,0.184695,0.161379,1.234272
693,-34.851606,-19.775692,1.831083,0.100343,-0.007324,1.082536
694,-23.559930,-14.831769,2.563516,-0.025025,0.043702,1.039322
695,-24.048219,-15.320058,4.394598,0.115846,0.063478,0.954971
696,-32.410163,-9.643702,4.394598,0.019654,-0.026734,0.986099
697,-28.015564,-9.216449,5.920500,0.031128,0.047242,1.100725
698,-26.794842,-7.629511,4.821851,0.055299,0.029786,0.984756
699,-29.358358,-5.188067,5.676356,0.050660,0.072511,1.060075
700,-27.038987,-4.577707,4.699779,-0.007813,0.029908,1.028336
701,-26.367590,-5.981537,4.150454,-0.005615,0.035889,0.991348
702,-28.442817,-6.713970,4.211490,-0.079347,0.131960,1.290669
703,-23.559930,-8.117800,4.699779,0.030518,-0.011963,1.004410
704,-21.911955,-7.629511,2.990768,0.013428,0.025757,0.982071
705,-24.963760,-8.300908,3.540093,0.029053,0.014160,1.043107
706,-18.982223,-7.507439,2.990768,0.032593,0.004395,1.026505
707,-18.921187,-6.897078,2.319371,0.025025,-0.013672,1.011978
708,-18.310826,-5.920500,2.380407,0.027466,0.038941,1.063127
709,-13.061723,-5.004959,2.014191,0.012940,0.063966,1.045426
710,-14.282444,-5.310140,1.342794,0.031006,-0.035523,0.969497
711,-13.672084,-5.798428,0.366217,0.023194,-0.039796,0.976089
712,-12.878614,-6.164645,0.183108,0.011231,0.002197,0.997208
713,-14.770733,-6.530861,0.793469,0.027466,0.008545,1.013077
714,-13.427939,-6.164645,0.854505,0.015015,-0.007935,1.015640
715,-12.329290,-6.286717,0.671397,0.021851,-0.006226,0.983902
716,-12.085145,-6.164645,0.244144,0.039185,-0.037964,0.939834
717,-14.404517,-6.591897,0.549325,0.018311,0.000122,0.985977
718,-15.442130,-6.836042,0.915541,0.037110,-0.028809,0.999039
719,-14.587625,-5.859464,0.976577,0.048219,-0.030030,0.972061
720,-16.296635,-5.310140,1.464866,0.043458,-0.035523,0.999405
721,-14.770733,-4.394598,2.197299,0.062379,-0.038209,1.037858
722,-13.488975,-2.136263,2.990768,0.046998,-0.038697,0.996597
723,-14.038300,-1.342794,3.723201,0.054078,-0.043336,0.990738
724,-14.160372,-0.610361,4.333562,0.048829,-0.041016,0.972183
725,-12.512398,-0.976577,3.906310,0.023682,-0.016480,0.989273
726,-17.517357,-2.502480,2.807660,-0.004150,0.009155,0.936294
727,-25.329976,-4.577707,2.258335,0.062135,-0.008423,1.056413
728,-28.259709,-1.892119,1.098650,0.028931,-0.062867,0.987442
729,-25.818265,-1.159686,1.342794,0.052979,-0.028077,1.003677
730,-31.067369,-0.183108,1.770047,0.033326,-0.038331,1.018692
731,-31.799802,0.915541,3.112840,0.049439,-0.064576,0.990127
732,-29.785611,3.845274,5.920500,0.109499,-0.007202,1.016007
733,-47.913329,6.775006,9.948882,0.032837,-0.068360,1.023819
734,-43.091478,8.545052,11.047532,0.027222,-0.085206,1.028824
735,-38.941024,9.094377,8.850233,0.010376,-0.030030,0.988174
736,-46.875715,7.507439,6.286717,-0.006592,-0.040772,0.999283
737,-46.875715,5.981537,0.183108,-0.038087,-0.021241,0.950088
738,-43.213550,1.709010,-8.178836,-0.087892,-0.008545,0.996597
739,-50.843061,-1.403830,-22.095064,-0.034668,-0.047974,1.021378
740,-66.163119,4.699779,-41.382467,-0.019409,-0.067872,0.999527
741,-73.548486,6.530861,-49.561303,0.119997,-0.237675,1.012711
742,-53.894865,-1.953155,-28.015564,0.139651,-0.310674,1.126482
743,-34.790570,-1.586938,-3.723201,0.111086,-0.087892,1.062272
744,-51.331350,7.446403,-10.009918,0.048829,0.181033,1.049454
745,-100.038148,19.287404,-22.644388,0.131594,0.225834,0.933608
746,-140.566110,29.724575,-14.587625,-0.002319,0.224369,0.813245
747,-164.431220,-1.037613,1.403830,-0.418585,0.253788,0.952285
748,-208.377203,-32.654307,13.183795,-0.226444,0.972915,1.378439
749,-446.051728,-28.381781,-32.593271,0.302495,0.489876,1.326192
750,-620.126650,-96.498054,31.128405,-0.881361,0.006470,1.985992
751,-716.075380,-185.610742,62.317845,-0.267338,-0.293095,1.130510
752,-802.990768,-195.193408,88.685435,0.083619,-0.254520,1.049454
753,-877.882048,-190.005341,104.798962,1.005631,-2.000031,1.991974
754,-898.756390,-103.456168,214.602884,0.035401,-0.704845,1.999969
755,-165.224689,-62.867170,-41.504540,0.146731,-1.227924,1.999969
756,199.588006,-7.263294,-67.444877,-0.075196,0.820447,1.999969
757,92.896925,25.574121,-75.623713,-0.048951,1.250996,1.999969
758,5.859464,-11.596857,-15.442130,-0.557870,0.806165,1.999969
759,48.462654,-22.644388,-7.385367,-0.312016,0.322148,1.548241
760,175.783932,-1.220722,-16.601816,-0.348028,0.319463,0.897841
761,173.281453,-2.380407,-10.254063,-0.256107,0.337285,0.473396
762,131.349660,-7.019150,-2.624552,-0.245243,0.180911,0.542733
763,153.017472,-0.427253,-2.014191,-0.214359,0.111574,0.547005
764,169.863432,1.037613,-2.258335,-0.165408,0.224491,0.544564
765,159.914549,-3.967346,-1.525902,-0.111208,0.232914,0.683360
766,173.647669,-1.586938,-6.103609,-0.043824,0.245243,0.889784
767,191.653315,8.056764,-14.160372,-0.008301,0.274296,0.989883
768,202.029450,19.226368,-20.874342,-0.014649,0.247196,1.131365
769,218.936446,30.212863,-26.428626,-0.042481,0.172000,1.235981
770,239.749752,37.354086,-28.870069,-0.070802,0.104982,1.232807
771,256.656748,39.795529,-28.198672,-0.064088,0.034913,1.206195
772,269.657435,39.856565,-26.184482,-0.046387,-0.019409,1.245502
773,281.498436,40.344854,-25.024796,0.027100,-0.048951,1.291524
774,292.301823,42.725261,-26.550698,0.104738,-0.074952,1.308858
775,299.015793,47.119860,-30.518044,0.138674,-0.127199,1.360739
776,300.358587,55.848020,-36.499580,0.152468,-0.290166,1.184833
777,292.607004,72.571908,-43.335622,0.192264,-0.535653,0.761608
778,271.488518,94.483864,-44.739452,0.222538,-0.508064,0.715831
779,232.120241,93.568322,-41.748684,0.162966,-0.419318,1.035050
780,220.218204,79.285878,-43.640803,0.246586,-0.340581,1.439719
781,219.851987,78.858625,-47.730220,0.266361,-0.178958,1.999969
782,210.574502,88.563363,-50.415808,0.271977,-0.303716,1.999969
783,235.965515,100.831617,-51.758602,0.211795,-0.463386,1.999969
784,272.404059,100.282292,-53.162432,0.191653,-0.555306,1.999969
785,285.160601,90.333410,-49.561303,0.187625,-0.620737,1.999969
786,294.071870,78.370336,-47.180896,0.267094,-0.807385,1.999969
787,303.105211,87.403677,-50.171664,0.409796,-0.816175,1.707668
788,274.601358,94.972152,-50.232700,0.384894,-0.797253,1.816800
789,264.713512,86.793317,-47.119860,0.281376,-0.850965,1.999969
790,279.179065,71.107042,-43.152514,0.193973,-0.894057,1.980255
791,276.005188,62.195773,-37.232013,0.134768,-1.005753,1.730495
792,262.699321,61.707485,-31.677729,0.013184,-1.219379,1.379049
793,239.261463,63.904784,-25.085832,-0.084474,-1.480491,1.079484
794,200.808728,69.336996,-15.259022,0.011719,-1.878447,0.926284
795,158.022431,84.779126,-7.507439,0.387335,-2.000031,0.771862
796,107.240406,106.446937,-12.939651,0.765393,-2.000031,0.554940
797,75.867857,129.823758,-23.559930,0.739513,-2.000031,0.195438
798,67.750057,123.903258,-16.540780,0.398322,-2.000031,-0.297978
799,11.291676,59.632258,14.099336,0.075074,-2.000031,-0.425666
800,-47.180896,-27.954528,51.941711,0.003296,-1.698390,0.220340
801,-104.066529,-113.160906,60.425727,0.218631,-1.940093,-1.234272
802,-232.913710,-193.545434,80.079347,0.787243,-1.055436,0.309575
803,-185.671778,-126.466773,57.740139,0.331060,-0.401984,1.676661
804,-104.737926,-66.468299,37.903410,-0.212894,0.903822,1.999969
805,-149.904631,-77.210651,56.153201,-0.131350,0.948501,0.847303
806,-241.763943,-90.882734,59.815366,0.306279,-0.002686,-0.198856
807,-285.465782,-67.689021,65.857939,0.447028,-0.233158,1.000137
808,-309.147784,-56.458381,70.069429,1.063859,-0.190921,1.999969
809,-211.978332,-16.723888,39.917601,1.388937,-0.191653,1.999969
810,-112.916762,2.136263,-5.920500,0.739269,-0.019654,1.790311
811,-131.044480,5.432212,-14.404517,-0.381842,-0.029053,1.633326
812,-131.593805,-12.268254,12.207218,-1.423117,-0.274784,1.862089
813,-94.972152,-64.026856,40.344854,-0.988907,-0.331060,1.008438
814,-79.285878,-108.522164,43.518730,0.569467,0.235966,1.967315
815,-76.234073,-88.868544,23.376822,1.372580,0.075441,1.999969
816,-48.279545,-26.489662,2.014191,-0.021973,0.019165,1.240497
817,-53.467613,-41.809720,8.484016,-0.574594,0.005737,1.200092
818,-51.941711,-62.256809,9.399557,0.448615,0.016358,1.387228
819,-28.564889,-32.349126,0.793469,0.280156,0.084474,1.177264
820,-41.748684,-22.522316,1.098650,-0.120851,0.017578,1.110857
821,-32.410163,-26.062409,1.464866,0.080812,-0.044068,1.159808
822,-16.418708,-18.738079,-3.845274,0.097658,0.073610,1.050431
823,-25.391012,-12.512398,0.488289,0.088624,0.143923,1.092058
824,-26.794842,-6.042573,2.929732,0.085206,-0.001221,1.142962
825,-13.855192,2.380407,1.586938,0.104250,-0.016358,1.028580
826,-21.118486,8.667124,3.906310,0.077516,0.028443,1.047990
827,-18.005646,12.695506,3.418021,0.028077,0.009400,1.060197
828,-14.770733,14.221408,2.807660,0.049928,0.008911,1.032486
829,-13.550011,15.625238,2.380407,0.021485,-0.000732,1.027726
830,-9.887846,14.465553,1.770047,-0.022095,0.031250,0.974746
831,-11.779965,10.559243,0.915541,-0.032593,0.028565,0.976455
832,-14.282444,6.775006,0.976577,-0.016968,0.001099,0.999039
833,-10.742351,5.493248,0.732433,0.003052,0.005127,1.002945
834,-10.681315,4.394598,1.342794,0.004028,-0.006836,1.005142
835,-9.521630,3.967346,1.770047,0.003784,-0.009888,1.006119
836,-7.202258,3.356985,1.709010,-0.009277,0.010132,0.990005
837,-10.437171,1.770047,2.075227,-0.001221,-0.007202,0.990982
838,-6.836042,1.342794,2.075227,0.002686,-0.019165,1.015640
839,-5.798428,0.793469,2.319371,0.001343,0.001221,0.992691
840,-6.591897,0.183108,2.502480,-0.014771,0.027588,0.996963
841,-6.347753,-1.525902,2.502480,-0.018189,0.041260,0.963027
842,-7.568475,-3.662165,2.319371,-0.035279,0.086549,0.983536
843,-10.437171,-6.408789,1.831083,-0.033570,0.049439,1.000504
844,-11.902037,-8.361944,1.037613,0.002075,0.023194,0.994888
845,-11.902037,-8.422980,1.220722,0.005249,0.040650,1.037247
846,-10.925460,-8.056764,1.159686,0.011231,-0.035523,0.930556
847,-12.451362,-9.948882,1.159686,-0.010986,0.002930,0.969009
848,-15.869383,-12.268254,0.488289,-0.004761,0.021607,1.019059
849,-16.174563,-12.207218,0.122072,0.015381,-0.030274,0.976944
850,-15.136950,-11.230640,-0.183108,0.020508,-0.026612,0.971328
851,-18.799115,-11.047532,0.000000,0.011231,0.000488,0.961563
852,-24.292363,-11.291676,-0.122072,0.016602,0.003906,0.963027
853,-30.334936,-11.718929,0.671397,0.020996,0.004150,0.981827
854,-32.837415,-11.230640,0.854505,0.013550,0.002808,0.954238
855,-36.011292,-11.169604,0.427253,0.029297,-0.021241,0.999771
856,-35.400931,-8.972305,-0.122072,0.053834,-0.050050,1.014542
857,-34.851606,-6.775006,0.488289,0.050538,-0.061524,1.035782
858,-31.616693,-5.554284,1.709010,0.034424,-0.075074,0.938613
859,-29.541466,-3.723201,2.319371,0.046265,-0.009888,0.943984
860,-42.053864,-3.234913,2.441444,0.041260,-0.043824,1.094865
861,-40.833143,-1.403830,2.258335,0.011353,-0.065553,1.011978
862,-39.612421,-0.488289,2.380407,0.051759,-0.078004,1.006729
863,-41.931792,2.380407,5.249104,0.057740,-0.075929,0.960952
864,-46.204318,5.554284,8.606088,0.039918,-0.086305,1.044083
865,-47.608148,5.004959,9.155413,-0.011841,-0.094362,1.023697
866,-42.420081,4.272526,6.042573,0.003906,-0.069581,0.960952
867,-48.889906,1.647974,2.746624,-0.061524,-0.051759,1.003677
868,-46.204318,-1.159686,-2.990768,-0.030396,-0.117067,0.990616
869,-41.565576,-4.028382,-13.061723,-0.052857,-0.117800,1.016861
870,-35.767147,-1.586938,-23.010605,0.013062,-0.111330,0.999039
871,-57.251850,5.981537,-46.509499,-0.028565,-0.100099,0.975235
872,-65.613794,5.004959,-50.049592,0.111330,-0.273564,0.959976
873,-38.391699,-3.601129,-24.963760,0.203006,-0.366339,1.122454
874,-14.648661,-1.159686,-3.967346,0.140505,-0.186526,1.077409
875,-26.184482,11.108568,-8.911269,0.047974,0.132204,1.008560
876,-71.290150,20.630198,-22.705425,0.060670,0.236698,0.936538
877,-124.879835,30.273899,-18.310826,0.016236,0.399176,0.767834
878,-185.000381,16.906996,-17.090105,-0.314946,0.441291,0.479133
879,-197.268635,-22.705425,3.356985,-0.087526,0.967788,0.991714
880,-391.668574,-31.250477,-38.391699,0.044556,1.042130,1.999969
881,-604.257267,-109.193561,9.155413,-1.096696,-0.450446,1.696803
882,-730.663005,-229.983978,95.094224,-0.458259,-0.075685,1.275166
883,-826.672770,-258.854047,135.194934,0.219364,-0.052247,0.934707
884,-952.895399,-260.746166,157.228962,1.365621,-2.000031,1.999969
885,-869.642176,-175.478752,260.990311,0.081666,-0.839368,1.999969
886,-6.591897,-43.579767,-29.541466,0.255131,-0.699474,1.999969
887,354.497597,53.589685,-52.429999,-0.212284,0.806653,1.999969
888,173.342489,98.756390,-72.632944,-0.346807,1.028824,1.858549
889,18.982223,36.926833,17.883574,-0.788830,0.719615,0.750134
890,-46.692607,-21.972992,57.007706,-0.442390,0.282841,0.659190
891,49.378195,-19.775692,44.861524,-0.315923,0.061769,0.607797
892,141.542687,-15.991455,37.903410,-0.176883,0.359869,0.348516
893,102.723735,-21.667811,40.039673,0.008057,0.460212,0.441779
894,85.023270,-17.456321,34.058137,0.047364,0.338506,0.737926
895,129.274434,-4.760815,17.883574,0.032227,0.348028,0.873304
896,149.843595,-2.990768,6.042573,0.069337,0.425910,0.856336
897,156.862745,-6.042573,-4.150454,0.060670,0.376593,0.993668
898,179.873350,-2.746624,-15.686275,0.023804,0.304570,1.128313
899,201.358053,3.784237,-24.475471,-0.045533,0.221317,1.192889
900,218.692302,11.169604,-29.297322,-0.111330,0.108888,1.224140
901,236.758984,19.775692,-30.273899,-0.186770,-0.013550,1.226337
902,252.872511,25.635157,-26.733806,-0.231083,-0.099855,1.219257
903,265.140764,27.954528,-20.630198,-0.225589,-0.166384,1.298482
904,276.859693,29.419394,-13.122759,-0.165774,-0.207034,1.365743
905,288.639658,30.090791,-7.629511,-0.031617,-0.239872,1.390890
906,293.766690,31.311513,-8.056764,0.229007,-0.286748,1.438621
907,293.217365,35.095750,-18.432898,0.341314,-0.370001,1.534691
908,307.866026,47.852293,-34.729534,0.409674,-0.401862,1.459129
909,306.523232,53.711757,-49.073014,0.453864,-0.433112,1.360861
910,292.790112,57.434958,-61.158160,0.411139,-0.561044,1.293477
911,281.681544,59.021897,-68.970779,0.277958,-0.662608,1.214008
912,267.338064,48.767834,-70.679789,0.185306,-0.676768,1.201312
913,248.294804,35.278859,-69.459068,0.134401,-0.627451,1.337789
914,233.340963,29.846647,-68.970779,0.132326,-0.535042,1.625025
915,220.340276,35.034714,-69.520104,0.121340,-0.447639,1.999969
916,218.936446,44.861524,-70.252537,0.095460,-0.461799,1.999969
917,243.961242,56.031128,-72.938125,0.083986,-0.537606,1.999969
918,272.526131,69.092851,-75.013352,0.062745,-0.618784,1.999969
919,277.592126,79.346914,-73.426413,0.046754,-0.715343,1.922148
920,269.413291,89.173724,-68.726635,0.010254,-0.791028,1.669947
921,254.886702,93.995575,-60.425727,-0.034913,-0.826307,1.571923
922,238.406958,94.666972,-49.927520,-0.018799,-0.868421,1.610620
923,225.101091,98.268101,-40.344854,0.031495,-0.968643,1.620996
924,211.856260,102.845808,-30.334936,0.026612,-1.164446,1.536889
925,196.353094,105.836576,-18.738079,0.088869,-1.457176,1.396994
926,172.915236,108.644236,-8.178836,0.299199,-1.895659,1.344259
927,137.087053,118.654154,2.136263,0.531991,-2.000031,1.271748
928,113.160906,141.420615,-1.281758,0.611826,-2.000031,0.883558
929,125.307088,163.637751,-7.385367,0.528206,-2.000031,-0.081666
930,99.122606,138.307774,9.399557,0.365850,-2.000031,-1.170794
931,-2.075227,43.762875,45.532921,0.262943,-2.000031,-1.206561
932,-79.713130,-58.899825,79.102770,0.214115,-1.491844,-0.274052
933,-169.436179,-154.543374,62.623026,0.851453,-1.582910,-0.557992
934,-264.713512,-175.661860,57.373922,0.894057,-0.695933,0.952285
935,-170.901045,-112.855726,26.916915,-0.006226,-0.067262,1.777249
936,-121.889067,-107.362478,19.226368,-0.442390,0.946548,1.999969
937,-176.394293,-94.239719,39.673457,-0.418463,0.515145,0.804578
938,-262.943465,-95.277333,57.679103,-0.029053,-0.158206,0.221317
939,-267.826352,-88.502327,60.608835,0.650034,-0.283207,1.551537
940,-231.937133,-47.486076,50.232700,1.503929,-0.068116,1.999969
941,-150.026703,-17.456321,6.469825,1.659327,0.051148,1.999969
942,-119.020371,18.860151,-30.151827,0.396002,-0.121950,1.636133
943,-124.879835,38.086519,-15.259022,-1.422873,-0.187503,1.830594
944,-141.542687,-19.226368,31.738766,-1.930327,-0.689342,1.538842
945,-72.693980,-91.737240,52.124819,-0.129152,-0.196414,1.023453
946,-70.191501,-101.014725,36.133364,1.645045,0.390997,1.999969
947,-50.904097,-26.733806,6.591897,0.767102,0.063600,1.577661
948,-47.425040,-4.394598,11.963073,-0.835584,0.023194,1.134539
949,-43.884947,-49.256123,13.672084,-0.094240,0.120485,1.014664
950,-38.086519,-43.457694,1.159686,0.629160,0.290898,1.420798
951,-53.223468,-10.681315,3.356985,-0.003052,-0.012329,1.125872
952,-37.781338,-14.953841,2.441444,-0.296147,-0.004150,1.169085
953,-20.447089,-24.475471,-2.563516,0.172000,0.141604,1.066300
954,-32.715343,-11.230640,-1.586938,0.000610,0.044434,1.120623
955,-24.658579,-8.728161,0.183108,-0.005859,0.032105,1.097795
956,-20.202945,-4.028382,-0.610361,0.093263,0.056153,0.993057
957,-24.414435,1.770047,2.380407,-0.007935,0.048096,1.036515
958,-24.414435,2.502480,4.089418,-0.037964,0.137087,1.214130
959,-22.278172,2.136263,6.286717,0.023926,0.069337,1.007584
960,-23.682002,2.319371,5.127031,-0.030030,0.016358,0.964248
961,-22.278172,0.610361,4.028382,-0.001343,0.027588,1.004288
962,-23.743038,0.854505,3.418021,-0.011597,0.031495,1.009171
963,-23.315785,1.953155,-0.122072,-0.017823,-0.218753,0.800671
964,-21.484703,-1.037613,1.220722,-0.036133,0.025269,1.075090
965,-21.301595,-2.075227,2.502480,-0.019409,0.003052,1.036759
966,-17.334249,-2.014191,2.014191,-0.011719,-0.007324,0.996841
967,-15.197986,-2.258335,1.831083,-0.015625,-0.001709,1.011978
968,-15.014878,-2.441444,1.647974,-0.024292,0.004517,0.996719
969,-15.503166,-3.295949,1.647974,-0.024659,-0.005859,1.003555
970,-12.512398,-1.709010,-1.220722,0.065064,-0.228275,0.711437
971,-12.024109,-3.723201,0.000000,-0.024781,0.011353,1.042008
972,-16.357671,-5.004959,1.525902,-0.023926,0.003296,0.997574
973,-14.526589,-5.188067,1.403830,-0.012207,-0.001953,0.981827
974,-15.442130,-5.004959,1.403830,-0.016114,0.012207,1.015518
975,-15.991455,-5.127031,1.403830,-0.012818,-0.007568,0.989029
976,-15.930419,-5.188067,1.342794,-0.009522,-0.012207,1.031388
977,-16.174563,-4.882887,1.892119,0.005615,-0.028443,1.018936
978,-15.075914,-4.699779,2.014191,0.000610,-0.029053,1.005509
979,-12.878614,-4.333562,1.586938,-0.014649,-0.032593,0.999283
980,-10.742351,-5.493248,1.098650,-0.014893,-0.025025,0.952773
981,-12.207218,-7.141222,0.305180,-0.022583,-0.013794,0.973404
982,-14.038300,-8.545052,-0.183108,-0.002686,-0.063844,0.963027
983,-13.122759,-7.934691,0.000000,0.028321,-0.055421,0.972427
984,-13.550011,-8.117800,-0.122072,0.000610,-0.043214,0.984390
985,-15.442130,-8.422980,0.000000,0.006592,-0.029053,0.995499
986,-17.273213,-8.239872,0.488289,0.013672,-0.023682,1.006973
987,-19.348440,-7.812619,0.671397,0.009522,-0.033570,1.003799
988,-20.874342,-7.080186,0.244144,0.012207,-0.045289,1.005631
989,-21.484703,-6.591897,0.183108,0.011963,-0.046509,1.001602
990,-21.118486,-5.920500,0.061036,0.003174,-0.036011,0.997452
991,-22.461280,-6.225681,-0.305180,0.002197,-0.023926,0.969375
992,-26.184482,-7.080186,-0.244144,0.002319,-0.028199,0.958877
993,-28.747997,-8.239872,-0.915541,-0.003052,-0.020874,0.955947
994,-31.128405,-9.399557,-0.854505,-0.026001,-0.026490,0.954726
995,-32.104982,-10.070954,2.807660,0.070069,-0.024659,1.028702
996,-44.617380,-4.577707,6.042573,0.076539,-0.119875,1.081071
997,-33.813993,-0.061036,7.263294,0.021485,-0.090944,1.017227
998,-33.569848,2.929732,7.263294,0.026734,-0.041505,0.999893
999,-47.425040,2.685588,9.399557,-0.017212,-0.054200,0.927871
1000,-49.317159,1.037613,7.812619,-0.010376,-0.037964,1.009903
1001,-47.791257,1.037613,0.183108,-0.042359,-0.016724,0.936049
1002,-54.383154,-3.601129,-5.920500,-0.070192,-0.046754,0.953384
1003,-59.571221,-6.103609,-11.474784,-0.025025,-0.163333,1.121721
1004,-59.449149,-5.676356,-20.019837,-0.083864,-0.224491,1.081315
1005,-63.233387,1.281758,-41.565576,0.005371,-0.281376,1.115740
1006,-44.983597,2.868696,-34.485389,0.154299,-0.417121,1.000015
1007,-18.738079,-4.516670,-8.117800,0.101564,-0.202152,1.079484
1008,-16.296635,-8.789197,-2.868696,-0.068116,0.045289,1.079973
1009,-58.045319,0.183108,-19.531548,0.080079,0.217288,0.987076
1010,-120.790417,12.146181,-26.733806,0.099489,0.145876,0.962783
1011,-148.195621,17.029068,-14.099336,-0.032837,0.523079,0.512825
1012,-154.177157,-17.151141,-13.427939,-0.289799,0.323980,0.862806
1013,-277.042802,-35.461967,-27.588312,-0.024414,1.066056,1.251972
1014,-528.267338,-27.038987,-37.354086,-0.166018,0.419684,1.686915
1015,-676.523995,-85.145342,29.663539,-0.370245,0.048585,1.136858
1016,-789.745937,-156.557565,65.918975,-0.034302,-0.190433,1.064836
1017,-859.754330,-164.919509,81.544213,0.104494,-0.065431,0.771008
1018,-1025.406272,-175.844968,116.517891,1.127703,-2.000031,1.999969
1019,-762.706951,-100.526436,209.903105,-1.253193,-1.078874,1.999969
1020,91.248951,-88.197147,-37.170977,-0.078370,0.022950,1.999969
1021,323.613336,-21.789883,-21.179522,-0.317021,1.167864,1.999969
1022,128.114748,5.676356,-47.425040,-0.112184,0.849989,1.999969
1023,21.423667,-12.634470,41.382467,-0.543099,0.732067,1.469749
1024,52.307927,-13.611048,44.800488,-0.194705,0.406134,1.006119
1025,168.032349,13.305867,18.432898,-0.182864,0.251102,0.614389
1026,172.426947,12.512398,16.845960,-0.082521,0.340459,0.190066
1027,128.236820,4.028382,18.860151,-0.036500,0.234379,0.278691
1028,139.101244,8.056764,13.183795,0.025269,0.183230,0.355962
1029,159.548333,9.948882,2.685588,0.090089,0.292485,0.395026
1030,150.392920,2.563516,-4.943923,0.124025,0.337041,0.636973
1031,160.585946,-2.380407,-14.892805,0.136355,0.333989,1.037369
1032,187.869078,-1.831083,-27.100023,0.113893,0.350835,1.357198
1033,212.710765,1.098650,-36.621653,0.064942,0.267338,1.513573
1034,240.970474,9.704738,-44.861524,-0.010376,0.110353,1.543603
1035,270.267796,17.212177,-48.157473,-0.081056,0.000366,1.340597
1036,290.592813,24.658579,-48.218509,-0.135012,-0.074342,1.220356
1037,298.405432,28.747997,-44.800488,-0.140871,-0.158694,1.158343
1038,305.363546,31.311513,-40.283818,-0.133913,-0.211551,1.244892
1039,309.452964,31.433585,-35.767147,-0.086061,-0.259892,1.351583
1040,316.227970,32.715343,-33.142596,0.007202,-0.300786,1.402243
1041,321.049821,35.339895,-35.584039,0.123293,-0.413703,1.185443
1042,311.284047,42.053864,-43.396658,0.324224,-0.574350,0.810559
1043,287.296864,61.463340,-54.627298,0.439460,-0.564706,0.815930
1044,250.675212,67.322805,-64.515145,0.434699,-0.497322,1.114397
1045,232.608530,62.500954,-77.149615,0.446906,-0.477180,1.371359
1046,230.838483,65.552758,-89.173724,0.344244,-0.398688,1.782498
1047,212.527657,74.647135,-92.347601,0.213870,-0.450324,1.999969
1048,217.776761,82.459754,-90.089265,0.064210,-0.628061,1.999969
1049,252.262150,85.084306,-82.215610,-0.025269,-0.716320,1.999969
1050,273.563745,77.515831,-70.191501,-0.025757,-0.746960,1.999969
1051,290.104524,67.994202,-59.815366,0.108522,-0.824109,1.999969
1052,304.020752,72.755016,-57.129778,0.236088,-0.863050,1.999969
1053,296.513314,82.032502,-55.970092,0.239872,-0.887709,1.757229
1054,281.193256,81.910430,-53.772793,0.186526,-0.921157,1.634913
1055,267.765316,74.647135,-50.904097,0.177981,-0.950210,1.657008
1056,254.825666,72.755016,-48.828870,0.135256,-1.044694,1.659571
1057,242.130159,81.727321,-46.143282,0.085817,-1.234516,1.487083
1058,222.232395,95.765621,-41.260395,0.105715,-1.507469,1.210590
1059,186.221103,113.038834,-34.119173,0.279667,-1.913603,1.017350
1060,139.589532,137.026017,-32.349126,0.476448,-2.000031,0.943740
1061,99.549859,170.595865,-35.706111,0.463142,-2.000031,0.584115
1062,89.295796,179.262989,-29.846647,0.353155,-2.000031,-0.196170
1063,67.017624,122.072175,-2.075227,0.303349,-2.000031,-1.224628
1064,-17.151141,-0.488289,37.476158,0.283696,-2.000031,-0.975967
1065,-95.216297,-102.357519,74.219883,0.307500,-1.602686,0.453986
1066,-97.352560,-130.251011,87.586786,0.203372,-1.085466,1.626001
1067,-80.384527,-123.903258,72.571908,0.804944,-0.941421,-1.559960
1068,-120.241093,-75.013352,56.641489,-0.119387,0.776989,1.464866
1069,-146.730755,-80.994888,54.139010,-0.484138,0.343633,0.992081
1070,-101.258869,-67.566949,56.336309,-0.487678,1.251484,0.436042
1071,-245.853361,-98.512245,75.318532,0.063478,0.364752,-0.344366
1072,-341.924163,-78.736553,96.803235,0.739879,-0.059327,0.867567
1073,-316.044862,-53.711757,81.727321,1.689357,-0.281132,1.999969
1074,-235.233082,-29.175250,28.809033,1.999969,0.001831,1.999969
1075,-179.629206,12.573434,-16.235599,0.824842,-0.205203,1.999969
1076,-123.720150,21.484703,-32.227054,-1.092302,-0.326543,1.999969
1077,-136.110475,-14.709697,13.427939,-2.000031,-0.758556,1.899565
1078,-66.224155,-84.473945,54.016938,-0.700084,-0.256352,0.906508
1079,-67.261769,-107.728695,54.139010,1.221088,0.505623,1.381003
1080,-81.544213,-72.999161,27.100023,1.332418,0.134890,1.949126
1081,-56.763561,-28.503853,15.442130,-0.523568,-0.225956,1.550805
1082,-37.415122,-60.914015,13.305867,-0.549691,-0.055299,1.168475
1083,-32.715343,-77.027543,11.047532,0.609995,0.180911,1.384298
1084,-36.316472,-41.931792,5.432212,0.398322,0.061646,1.423484
1085,-29.846647,-26.245518,5.065995,-0.210697,-0.043824,1.042618
1086,-14.343481,-35.889220,4.028382,-0.006348,0.112306,1.077531
1087,-21.240558,-32.776379,4.455634,0.175540,0.073487,1.031998
1088,-21.728847,-22.400244,4.699779,0.050172,0.055421,1.046525
1089,-20.874342,-17.578393,5.798428,0.058717,0.049683,1.066667
1090,-20.874342,-10.986496,7.385367,0.125246,0.055421,1.048356
1091,-20.569162,-3.356985,7.568475,0.075441,0.046143,1.022965
1092,-22.949569,0.122072,9.155413,-0.003052,0.042237,1.017350
1093,-17.029068,0.488289,7.629511,-0.006592,0.054932,0.975113
1094,-18.127718,-0.793469,6.286717,-0.012207,0.053590,0.931777
1095,-21.972992,-2.319371,5.127031,0.007446,0.074220,0.970352
1096,-21.484703,-3.234913,3.112840,-0.003906,0.032593,1.000259
1097,-18.005646,-4.028382,2.014191,-0.007568,0.029664,0.959976
1098,-19.287404,-6.164645,2.136263,-0.002075,0.055543,1.018692
1099,-17.700465,-5.615320,1.464866,0.003784,0.033082,0.969497
1100,-19.226368,-5.615320,1.464866,0.006958,0.056031,0.983902
1101,-22.217136,-4.577707,0.915541,0.033326,-0.002075,0.884047
1102,-24.902724,-3.784237,0.671397,0.029786,0.048585,0.940566
1103,-31.860838,-3.723201,0.366217,0.029908,0.032105,0.945449
1104,-36.255436,-4.638743,0.671397,0.019654,0.015137,1.011124
1105,-35.461967,-4.699779,1.037613,0.018311,-0.003662,1.040543
1106,-32.959487,-5.188067,0.244144,0.024903,-0.039551,1.033585
1107,-29.114214,-5.127031,0.793469,0.031373,-0.016480,1.002823
1108,-29.602502,-5.981537,0.427253,-0.007568,-0.022217,0.993057
1109,-29.175250,-7.873655,0.061036,0.014405,-0.010864,1.000015
1110,-30.762188,-8.606088,-0.366217,0.018555,-0.020142,0.995254
1111,-29.419394,-9.033341,-0.488289,0.025879,-0.034913,1.003677
1112,-28.931106,-8.545052,-0.427253,0.044434,-0.033570,0.992447
1113,-28.259709,-7.690547,-0.122072,0.038819,-0.037842,1.030777
1114,-28.259709,-6.591897,0.000000,0.033692,-0.047730,1.008316
1115,-25.024796,-5.920500,0.244144,0.030396,-0.055299,0.985489
1116,-24.231327,-5.249104,0.732433,0.046509,-0.040162,0.996841
1117,-26.550698,-5.188067,1.159686,0.036255,-0.055787,0.991226
1118,-24.353399,-5.249104,2.014191,0.048096,-0.036255,1.015030
1119,-30.701152,-4.882887,2.319371,0.024048,-0.069825,1.000504
1120,-31.494621,-2.685588,2.014191,0.070924,-0.109377,1.020645
1121,-25.818265,-1.586938,1.770047,0.013306,-0.059693,1.017838
1122,-27.588312,-2.075227,1.037613,0.048951,-0.050904,1.030289
1123,-29.846647,-1.464866,0.244144,0.030518,-0.088136,1.001968
1124,-28.503853,0.366217,0.000000,0.081422,-0.049805,0.853895
1125,-31.799802,-1.220722,0.549325,0.041382,-0.043458,0.943862
1126,-35.645075,2.258335,4.699779,0.074708,-0.050050,1.050431
1127,-45.471885,3.662165,7.629511,0.059937,-0.122560,1.024308
1128,-37.903410,6.775006,10.864424,0.066285,-0.144411,1.002579
1129,-40.466926,9.643702,11.413748,0.019409,-0.121706,0.999771
1130,-38.818952,8.117800,10.070954,0.008301,-0.101076,1.016251
1131,-35.584039,6.897078,4.882887,-0.041871,-0.037598,0.983902
1132,-31.128405,3.295949,-3.112840,-0.052613,-0.108034,1.006729
1133,-26.794842,-0.061036,-14.221408,-0.050538,-0.060304,0.891249
1134,-32.410163,-3.479057,-27.405203,-0.048219,-0.069459,1.040421
1135,-52.735180,4.516670,-45.777066,-0.013916,-0.095460,0.951308
1136,-57.618067,6.775006,-45.654994,0.137697,-0.274418,1.134661
1137,-32.349126,1.586938,-26.062409,0.192630,-0.372442,1.009903
1138,-11.291676,-0.610361,-9.094377,0.109010,-0.112184,1.042741
1139,-16.845960,3.418021,-13.305867,0.084352,0.115480,1.013199
1140,-64.148928,14.343481,-24.841688,0.170047,0.160769,0.991836
1141,-109.987030,31.128405,-14.587625,0.048829,0.272099,0.706920
1142,-182.681010,31.311513,-18.799115,-0.092409,0.453742,0.534554
1143,-179.629206,-7.873655,7.019150,0.035035,0.774548,1.219379
1144,-351.873045,-0.671397,-38.391699,0.131472,1.015030,1.524315
1145,-582.223240,-23.498894,-12.939651,-0.675792,0.032227,1.818509
1146,-685.862516,-93.690394,38.696880,-0.517952,-0.095460,1.476219
1147,-784.557870,-108.522164,59.998474,0.107179,-0.039551,1.178851
1148,-851.209278,-114.381628,63.660639,0.267460,-0.776501,1.475120
1149,-1079.301137,-130.861372,172.060731,-0.788098,-0.455695,1.999969
1150,-329.961090,-69.275959,38.635843,-0.861463,-1.078630,1.999969
1151,322.880903,0.671397,-59.754330,-0.286381,0.908217,1.999969
1152,313.725490,29.968719,-59.876402,-0.316045,1.533837,1.620752
1153,117.921721,21.850919,-39.185168,-0.500252,0.331304,0.908461
1154,-2.319371,-25.696193,31.860838,-0.341924,0.271366,0.191165
1155,30.945296,-17.578393,38.391699,-0.099733,0.207279,0.084596
1156,118.471046,0.244144,9.582666,-0.150881,0.272587,0.172488
1157,97.474632,-2.929732,6.469825,0.037598,0.395880,0.125978
1158,59.998474,-10.437171,5.371176,0.068727,0.337285,0.504280
1159,90.211337,-13.550011,-4.455634,0.051026,0.368292,0.834730
1160,124.269474,-18.127718,-15.320058,0.045777,0.446418,0.959487
1161,135.378042,-23.498894,-21.728847,0.004639,0.417121,1.127337
1162,159.975586,-21.911955,-29.236286,-0.041505,0.337774,1.276753
1163,192.507820,-13.977264,-36.072328,-0.112428,0.264652,1.288960
1164,212.222477,-5.676356,-37.964446,-0.203006,0.166018,1.321309
1165,231.204700,1.709010,-35.950256,-0.286503,0.035279,1.335103
1166,255.252918,9.948882,-30.823224,-0.338628,-0.072877,1.246723
1167,272.281987,18.005646,-22.949569,-0.347051,-0.134157,1.131365
1168,277.347982,26.672770,-13.611048,-0.290043,-0.209842,1.035538
1169,279.484245,32.593271,-5.798428,-0.199710,-0.222782,1.110491
1170,278.385595,35.400931,-0.244144,-0.092897,-0.218631,1.261494
1171,280.888075,38.269627,0.488289,0.019409,-0.255497,1.322652
1172,283.207446,46.448463,-4.028382,0.151736,-0.381476,1.149065
1173,272.709239,64.759289,-12.634470,0.299199,-0.502937,0.851820
1174,251.041428,76.173037,-19.897765,0.334600,-0.471687,0.792859
1175,222.964828,64.698253,-28.198672,0.339483,-0.412604,0.936416
1176,205.691615,48.401617,-36.377508,0.357305,-0.262577,1.500999
1177,193.057145,40.283818,-45.899138,0.381231,-0.215579,1.999969
1178,203.372244,46.814679,-56.946670,0.397345,-0.328130,1.999969
1179,245.609216,58.899825,-70.923934,0.326665,-0.446174,1.999969
1180,268.436713,67.750057,-80.811780,0.186648,-0.522713,1.999969
1181,257.450217,65.552758,-80.140383,0.048707,-0.649912,1.999969
1182,266.361486,63.965820,-78.553445,0.032837,-0.771252,1.958404
1183,269.474327,67.933165,-74.952316,0.116335,-0.717418,1.916411
1184,257.877470,69.886320,-73.243305,0.194949,-0.749523,1.889189
1185,263.004501,71.534295,-75.379568,0.274174,-0.738415,1.798001
1186,253.299763,74.952316,-77.943084,0.298589,-0.753307,1.694972
1187,240.970474,81.605249,-78.919661,0.246952,-0.877699,1.589502
1188,231.204700,88.929580,-74.891279,0.114137,-1.000137,1.405783
1189,211.795224,87.647822,-62.867170,-0.017700,-1.184100,1.253193
1190,191.348135,80.750744,-45.105669,-0.089845,-1.448142,1.153094
1191,169.619287,75.135424,-24.231327,0.035889,-1.792142,0.977432
1192,141.664759,76.234073,-6.225681,0.285405,-2.000031,0.801892
1193,105.592432,81.055924,0.854505,0.541268,-2.000031,0.548959
1194,86.121920,87.525750,-1.647974,0.586923,-2.000031,0.027710
1195,61.524376,73.243305,7.507439,0.409674,-2.000031,-0.353521
1196,-0.976577,23.620966,32.471199,0.227176,-1.843290,-0.291997
1197,-44.495308,-34.851606,57.740139,0.120363,-1.443748,0.326909
1198,-57.740139,-66.834516,74.341955,0.056886,-1.036027,0.974624
1199,-125.856413,-113.466087,55.298695,0.300420,-1.345968,-0.136965
1200,-238.834211,-114.686809,68.299382,0.406989,-0.479866,0.489998
1201,-138.857099,-80.872816,41.016251,0.261234,0.159670,1.310323
1202,-112.489509,-67.017624,28.320745,0.123415,1.188739,1.772366
1203,-211.367971,-74.464027,38.330663,0.245609,0.567147,0.559579
1204,-258.243687,-63.416495,34.119173,0.335332,-0.264897,0.137453
1205,-261.905852,-45.227741,34.790570,0.505379,-0.111696,1.252216
1206,-279.667353,-36.743725,27.100023,0.792615,-0.052735,1.999969
1207,-214.114595,8.117800,7.507439,0.330938,-0.419684,1.999969
1208,-106.446937,25.696193,-2.258335,-0.599741,-0.317388,1.824491
1209,-146.852827,-14.953841,27.771420,-1.239155,-0.451667,1.999969
1210,-73.548486,-54.139010,39.368276,-0.403082,-0.401740,1.388449
1211,-33.325704,-76.356146,33.936065,0.756359,0.515999,1.960723
1212,-57.495995,-40.344854,17.578393,0.922011,0.144411,1.541527
1213,-38.818952,-8.667124,8.606088,-0.253422,0.099611,1.327047
1214,-51.087205,-29.419394,14.648661,-0.349859,-0.113771,0.935683
1215,-41.931792,-36.865797,8.178836,0.383795,0.153933,1.383200
1216,-46.875715,-13.488975,1.770047,0.188968,0.006836,1.217060
1217,-34.363317,-4.577707,-1.464866,-0.213504,0.004761,0.967178
1218,-43.823911,-12.573434,2.319371,0.032227,-0.004150,1.353292
1219,-26.184482,-4.394598,2.258335,0.049683,-0.034058,1.202167
1220,-16.235599,0.793469,2.502480,-0.060060,0.045899,0.965347
1221,-21.484703,1.037613,4.028382,0.011719,0.043091,1.088029
1222,-17.883574,4.272526,3.479057,-0.019776,0.003052,1.056413
1223,-14.465553,5.432212,3.723201,-0.016236,0.030640,1.064714
1224,-13.733120,7.446403,3.356985,-0.010986,0.029053,1.025162
1225,-12.878614,8.117800,3.540093,-0.052613,0.034302,1.012345
1226,-13.061723,7.568475,3.540093,-0.051148,0.028687,1.000504
1227,-13.061723,6.897078,3.540093,-0.056886,0.015991,1.004654
1228,-11.169604,5.432212,3.356985,-0.069215,0.006714,1.005386
1229,-9.094377,3.540093,2.868696,-0.064088,0.017578,0.995987
1230,-8.056764,1.281758,2.136263,-0.081788,0.006958,0.992691
1231,-6.591897,-1.098650,1.586938,-0.063478,0.015869,0.992813
1232,-4.638743,-2.685588,0.915541,-0.060426,0.028931,0.976089
1233,-6.591897,-4.455634,0.915541,-0.071412,0.027222,0.962905
1234,-7.568475,-6.897078,0.793469,-0.064088,0.022217,0.955703
1235,-7.690547,-8.850233,0.366217,-0.084352,0.035767,0.935927
1236,-11.841001,-12.024109,0.671397,-0.068727,0.004883,0.942397
1237,-11.596857,-12.024109,-1.342794,0.008545,-0.149783,0.826917
1238,-9.277485,-14.282444,-0.671397,-0.093385,0.035767,1.012222
1239,-16.723888,-17.090105,1.403830,-0.025513,-0.003784,0.969741
1240,-11.841001,-15.991455,0.427253,-0.059205,0.024537,0.991592
1241,-11.352712,-17.639429,0.000000,-0.048585,0.098390,0.968399
1242,-15.625238,-17.578393,1.342794,-0.018433,0.007324,0.980972
1243,-16.235599,-16.601816,0.793469,-0.022583,-0.011231,1.075578
1244,-12.024109,-15.259022,0.000000,-0.030030,-0.022583,1.026505
1245,-9.399557,-15.197986,-0.610361,0.000244,0.082521,0.979629
1246,-10.864424,-11.657893,0.366217,-0.005615,0.000122,0.988540
1247,-12.634470,-10.009918,0.915541,-0.002197,-0.005249,1.078019
1248,-10.376135,-7.690547,0.671397,-0.003052,-0.016968,0.992935
1249,-10.742351,-7.141222,1.464866,-0.016114,-0.015137,0.997696
1250,-12.024109,-6.164645,1.220722,-0.030884,-0.019165,1.003433
1251,-11.169604,-5.981537,1.770047,-0.008301,-0.046876,0.999283
1252,-11.841001,-5.493248,2.441444,-0.010742,-0.038697,1.003799
1253,-13.183795,-5.249104,2.563516,0.004395,-0.026246,0.975601
1254,-14.648661,-4.394598,2.319371,0.004761,-0.030274,0.960098
1255,-17.822538,-3.540093,2.929732,0.012573,-0.016236,0.928603
1256,-23.559930,-3.601129,3.784237,-0.010010,0.003296,0.960830
1257,-27.893492,-4.211490,3.723201,-0.007324,-0.005371,0.951919
1258,-31.311513,-5.493248,3.662165,-0.027344,-0.010132,1.015030
1259,-30.518044,-6.103609,3.234913,-0.036744,-0.015381,1.010880
1260,-30.945296,-7.629511,2.868696,-0.021363,-0.026001,1.009903
1261,-32.166018,-7.507439,2.197299,-0.003784,-0.033814,1.006973
1262,-33.569848,-6.347753,2.868696,0.004761,-0.058350,1.021256
1263,-34.302281,-3.784237,5.004959,0.024292,-0.077516,1.066300
1264,-32.593271,-1.464866,6.042573,0.001953,-0.085939,0.995865
1265,-27.527276,-0.671397,5.493248,-0.034913,-0.046509,0.975235
1266,-28.992142,-1.892119,4.821851,-0.026001,-0.067262,0.984268
1267,-30.823224,-4.760815,2.990768,-0.051514,-0.052979,0.962417
1268,-30.090791,-6.775006,0.671397,-0.048463,-0.024659,0.987564
1269,-39.429313,-10.681315,-0.610361,-0.053223,-0.058473,0.988296
1270,-44.190127,-8.789197,-0.305180,0.022461,-0.064088,1.037369
1271,-45.288777,-7.873655,-4.821851,-0.064698,-0.070802,0.966812
1272,-49.134051,-10.559243,-13.183795,-0.049195,-0.045655,1.057633
1273,-38.696880,-2.685588,-30.518044,-0.015747,-0.186038,0.833631
1274,-63.233387,4.638743,-32.837415,0.049317,-0.141238,1.077775
1275,-64.271000,8.239872,-27.038987,0.098390,-0.283940,1.058854
1276,-49.195087,-5.249104,-5.065995,-0.039185,-0.058595,1.018204
1277,-70.008392,-11.657893,-18.249790,-0.013672,0.111208,0.915053
1278,-102.113375,-6.103609,-27.283131,0.087648,0.208377,0.877943
1279,-151.552605,-6.836042,-23.926146,0.036988,0.092164,0.907362
1280,-145.815213,-7.019150,-0.671397,0.000977,0.498421,0.963027
1281,-204.470893,-6.958114,-31.189441,0.075074,0.781140,1.245258
1282,-371.465629,-10.131991,-21.972992,0.128908,0.997940,1.087907
1283,-626.840620,-29.236286,19.714656,-0.475471,0.491218,1.999969
1284,-722.728313,-91.187915,75.623713,-0.164431,0.093019,1.134905
1285,-833.325704,-103.578241,68.360418,-0.047730,-0.169314,1.166888
1286,-914.198520,-128.358892,98.817426,0.427375,-2.000031,1.999969
1287,-709.849699,-80.384527,160.952163,-1.513085,-0.983536,1.999969
1288,74.647135,-58.716716,-20.202945,-0.479255,-0.122438,1.999969
1289,368.413825,12.512398,-8.972305,-0.748791,0.917128,1.999969
1290,186.587320,33.264668,-15.625238,-0.364874,0.826307,1.052506
1291,36.560616,-0.305180,73.426413,-0.612314,0.627207,-0.017334
1292,-42.725261,-34.058137,90.699626,-0.182742,0.431525,0.135744
1293,33.997101,-18.066682,67.811093,-0.010742,0.196048,0.385992
1294,90.150301,-5.676356,44.983597,0.181521,0.441901,0.280888
1295,51.636530,-6.347753,36.499580,0.238163,0.510994,0.533700
1296,58.960861,-9.765774,21.179522,0.201907,0.458015,0.847547
1297,104.982071,-13.183795,3.234913,0.179080,0.532845,0.920180
1298,122.011139,-24.841688,-8.972305,0.151614,0.568246,1.044327
1299,138.246738,-35.034714,-19.897765,0.126345,0.526986,1.270283
1300,172.549020,-36.499580,-32.837415,0.096315,0.460822,1.404440
1301,201.602197,-31.311513,-44.495308,0.029541,0.398444,1.475120
1302,224.979019,-21.667811,-52.552071,-0.059693,0.279057,1.500145
1303,253.543908,-9.399557,-57.251850,-0.162722,0.116579,1.319600
1304,274.784466,2.136263,-57.007706,-0.237064,0.021973,1.129900
1305,280.399786,9.277485,-51.880674,-0.273564,-0.055909,1.065446
1306,286.015106,13.427939,-45.044633,-0.262577,-0.099611,1.043473
1307,290.836957,14.160372,-38.330663,-0.181033,-0.072023,1.137957
1308,291.447318,14.953841,-35.767147,-0.057496,-0.119265,1.181415
1309,294.316014,23.010605,-39.673457,0.042115,-0.257450,0.984024
1310,283.573663,41.077287,-46.387427,0.161746,-0.378912,0.778088
1311,257.999542,57.434958,-53.101396,0.213138,-0.342901,0.893080
1312,232.242313,63.172351,-60.181582,0.232059,-0.291875,1.258320
1313,226.382849,61.768521,-67.200732,0.190799,-0.218997,1.704372
1314,227.054246,63.538567,-71.717403,0.151492,-0.300908,1.999969
1315,234.561685,74.464027,-71.839475,0.004517,-0.382086,1.999969
1316,239.322499,80.811780,-67.566949,-0.144045,-0.491463,1.999969
1317,237.308309,85.633631,-54.932479,-0.254032,-0.655772,1.999969
1318,245.243000,86.060884,-41.626612,-0.243046,-0.841444,1.999969
1319,246.036469,89.845121,-29.663539,-0.187259,-0.891127,1.981231
1320,232.974746,91.248951,-18.127718,-0.102296,-0.918593,1.999969
1321,229.556725,89.356832,-9.643702,0.012696,-0.956435,1.999969
1322,240.665293,84.901198,-7.629511,0.353155,-0.901503,1.999969
1323,243.350881,85.877775,-15.625238,0.577035,-0.893690,1.927642
1324,238.773175,80.201419,-25.818265,0.660899,-0.985977,1.732692
1325,233.768215,73.365377,-36.255436,0.616098,-1.130877,1.581811
1326,221.988251,64.148928,-41.443503,0.450324,-1.356954,1.353780
1327,206.424048,53.284504,-37.354086,0.222904,-1.664820,1.092302
1328,182.009613,40.833143,-26.123445,0.137331,-2.000031,0.883680
1329,148.561837,31.921874,-15.503166,0.199832,-2.000031,0.691417
1330,115.907530,37.232013,-15.442130,0.331792,-2.000031,0.385626
1331,87.342641,57.129778,-25.329976,0.220218,-2.000031,0.019532
1332,46.082246,66.712444,-14.404517,-0.043946,-2.000031,-0.329961
1333,-12.939651,33.325704,19.531548,-0.199466,-2.000031,-0.476081
1334,-61.219196,-37.109941,59.449149,-0.208377,-1.797757,0.318486
1335,-79.041733,-96.192874,88.807507,0.523812,-1.529808,-2.000031
1336,-152.590219,-124.879835,59.876402,0.771374,0.340093,1.571801
1337,-132.997635,-92.774853,34.546426,-0.024414,0.171511,1.594995
1338,-72.449836,-58.289464,35.034714,-0.450568,1.460472,0.721324
1339,-178.469520,-106.935225,56.458381,-0.339971,0.585702,-0.507698
1340,-334.599832,-111.085679,80.445563,-0.025391,-0.397467,0.184817
1341,-345.037003,-77.576867,97.596704,0.801526,-0.412482,1.999969
1342,-246.585794,-34.668498,68.909743,1.650660,-0.169314,1.999969
1343,-162.600137,17.273213,16.235599,1.630884,0.183719,1.999969
1344,-184.145876,50.659953,-9.948882,0.523201,0.016480,1.999969
1345,-170.290684,50.171664,3.479057,-1.478294,-0.309209,1.999969
1346,-96.253910,-18.677043,37.598230,-1.396262,-0.766369,1.075090
1347,-37.415122,-75.867857,35.034714,0.321782,0.278813,1.405051
1348,-71.656367,-60.303655,32.410163,1.370626,0.382452,1.756374
1349,-66.407263,2.258335,13.855192,-0.085084,-0.040406,1.498802
1350,-52.796216,-17.639429,15.686275,-0.744884,-0.152590,0.886610
1351,-31.067369,-46.570535,8.484016,0.354009,0.270268,1.282124
1352,-45.227741,-24.109255,0.000000,0.340215,0.091798,1.207172
1353,-39.490349,-10.681315,-1.281758,-0.261967,-0.056519,1.146502
1354,-26.855879,-20.080873,1.525902,0.120485,-0.000244,1.140764
1355,-19.470512,-7.690547,0.244144,0.125002,0.056153,1.198383
1356,-20.141909,0.488289,2.807660,-0.072999,-0.031128,1.081926
1357,-7.690547,1.831083,3.051804,0.068360,0.072999,1.041886
1358,-14.404517,6.652934,4.699779,0.010498,0.060670,1.015885
1359,-13.183795,7.446403,5.004959,-0.039063,0.024170,1.025040
1360,-11.413748,8.545052,5.065995,0.023560,0.051759,1.035538
1361,-12.329290,10.559243,5.065995,-0.041627,0.031861,1.014664
1362,-11.657893,9.338521,5.249104,-0.033814,0.020630,1.015396
1363,-9.460594,9.094377,4.882887,-0.038575,0.035157,0.996231
1364,-10.193027,7.446403,4.821851,-0.061891,0.033204,0.988418
1365,-8.728161,5.615320,4.211490,-0.035645,0.017456,1.033341
1366,-6.164645,6.103609,3.601129,-0.033692,0.007446,1.050309
1367,-1.831083,6.775006,3.234913,-0.044312,0.016358,1.019303
1368,0.000000,6.042573,3.051804,-0.068238,0.037232,0.980117
1369,-0.915541,3.295949,2.685588,-0.070314,0.038575,0.955581
1370,-1.647974,0.732433,2.075227,-0.071412,0.045655,0.957534
1371,-3.784237,-2.319371,1.464866,-0.078492,0.043458,0.933242
1372,-6.103609,-5.859464,1.098650,-0.081056,0.039185,0.952285
1373,-8.178836,-9.277485,1.220722,-0.088136,0.035645,0.913466
1374,-10.925460,-11.779965,0.183108,-0.058595,0.013672,0.978897
1375,-9.765774,-15.014878,1.403830,-0.078004,0.041260,0.901137
1376,-17.395285,-20.325017,2.563516,-0.073610,0.030396,0.861341
1377,-17.151141,-22.095064,0.183108,-0.036378,0.023560,0.940810
1378,-16.235599,-26.367590,1.647974,-0.064088,0.060060,0.995254
1379,-26.428626,-30.884260,2.563516,-0.056031,-0.005982,0.983413
1380,-17.090105,-29.602502,0.244144,-0.040406,0.036744,1.104021
1381,-15.197986,-30.212863,-0.366217,-0.016968,0.088380,0.983780
1382,-16.357671,-26.977951,-0.488289,-0.009155,0.015381,0.995132
1383,-17.517357,-26.001373,-0.488289,0.004517,-0.006226,1.068498
1384,-14.221408,-23.498894,-1.037613,0.036988,-0.001709,1.015640
1385,-14.404517,-20.141909,-1.037613,0.033326,-0.006348,1.023941
1386,-15.808347,-17.029068,0.000000,0.033448,0.009766,1.071916
1387,-12.817578,-13.794156,0.305180,0.018433,-0.034180,1.021378
1388,-14.709697,-11.596857,1.220722,0.022827,-0.010986,1.002213
1389,-15.869383,-11.169604,1.159686,-0.006226,-0.023072,1.000748
1390,-14.526589,-11.108568,1.220722,0.007446,0.005005,0.972793
1391,-19.165332,-11.169604,0.000000,0.014527,-0.025147,0.934829
1392,-20.996414,-11.169604,0.366217,0.038087,0.024659,1.036759
1393,-21.545739,-10.254063,0.061036,0.014282,0.017334,0.993179
1394,-23.926146,-9.765774,0.244144,0.018311,0.010376,0.980484
1395,-25.696193,-8.850233,0.732433,0.030396,-0.018067,1.008316
1396,-25.146868,-8.667124,1.586938,0.007324,-0.040650,1.007462
1397,-23.376822,-10.254063,3.418021,-0.010620,-0.013916,1.050187
1398,-25.146868,-8.545052,3.356985,0.024414,-0.027222,0.983902
1399,-30.457008,-8.056764,4.577707,0.018433,-0.045167,1.000504
1400,-28.747997,-4.455634,5.615320,0.057374,-0.058228,1.037858
1401,-27.527276,-1.709010,7.568475,0.091920,0.031373,0.980728
1402,-37.415122,4.638743,8.484016,-0.025513,0.010620,0.943008
1403,-52.063783,-0.183108,9.399557,0.028443,-0.054566,1.023697
1404,-42.542153,1.159686,6.897078,-0.007568,-0.024781,1.005997
1405,-50.659953,0.427253,4.577707,0.006958,-0.045533,0.984146
1406,-51.941711,0.061036,2.929732,0.000366,-0.070314,0.981949
1407,-46.875715,-0.671397,-2.929732,-0.033692,-0.107546,1.032731
1408,-45.105669,-1.098650,-11.596857,-0.046754,-0.050660,1.026017
1409,-53.711757,0.183108,-25.879301,-0.091066,-0.001587,1.102800
1410,-75.806821,12.695506,-48.401617,0.083986,-0.169558,1.054337
1411,-59.327077,7.507439,-38.086519,0.160525,-0.362676,1.073014
1412,-29.602502,1.770047,-9.399557,0.144533,-0.109621,1.077409
1413,-34.912642,7.751583,-10.620279,0.044556,0.170779,0.972427
1414,-78.614481,15.259022,-29.480430,0.092775,0.265263,0.933852
1415,-134.767681,24.658579,-31.372549,0.130495,0.243412,0.861097
1416,-161.440452,16.479744,-16.113527,-0.224979,0.318975,0.726940
1417,-191.226062,-20.386053,-17.883574,-0.078004,0.872938,0.886610
1418,-374.578470,-17.639429,-49.683375,0.113161,1.104631,1.783963
1419,-597.421225,-63.233387,-13.977264,-0.947280,-0.110842,1.693751
1420,-702.464332,-182.192721,59.693294,-0.596689,-0.293462,1.369894
1421,-774.181735,-223.453117,95.826658,0.054810,-0.104616,0.692027
1422,-883.436332,-199.221790,124.513619,0.930922,-2.000031,1.999969
1423,-781.078813,-87.525750,211.245899,-0.699596,-0.509407,1.999969
1424,-41.321431,-43.823911,-29.419394,-0.177493,-0.649180,1.999969
1425,268.925002,22.827497,-38.269627,-0.566415,0.847303,1.999969
1426,81.544213,65.125505,-51.697566,-0.438727,0.761364,1.914214
1427,-73.365377,13.000687,38.147555,-0.606088,0.667247,1.143816
1428,-74.708171,-15.686275,63.111315,-0.279667,0.322271,1.048722
1429,69.275959,0.671397,35.828183,-0.227787,0.222171,0.890517
1430,116.151675,-0.854505,33.508812,-0.083619,0.522835,0.520516
1431,67.139696,-11.169604,37.659266,-0.005005,0.485603,0.795911
1432,83.924620,-10.009918,30.151827,0.071290,0.372930,1.068864
1433,140.749218,-1.709010,13.733120,0.131228,0.457038,1.131609
1434,156.740673,-4.699779,1.464866,0.166384,0.466560,1.113542
1435,174.746319,-4.272526,-11.779965,0.168948,0.350347,1.100237
1436,204.776074,0.122072,-26.428626,0.122316,0.296757,0.989273
1437,216.067750,3.418021,-35.828183,0.022461,0.234745,0.917494
1438,221.805142,6.836042,-40.161746,-0.068727,0.143313,1.077409
1439,237.918669,11.047532,-39.673457,-0.177615,0.112673,1.246601
1440,254.398413,16.174563,-36.499580,-0.217411,0.038453,1.358541
1441,277.347982,21.667811,-30.518044,-0.185916,-0.037110,1.317281
1442,293.461509,24.963760,-24.353399,-0.108278,-0.060426,1.286763
1443,302.006561,29.114214,-20.874342,0.001709,-0.077394,1.335592
1444,310.246433,36.072328,-21.850919,0.112184,-0.150027,1.310567
1445,313.115129,50.843061,-27.954528,0.184939,-0.387579,0.883070
1446,297.611963,77.943084,-36.682689,0.319585,-0.567269,0.354376
1447,259.891661,100.221256,-40.283818,0.275029,-0.501595,0.266728
1448,211.062791,82.703899,-40.344854,0.207156,-0.387091,0.618051
1449,191.836423,55.603876,-41.199359,0.158450,-0.259525,1.410056
1450,180.178531,48.889906,-41.931792,0.202396,-0.168093,1.999969
1451,195.742733,64.087892,-43.945983,0.177005,-0.342168,1.999969
1452,265.934234,83.863584,-50.415808,0.105715,-0.562631,1.999969
1453,284.977493,94.850080,-51.575494,0.043946,-0.656748,1.999969
1454,254.581521,84.046693,-39.856565,-0.071534,-0.758679,1.999969
1455,268.009461,65.125505,-29.053178,-0.049195,-0.833265,1.999969
1456,307.194629,60.669871,-27.649348,0.121218,-0.913588,1.910185
1457,291.081102,71.595331,-28.747997,0.351446,-0.802869,1.674342
1458,263.736934,70.801862,-34.668498,0.611704,-0.789807,1.864164
1459,273.441672,67.139696,-51.758602,0.740978,-0.757824,1.875273
1460,271.854734,65.064469,-68.665599,0.722545,-0.825086,1.674220
1461,258.670939,64.820325,-78.431373,0.538582,-1.020890,1.424338
1462,241.092546,59.632258,-77.332723,0.208377,-1.299336,1.173480
1463,217.349508,49.256123,-65.613794,-0.009155,-1.628077,0.904189
1464,186.343175,43.762875,-48.401617,-0.012085,-1.980499,0.672862
1465,143.251698,50.843061,-35.461967,0.220951,-2.000031,0.523568
1466,89.112688,72.327764,-38.025483,0.377935,-2.000031,0.432136
1467,59.632258,102.601663,-41.687648,0.231815,-2.000031,0.063966
1468,35.278859,97.596704,-25.452049,0.002808,-2.000031,-0.367926
1469,-26.001373,38.147555,12.085145,-0.203372,-2.000031,-0.223758
1470,-68.116274,-37.842374,55.359731,-0.206424,-1.617823,0.426398
1471,-72.083619,-88.441291,81.239033,0.261357,-1.281514,-1.799100
1472,-160.830091,-111.635004,42.908370,0.637339,-0.017212,0.966323
1473,-129.091325,-89.051652,37.476158,-0.142702,0.121584,1.444968
1474,-77.088579,-63.599603,43.396658,-0.419074,1.307393,0.578622
1475,-142.030976,-108.155947,52.674144,-0.349004,0.457282,-0.464851
1476,-296.635386,-114.991989,82.764935,0.255131,-0.087037,-0.296391
1477,-342.961776,-94.789044,85.572595,0.799695,-0.259037,1.900908
1478,-278.812848,-58.960861,65.552758,1.426047,-0.211673,1.999969
1479,-160.952163,-16.357671,18.554971,1.485863,-0.067628,1.999969
1480,-153.933013,1.647974,-8.850233,0.684947,0.115602,1.982574
1481,-157.534142,24.536507,-11.596857,-0.641855,-0.192996,1.999969
1482,-133.730068,-2.136263,19.226368,-1.803128,-0.389532,1.999969
1483,-81.422141,-62.256809,52.918288,-0.908827,-0.390631,0.849989
1484,-54.139010,-102.174411,49.927520,0.602182,0.475227,1.338766
1485,-85.755703,-84.962234,28.442817,1.378195,0.175296,1.874052
1486,-60.059510,-30.212863,11.963073,0.035157,0.075929,1.774563
1487,-44.556344,-39.978637,11.413748,-0.670176,-0.111574,0.937270
1488,-38.147555,-68.055238,9.948882,0.239384,0.195315,1.248432
1489,-45.410849,-47.302968,0.915541,0.499153,0.040162,1.333028
1490,-40.650034,-25.329976,2.441444,-0.128542,-0.051392,1.198627
1491,-24.536507,-31.067369,1.647974,0.003662,0.039551,1.247456
1492,-15.503166,-24.353399,-2.136263,0.146731,0.113649,1.089128
1493,-17.090105,-17.090105,-2.441444,0.005005,0.078492,1.074846
1494,-17.456321,-14.587625,-1.709010,0.046143,-0.020142,1.103044
1495,-7.141222,-9.338521,-0.549325,0.071901,0.016846,1.022843
1496,-8.728161,-3.662165,2.075227,0.035645,0.006592,0.987320
1497,-11.963073,-0.976577,4.821851,0.031128,-0.049561,1.027359
1498,-6.042573,1.831083,5.004959,0.036378,0.007324,0.974502
1499,-7.934691,3.051804,4.882887,0.003174,0.048463,0.991226
1500,-8.606088,1.709010,5.432212,-0.018067,0.057618,1.015885
1501,-8.728161,0.366217,4.394598,0.001221,0.115358,1.001846
1502,-12.817578,-2.258335,3.418021,-0.022705,0.059937,1.011978
1503,-9.582666,-3.051804,1.464866,-0.025757,0.034058,0.961563
1504,-7.385367,-4.943923,1.098650,-0.002930,0.117678,1.017960
1505,-11.596857,-6.286717,1.342794,-0.013062,0.045777,1.019059
1506,-9.277485,-6.469825,2.258335,0.004028,0.072389,1.052995
1507,-7.629511,-3.540093,1.464866,0.034424,0.011841,1.005264
1508,-7.080186,-1.403830,2.014191,0.020996,0.028809,1.028580
1509,-6.347753,0.366217,2.380407,0.007691,0.046754,1.023087
1510,-5.920500,0.366217,2.746624,-0.001953,0.087160,1.054337
1511,-4.821851,0.305180,2.075227,0.005859,0.008789,1.001602
1512,-6.958114,-0.732433,1.403830,0.004517,0.075685,1.031876
1513,-5.737392,-1.281758,1.220722,-0.008545,0.016236,1.001114
1514,-3.906310,-1.770047,0.366217,-0.002564,-0.003174,0.889174
1515,-8.972305,-4.089418,0.366217,-0.020630,0.017090,0.966445
1516,-11.413748,-5.554284,1.037613,0.016480,0.065797,0.999039
1517,-12.512398,-5.249104,1.647974,0.010742,0.093263,1.034195
1518,-13.855192,-4.882887,1.709010,0.009155,0.025147,1.009049
1519,-11.657893,-4.699779,1.464866,0.016968,0.072999,1.018448
1520,-12.817578,-4.760815,1.525902,0.009033,0.057618,1.002213
1521,-12.634470,-5.432212,1.525902,0.006226,0.070436,1.015030
1522,-13.061723,-5.249104,1.220722,0.021485,0.019287,0.962295
1523,-16.540780,-6.042573,1.342794,0.004395,-0.003784,0.990372
1524,-13.855192,-5.737392,1.220722,0.025513,0.036378,0.994278
1525,-17.639429,-5.676356,1.586938,0.006958,0.009155,0.959365
1526,-20.996414,-6.042573,2.014191,0.030396,-0.011719,1.007950
1527,-18.005646,-5.676356,1.220722,0.015259,-0.003906,0.996353
1528,-19.409476,-5.920500,0.976577,0.033082,-0.014527,1.027115
1529,-18.188754,-5.127031,0.732433,0.017823,-0.031617,0.994644
1530,-17.273213,-5.188067,1.342794,0.014160,0.018555,0.979019
1531,-21.972992,-5.859464,2.258335,0.017456,0.014527,1.005875
1532,-22.644388,-5.310140,2.502480,0.037232,0.005859,0.957412
1533,-28.625925,-4.821851,3.356985,0.042969,-0.000732,0.996963
1534,-30.762188,-3.051804,4.577707,0.026856,-0.028443,1.016251
1535,-30.518044,-2.380407,5.371176,0.036011,-0.041260,1.013565
1536,-28.564889,-2.746624,5.249104,0.009277,-0.003540,0.953506
1537,-30.090791,-4.638743,3.906310,-0.009155,0.001709,0.922133
1538,-37.903410,-7.873655,2.685588,0.009644,-0.026978,1.069474
1539,-32.715343,-5.798428,-0.732433,0.006104,-0.032349,0.984024
1540,-32.898451,-5.798428,-2.563516,0.069459,0.072145,0.967666
1541,-46.082246,1.037613,-1.037613,0.003174,0.002564,0.993301
1542,-57.862211,-1.464866,0.305180,0.053712,-0.082155,0.992081
1543,-47.669184,2.990768,-0.976577,0.011597,-0.020020,1.014420
1544,-55.481804,2.746624,-3.845274,0.011353,-0.014649,1.009415
1545,-60.303655,4.516670,-8.239872,-0.184695,0.190311,1.375753
1546,-52.918288,1.098650,-26.367590,-0.098268,-0.187137,0.947036
1547,-76.234073,9.216449,-46.448463,0.028199,-0.067018,0.942885
1548,-84.718090,5.493248,-49.256123,0.222049,-0.358892,1.015152
1549,-56.458381,4.272526,-8.361944,0.245975,-0.188479,1.065080
1550,-58.594644,10.681315,5.127031,0.061646,0.266361,0.945571
1551,-118.104829,25.024796,-14.892805,0.063722,0.286503,0.844129
1552,-163.149462,25.635157,-4.577707,-0.048829,0.153323,0.614633
1553,-172.610056,-1.098650,18.677043,-0.292607,0.544686,0.717906
1554,-225.772488,-24.292363,-7.568475,0.051270,1.024186,0.635019
1555,-410.223545,-41.443503,-43.396658,-0.286625,-0.119265,1.406516
1556,-541.695277,-155.703059,28.686961,-0.685435,-0.024170,1.628931
1557,-643.686580,-248.538949,48.218509,-0.452766,-0.410040,1.441917
1558,-715.892271,-235.904479,101.503014,0.372076,-0.157961,1.134661
1559,-771.679255,-223.086900,113.588159,0.677623,-1.760037,1.751003
1560,-857.068742,-185.122454,198.916609,-0.218753,-0.869764,1.999969
1561,-243.533989,-90.150301,13.305867,0.081544,-0.846448,1.999969
1562,208.743420,0.122072,-50.659953,0.002564,0.990005,1.999969
1563,175.051499,65.186542,-85.755703,0.153689,1.440696,1.999969
1564,60.914015,42.481117,-43.396658,-0.581918,0.717418,1.446555
1565,21.789883,13.733120,-10.803388,-0.374151,0.238773,1.016495
1566,111.635004,34.668498,-12.573434,-0.408820,0.110964,0.626596
1567,152.346075,45.105669,-8.056764,-0.318120,0.239384,0.249027
1568,107.423514,42.603189,4.028382,-0.217655,0.219608,0.300420
1569,101.625086,39.490349,10.193027,-0.164675,0.116579,0.502693
1570,132.570382,37.415122,8.606088,-0.040162,0.194461,0.554208
1571,136.598764,32.410163,6.591897,0.056031,0.274540,0.640757
1572,136.842908,28.015564,2.563516,0.110719,0.263188,0.875013
1573,158.571756,28.442817,-5.310140,0.128176,0.275029,1.110491
1574,179.324025,29.053178,-13.061723,0.156497,0.282597,1.277974
1575,199.221790,31.738766,-19.958801,0.168215,0.247440,1.433738
1576,223.941405,38.330663,-27.405203,0.176394,0.197879,1.580713
1577,247.440299,49.378195,-34.607462,0.191043,0.058106,1.545800
1578,266.544595,60.791943,-42.847333,0.324590,-0.106081,1.471458
1579,276.005188,72.755016,-52.735180,0.234257,-0.276127,1.474022
1580,291.996643,77.637903,-57.679103,0.161868,-0.390387,1.347677
1581,299.687190,74.158846,-58.472572,0.184451,-0.398199,1.364889
1582,296.757458,68.604562,-59.388113,0.281865,-0.475227,1.324239
1583,294.926375,67.322805,-64.148928,0.373053,-0.557992,1.248920
1584,288.944839,70.008392,-71.778439,0.373785,-0.650523,1.036881
1585,271.061265,69.825284,-76.783398,0.291264,-0.720836,0.871717
1586,244.998856,64.759289,-76.722362,0.194583,-0.723644,0.874159
1587,220.035096,57.190814,-75.684749,0.122194,-0.694591,0.984024
1588,199.588006,54.322118,-72.205692,0.049317,-0.597421,1.254292
1589,181.277180,56.519417,-67.689021,-0.011353,-0.511604,1.678614
1590,174.135958,67.505913,-61.341268,-0.042115,-0.501472,1.999969
1591,183.596551,81.422141,-54.627298,-0.078248,-0.566415,1.999969
1592,205.874723,93.629358,-46.631571,-0.106081,-0.673716,1.999969
1593,223.086900,100.831617,-35.706111,-0.125246,-0.743053,1.999969
1594,228.519112,101.197833,-21.850919,-0.110964,-0.811658,1.987457
1595,236.087587,100.953689,-8.972305,0.000488,-0.835340,1.755764
1596,234.256504,104.615854,1.464866,0.143801,-0.814832,1.486839
1597,218.081941,101.564050,9.582666,0.238895,-0.840589,1.344991
1598,204.715038,93.812467,14.526589,0.277592,-0.908705,1.327169
1599,190.249485,83.497368,18.554971,0.244388,-1.084733,1.328023
1600,178.652628,72.999161,23.498894,0.184573,-1.365866,1.247944
1601,164.858473,64.209964,28.442817,0.280522,-1.723293,1.168719
1602,142.702373,61.280232,29.297322,0.607919,-2.000031,0.971328
1603,113.954376,76.783398,7.812619,0.856947,-2.000031,0.773327
1604,109.987030,115.785458,-17.090105,0.758312,-2.000031,0.192142
1605,83.131151,130.800336,-18.432898,0.474861,-2.000031,-0.542245
1606,10.376135,85.023270,4.455634,-0.232425,-2.000031,-1.395285
1607,-128.542000,-85.755703,53.345541,0.110964,-1.942290,-2.000031
1608,-237.857633,-229.861906,71.351186,1.313741,-0.763561,0.314092
1609,-100.038148,-130.495155,15.625238,0.628305,0.560189,1.999969
1610,-109.681849,-87.220569,2.075227,-0.632090,1.339864,1.999969
1611,-179.995422,-113.344015,32.410163,-0.709117,0.563973,0.290654
1612,-277.897307,-120.180056,53.223468,-0.281010,-0.381231,0.027955
1613,-272.281987,-82.215610,66.224155,-0.029297,-0.502937,0.944839
1614,-267.582208,-85.999847,70.984970,1.197406,0.015869,1.999969
1615,-224.124514,-39.917601,39.795529,1.624537,-0.098512,1.999969
1616,-149.538415,7.629511,-5.249104,0.543343,-0.177249,1.516869
1617,-193.057145,-16.174563,9.033341,-1.297383,-0.467292,1.999969
1618,-104.493782,-64.332036,38.269627,-1.188006,-0.699351,1.596826
1619,-28.076600,-103.578241,28.503853,0.953262,0.192508,1.999969
1620,-46.753643,-53.406577,18.310826,1.472557,0.196536,1.857450
1621,-39.795529,7.873655,4.943923,-0.372686,0.034791,1.038834
1622,-52.491035,-21.362631,14.953841,-0.574594,-0.026123,0.950454
1623,-31.433585,-40.344854,7.507439,0.322271,0.113649,1.267231
1624,-32.654307,-23.437858,0.000000,0.109133,0.084474,1.188251
1625,-41.748684,-22.827497,2.502480,-0.129519,-0.100954,1.147356
1626,-7.141222,-24.963760,-3.112840,0.030030,0.023804,1.068498
1627,-16.662852,-19.958801,-1.892119,0.137575,0.083131,0.986954
1628,-30.395972,-15.381094,0.976577,-0.073487,-0.029419,1.062394
1629,-12.756542,-15.747311,0.183108,0.032349,0.011231,1.039200
1630,-18.554971,-11.535821,0.671397,0.056764,0.041871,1.012711
1631,-21.972992,-8.178836,0.427253,-0.045533,0.022705,1.025895
1632,-18.249790,-8.239872,1.525902,0.052003,0.072267,1.019181
1633,-22.766461,-5.249104,1.464866,0.009766,-0.005127,1.015152
1634,-20.813306,-4.821851,1.831083,0.008789,-0.010132,1.061784
1635,-15.075914,-3.906310,1.342794,0.019287,-0.002930,1.011856
1636,-15.381094,-2.685588,1.159686,0.001709,0.011475,1.012955
1637,-17.029068,-3.173877,1.159686,-0.021363,-0.012573,1.020035
1638,-13.000687,-3.784237,0.488289,-0.014893,-0.000366,0.997818
1639,-13.244831,-4.333562,0.183108,-0.006592,0.011109,0.984390
1640,-16.906996,-4.699779,0.488289,-0.011353,-0.006836,1.004776
1641,-13.794156,-5.859464,1.159686,0.019287,0.089845,1.010636
1642,-15.991455,-4.455634,1.220722,0.006348,-0.012940,0.989639
1643,-17.761501,-3.601129,0.732433,0.030396,-0.037110,1.044694
1644,-13.061723,-1.586938,0.671397,0.022217,-0.028199,1.017594
1645,-13.611048,-0.671397,1.037613,0.012451,-0.027832,1.021256
1646,-11.902037,0.305180,1.098650,0.022217,-0.039796,1.028092
1647,-8.728161,0.671397,1.159686,-0.006836,-0.022461,0.993057
1648,-10.559243,-0.061036,1.159686,-0.011475,-0.021851,0.979019
1649,-11.291676,-1.220722,1.037613,-0.014893,-0.029297,0.981704
1650,-11.902037,-2.502480,0.671397,-0.009888,-0.025879,0.985977
1651,-13.427939,-3.418021,0.305180,0.002564,-0.033204,1.004532
1652,-11.963073,-3.295949,-0.122072,0.016480,-0.045777,1.024430
1653,-11.108568,-2.258335,0.183108,0.016480,-0.057008,1.024186
1654,-7.507439,-1.159686,0.427253,0.014649,-0.058595,1.038346
1655,-5.310140,0.000000,0.976577,0.010010,-0.062379,1.038956
1656,-1.159686,0.671397,1.098650,0.000122,-0.049317,0.997330
1657,-0.671397,0.183108,0.915541,-0.003052,-0.025879,0.982559
1658,-3.479057,-0.549325,0.793469,0.000488,-0.030396,0.987686
1659,-3.234913,-0.915541,0.549325,0.006470,-0.041016,0.992691
1660,-4.699779,-1.281758,0.671397,0.003784,-0.040894,1.000992
1661,-4.821851,-1.281758,0.671397,0.005982,-0.042481,1.004166
1662,-5.310140,-1.342794,0.671397,0.010986,-0.040894,0.998306
1663,-4.272526,-0.976577,0.671397,0.009888,-0.045289,1.001846
1664,-5.127031,-0.061036,0.854505,0.016724,-0.054566,1.013565
1665,-2.868696,1.037613,1.342794,0.010986,-0.054566,1.022721
1666,-0.915541,1.953155,1.831083,-0.009766,-0.031495,1.019913
1667,-1.159686,1.586938,1.831083,-0.009400,-0.035523,0.988907
1668,-1.770047,0.610361,1.098650,-0.009644,-0.046265,0.963272
1669,-3.967346,-0.915541,0.488289,-0.012573,-0.026246,0.952041
1670,-7.324331,-2.258335,0.000000,0.018433,-0.025269,0.974868
1671,-9.704738,-2.258335,-0.732433,-0.009522,-0.017456,0.960830
1672,-13.855192,-2.136263,0.000000,0.030030,-0.048219,0.999649
1673,-14.526589,-0.549325,1.159686,0.007202,-0.070558,1.009781
1674,-11.841001,-0.183108,0.976577,0.012940,-0.067628,0.978897
1675,-12.756542,-0.366217,1.037613,-0.002808,-0.039918,0.996353
1676,-12.756542,-1.220722,0.427253,0.003296,-0.052247,0.997452
1677,-12.695506,-2.075227,-0.488289,-0.001221,-0.057252,1.014298
1678,-12.756542,-1.586938,-1.159686,0.000855,-0.047120,1.024552
1679,-12.878614,-1.403830,-0.976577,0.010620,-0.056275,1.012467
1680,-12.817578,-0.549325,-1.037613,0.015625,-0.054078,0.999161
1681,-14.221408,-0.061036,-0.793469,0.022705,-0.060304,1.000015
1682,-13.916228,1.647974,0.061036,0.032349,-0.059937,1.017960
1683,-17.517357,3.967346,1.159686,0.010864,-0.070314,0.989883
1684,-14.099336,6.225681,4.577707,0.035645,0.010864,0.972793
1685,-32.410163,7.995727,5.493248,-0.017945,-0.033936,0.978286
1686,-30.884260,7.202258,5.004959,0.016724,-0.036011,1.014176
1687,-31.494621,9.643702,4.211490,0.001465,-0.039918,0.996475
1688,-35.461967,9.887846,4.577707,-0.014160,-0.036866,0.988907
1689,-31.860838,11.230640,1.770047,-0.044068,-0.015991,0.947768
1690,-34.363317,9.765774,-2.624552,-0.098634,-0.048096,0.942641
1691,-31.006332,6.652934,-10.193027,-0.122683,0.001831,0.994034
1692,-26.001373,4.333562,-18.432898,-0.039918,0.010376,0.899672
1693,-54.871443,-7.202258,-32.776379,-0.077638,-0.119265,0.909926
1694,-77.698940,-12.390326,-26.733806,0.073976,-0.148074,1.022965
1695,-85.389487,-8.789197,-17.334249,0.055665,-0.119875,0.999771
1696,-87.403677,-8.300908,-11.779965,0.057862,0.009522,0.937026
1697,-99.244678,-3.295949,-12.573434,0.098390,0.023316,0.941909
1698,-134.889754,2.624552,-0.854505,-0.005493,-0.175174,1.011490
1699,-130.189975,-3.967346,0.061036,-0.108522,0.168338,0.944594
1700,-186.526284,-11.902037,-9.704738,0.077882,-0.007324,1.114885
1701,-224.429694,-12.146181,12.756542,-0.166751,0.063233,0.969253
1702,-279.911498,-24.353399,3.723201,-0.012818,-0.206058,1.175921
1703,-301.823453,-31.921874,13.183795,-0.218753,0.014160,1.666529
1704,-257.389181,-63.538567,12.390326,-0.401984,0.417487,1.506249
1705,-242.618448,-76.539254,23.132677,-0.233402,-0.014893,1.999969
1706,-236.148623,-75.196460,66.895552,-0.881727,0.185183,1.999969
1707,50.354772,-28.809033,2.685588,-0.237064,0.488289,1.999969
1708,146.425574,21.850919,-27.100023,-0.308476,0.570932,0.926040
1709,59.937438,15.320058,4.089418,-0.227787,0.624887,0.561776
1710,22.461280,1.342794,10.070954,-0.159915,0.353277,0.822400
1711,88.807507,2.807660,-0.244144,-0.065675,0.329595,1.056168
1712,118.959335,1.831083,-7.080186,0.003296,0.462165,1.083024
1713,122.926680,6.103609,-12.512398,0.019532,0.391241,1.133806
1714,152.590219,19.592584,-20.630198,-0.031983,0.311772,1.058244
1715,171.511406,28.931106,-24.353399,-0.118288,0.256596,0.874037
1716,177.126726,30.945296,-21.240558,-0.216190,0.157595,0.815564
1717,186.221103,28.931106,-14.282444,-0.301640,0.064332,0.808972
1718,194.888228,27.038987,-4.211490,-0.368658,0.004273,0.827527
1719,197.573816,28.747997,8.484016,-0.414557,-0.067262,0.861707
1720,199.649043,34.851606,22.827497,-0.381353,-0.128176,0.894057
1721,200.442512,45.349813,34.973678,-0.270878,-0.159060,0.978286
1722,197.695888,55.420768,44.922560,-0.205936,-0.214481,1.075456
1723,196.292058,62.561990,53.528649,-0.118288,-0.297490,1.148943
1724,194.460975,65.491722,60.303655,-0.017700,-0.387579,1.208148
1725,189.944305,67.383841,64.454108,0.101198,-0.496956,1.206561
1726,183.169299,69.764248,64.515145,0.199100,-0.566415,1.177020
1727,173.159380,70.984970,63.111315,0.194949,-0.655406,1.119524
1728,157.412070,63.721675,64.637217,0.131960,-0.758679,1.077653
1729,136.903944,45.288777,69.581140,0.111086,-0.828504,1.122942
1730,124.940871,28.747997,70.923934,0.139651,-0.976699,0.906630
1731,113.893339,14.404517,62.623026,0.145388,-1.080095,0.328008
1732,15.808347,-54.261082,51.758602,-0.024659,-2.000031,-2.000031
1733,-178.835737,-120.485237,52.307927,1.344381,-2.000031,-2.000031
1734,-588.021668,-226.749065,78.187228,0.588510,-2.000031,1.999969
1735,-500.068666,-45.410849,-4.638743,1.106462,-2.000031,1.999969
1736,643.991760,35.400931,-46.875715,-0.360113,0.389288,1.999969
1737,540.474556,68.299382,-167.177844,0.472541,1.999969,-2.000031
1738,-10.986496,34.851606,-77.454795,-0.362310,0.968765,-0.157839
1739,-285.770962,-56.580453,101.991302,-0.456428,-0.636240,-0.374762
1740,-340.520333,-66.712444,128.114748,0.424445,-1.039567,1.905303
1741,-32.410163,-0.854505,-19.958801,-0.013550,-1.055070,1.999969
1742,150.759136,6.897078,-34.790570,0.231083,0.255009,0.017334
1743,-41.870756,-9.521630,6.713970,0.154788,0.490730,1.014054
1744,-87.647822,-7.690547,15.014878,-0.117922,-0.142580,1.177386
1745,16.906996,0.488289,-1.159686,-0.032837,0.026612,1.046769
1746,-17.883574,-5.371176,0.000000,0.019532,0.063844,1.028336
1747,-19.348440,-6.347753,-1.403830,-0.072389,-0.104494,1.062394
1748,3.601129,-6.225681,-3.051804,0.038087,-0.020386,1.048844
1749,-3.051804,-3.295949,-0.915541,0.024292,-0.024048,1.050187
1750,1.831083,-0.305180,0.000000,-0.027344,-0.006348,0.996109
1751,0.915541,-0.732433,-0.122072,-0.000732,0.008667,0.971572
1752,-2.014191,-1.586938,-0.244144,-0.016724,-0.008057,1.003067
1753,0.061036,-1.586938,-0.671397,-0.004395,-0.008301,1.029191
1754,0.366217,-1.159686,-0.305180,0.005493,-0.027466,1.034318
1755,5.432212,0.305180,0.000000,0.006348,-0.019043,1.024796
1756,7.263294,0.915541,0.122072,-0.010498,0.007324,0.966323
1757,4.638743,-0.183108,0.000000,-0.011719,0.028077,0.946548
1758,0.610361,-1.342794,-0.488289,-0.016724,0.030030,0.949722
1759,-2.319371,-2.563516,-0.915541,-0.013550,0.025269,0.974502
1760,-5.004959,-2.929732,-0.915541,-0.005982,0.001709,0.999527
1761,-3.479057,-2.441444,-0.976577,-0.000732,-0.009277,1.015396
1762,-2.563516,-1.953155,-0.793469,-0.002441,-0.010376,1.019669
1763,-1.098650,-1.525902,-0.671397,-0.005493,-0.000122,1.006973
1764,-1.953155,-1.770047,-0.549325,0.002197,-0.010986,1.020645
1765,0.915541,-0.976577,-0.732433,0.007080,-0.007691,1.023331
1766,2.136263,-0.732433,-0.671397,0.004761,0.002686,0.999649
1767,1.159686,-0.915541,-0.793469,-0.007813,0.001831,1.002213
1768,0.610361,-1.098650,-0.732433,-0.003662,-0.003296,1.008072
1769,1.953155,-0.732433,-0.793469,-0.007691,-0.002441,1.001114
1770,2.136263,-0.366217,-0.671397,0.000855,0.002686,0.997086
1771,1.770047,-0.244144,-0.610361,-0.000855,0.003540,0.994034
1772,1.770047,0.061036,-0.488289,0.007568,-0.005249,1.013565
1773,2.990768,0.976577,-0.366217,0.002564,-0.007813,1.020279
1774,3.479057,2.075227,0.000000,0.016602,-0.011719,1.033341
1775,6.042573,3.784237,0.366217,0.012818,-0.011597,1.032731
1776,8.239872,5.004959,0.671397,-0.005493,-0.004883,1.009049
1777,8.728161,5.493248,0.915541,-0.006714,0.005127,0.995499
1778,8.606088,5.249104,0.854505,-0.021118,0.017823,0.970962
1779,7.812619,4.577707,0.671397,-0.017456,0.035889,0.955703
1780,3.479057,3.418021,0.549325,-0.039796,0.049561,0.927504
1781,-1.892119,1.281758,0.366217,-0.038209,0.041016,0.939101
1782,-5.676356,-0.549325,0.122072,-0.000855,-0.000122,1.017227
1783,-2.685588,0.427253,0.000000,0.007568,-0.015137,1.037125
1784,0.793469,2.075227,0.061036,0.004517,0.002075,1.013443
1785,1.220722,2.929732,0.427253,-0.018433,0.000732,0.997452
1786,2.014191,2.197299,0.671397,-0.028809,0.000366,1.017105
1787,4.577707,1.525902,0.305180,-0.036255,0.020264,0.969986
1788,2.563516,0.061036,0.427253,-0.033570,0.037720,0.953384
1789,-1.159686,-1.220722,0.549325,-0.044678,0.050294,0.929580
1790,-8.850233,-3.906310,1.098650,-0.032715,0.005371,0.981949
1791,-3.418021,-5.432212,0.366217,-0.042725,0.040772,0.924941
1792,-13.427939,-8.239872,0.061036,0.029908,-0.016602,1.047257
1793,-6.897078,-4.943923,0.244144,0.029908,-0.086427,1.137591
1794,8.972305,-0.488289,0.305180,0.023072,0.003662,1.024674
1795,3.540093,1.342794,1.159686,0.014282,0.015137,1.014420
1796,4.821851,1.770047,0.976577,-0.040650,0.024781,0.960708
1797,2.380407,-1.159686,0.671397,-0.028321,0.017578,0.966812
1798,-0.183108,-2.380407,0.732433,-0.014649,-0.003662,1.058366
1799,7.324331,-0.915541,0.671397,-0.035279,0.060060,0.959121
1800,1.098650,-2.014191,1.709010,-0.030518,0.049928,0.893812
1801,-7.507439,-5.920500,1.342794,-0.062989,0.036866,0.941543
1802,-7.568475,-10.376135,-0.732433,0.002319,-0.024537,1.008194
1803,-3.723201,-10.559243,-2.075227,0.013306,-0.071412,1.091081
1804,8.667124,-7.446403,-2.746624,0.052369,0.031617,1.026871
1805,1.403830,-3.967346,-2.258335,0.013794,0.056641,0.973037
1806,-3.906310,-2.990768,-1.770047,0.003906,0.025269,0.991226
1807,-4.028382,-1.464866,-1.525902,0.022583,0.014771,1.003799
1808,-6.530861,0.366217,-0.793469,0.046754,-0.036255,1.082414
1809,1.831083,5.554284,0.244144,0.043824,-0.016236,1.052384
1810,3.356985,8.239872,1.342794,-0.045411,0.046509,0.899306
1811,-5.432212,3.540093,1.342794,-0.075196,0.046876,0.906386
1812,-7.751583,-2.197299,-0.549325,-0.027222,0.009277,0.987808
1813,-6.225681,-3.967346,-1.709010,0.019532,-0.023316,1.051652
1814,-1.342794,-0.976577,-1.037613,0.049561,-0.025757,1.075212
1815,2.868696,4.028382,0.244144,0.001465,0.002075,1.015640
1816,1.403830,4.943923,1.037613,-0.010132,0.010498,1.006363
1817,3.234913,4.089418,0.427253,-0.032227,0.023926,0.966323
1818,0.427253,2.014191,-0.244144,-0.000488,0.027344,0.976089
1819,-0.488289,1.831083,-0.427253,-0.009888,0.025147,0.973770
1820,-4.516670,2.075227,0.488289,-0.000488,0.011963,0.981827
1821,-3.784237,1.647974,0.427253,-0.054566,0.024292,0.941543
1822,-7.446403,-1.953155,0.122072,-0.027710,0.010864,0.987320
1823,-5.981537,-3.540093,-0.793469,-0.005127,-0.019165,1.031388
1824,-2.380407,-2.929732,-1.098650,-0.002930,-0.004028,1.013809
1825,-1.403830,-2.380407,-1.037613,-0.008423,0.009522,1.000137
1826,-2.563516,-2.197299,-0.915541,-0.002441,0.017700,0.993057
1827,-2.868696,-2.014191,-1.037613,-0.011841,0.015259,0.985489
1828,-5.127031,-2.136263,-1.037613,0.003174,-0.000122,1.007584
1829,-3.967346,-1.403830,-0.915541,-0.003906,-0.004517,1.008438
1830,-3.112840,-1.281758,-0.793469,-0.014405,0.008179,0.982315
1831,-5.127031,-2.258335,-0.549325,-0.033814,0.021851,1.006363
1832,-2.746624,-2.990768,-1.037613,-0.010376,-0.001587,1.010269
1833,-2.685588,-2.624552,-0.976577,0.017945,-0.024903,1.033951
1834,1.098650,-0.610361,-0.671397,0.002808,-0.000732,1.023819
1835,1.647974,0.671397,-0.183108,0.001099,0.018433,0.981704
1836,-2.319371,0.427253,0.000000,-0.016846,-0.001465,1.003067
1837,0.000000,0.366217,-0.122072,-0.000122,-0.005615,1.010758
1838,0.061036,0.244144,-0.366217,-0.004150,0.012696,0.993912
1839,-0.732433,-0.183108,-0.427253,-0.009766,-0.000855,0.998184
1840,0.610361,-0.122072,-0.488289,-0.009766,0.007202,0.989395
1841,-0.793469,-0.610361,-0.488289,-0.003540,-0.008545,1.006851
1842,1.831083,-0.549325,-0.671397,-0.005005,-0.002441,0.998550
1843,2.014191,-0.427253,-0.610361,-0.004273,0.020996,0.976699
1844,-2.258335,-0.244144,-0.976577,-0.006958,0.008911,0.966567
1845,-4.516670,0.610361,-1.525902,0.007202,0.005127,0.984024
1846,-5.737392,1.037613,-3.112840,0.003296,0.004273,1.009049
1847,-4.821851,2.929732,-11.718929,0.024292,0.017945,0.983413
1848,-2.807660,2.624552,-7.751583,-0.057496,0.007202,0.928603
1849,-13.550011,0.671397,-3.173877,0.018555,-0.034913,1.099748
1850,3.906310,1.464866,-0.488289,-0.029419,0.018677,0.963272
1851,-4.211490,-0.488289,0.366217,0.002075,-0.002075,0.986221
1852,-1.403830,-0.061036,0.000000,-0.020630,-0.009400,1.002823
1853,-0.549325,-1.159686,0.671397,0.000000,-0.048096,0.996109
1854,2.136263,-0.793469,1.159686,-0.016358,-0.014405,1.010513
1855,3.173877,-1.342794,2.685588,-0.013550,0.002441,0.994278
1856,2.319371,-1.464866,2.502480,0.000122,-0.000366,0.999405
1857,1.953155,-1.342794,3.051804,-0.013062,0.015015,0.962539
1858,-0.610361,-1.342794,1.892119,-0.000244,0.003418,0.995621
1859,-1.220722,-0.793469,0.122072,0.009400,-0.032349,1.041520
1860,2.075227,1.037613,-0.488289,-0.017334,0.009277,0.990616
1861,-3.601129,0.122072,0.061036,-0.003784,-0.010010,1.015640
1862,0.793469,0.915541,0.000000,-0.012329,0.005859,0.997208
1863,-0.671397,0.671397,0.000000,-0.032227,0.012818,0.969619
1864,-1.647974,-0.244144,-0.549325,-0.005493,-0.014527,1.016739
1865,0.854505,-0.122072,-0.732433,-0.008301,-0.001465,0.995010
1866,0.427253,-0.183108,-0.427253,-0.002441,-0.020630,1.013077
1867,0.549325,0.122072,-0.244144,-0.021118,0.012085,1.008316
1868,-0.427253,-0.427253,0.000000,-0.009888,0.025025,0.974014
1869,-3.540093,-0.549325,0.000000,-0.021485,0.013794,0.974990
1870,-5.004959,-0.976577,-0.183108,-0.009644,-0.002075,1.004654
1871,-3.723201,-0.854505,-0.244144,-0.006348,-0.008301,1.013565
1872,-0.122072,-0.366217,0.183108,-0.004395,-0.016480,0.953140
1873,-1.770047,-0.793469,-0.549325,-0.009400,-0.007568,1.001236
1874,-0.488289,-0.915541,-0.305180,-0.016724,0.000488,1.011490
1875,1.464866,-1.281758,-0.244144,-0.008545,-0.005493,1.000259
1876,3.051804,-1.159686,-0.183108,-0.016114,0.000000,0.995865
1877,-0.305180,-1.342794,0.122072,-0.002808,0.005371,1.003189
1878,0.061036,-1.159686,-0.122072,-0.010376,0.002197,1.001480
1879,0.854505,-1.220722,0.061036,-0.010010,-0.003296,0.995743
1880,0.671397,-0.976577,0.122072,-0.006836,-0.000977,0.993423
1881,-0.366217,-1.098650,0.183108,-0.004883,0.001465,1.004532
1882,-0.671397,-1.098650,0.732433,-0.004761,0.001099,1.005509
1883,-1.159686,-0.793469,1.159686,-0.002319,-0.000855,1.001114
1884,-0.671397,-0.488289,0.854505,-0.000610,-0.003662,1.002945
1885,1.525902,0.000000,0.793469,-0.014771,-0.015137,1.000381
1886,4.821851,0.183108,0.671397,0.005737,0.000244,1.007584
1887,3.234913,0.671397,0.183108,-0.024414,-0.004517,0.989761
1888,1.647974,-0.244144,0.427253,-0.006104,0.011597,0.985245
1889,-0.671397,-0.854505,-0.183108,-0.021118,0.009888,0.996597
1890,-0.854505,-1.037613,-0.793469,0.027955,0.024903,1.013321
1891,-2.807660,0.732433,-0.915541,-0.054200,0.024170,1.025406
1892,-3.051804,-0.732433,-0.549325,0.001831,-0.001953,0.986709
1893,0.732433,-0.610361,0.305180,-0.041505,0.014893,0.985367
1894,2.014191,-0.915541,0.000000,0.009033,0.022583,0.950210
1895,-2.136263,-0.793469,0.122072,-0.018311,0.016724,0.976944
