Packet number,Gyroscope X (deg/s),Gyroscope Y (deg/s),Gyroscope Z (deg/s),Accelerometer X (g),Accelerometer Y (g),Accelerometer Z (g)
0,-0.244144,-0.427253,-0.122072,-0.005249,-0.006104,0.993301
1,-0.488289,-0.549325,0.061036,-0.003906,-0.009766,0.997574
2,-0.061036,-0.427253,0.000000,-0.009400,-0.004883,0.999039
3,-0.305180,-0.671397,0.000000,-0.002319,-0.009766,1.001846
4,-0.122072,-0.610361,0.000000,-0.004395,-0.002686,1.003311
5,0.061036,-0.427253,0.000000,-0.006348,-0.000244,0.998917
6,-0.183108,-0.732433,-0.244144,-0.006958,-0.003906,0.991836
7,-0.854505,-0.854505,0.000000,-0.008057,-0.000244,0.983291
8,-1.647974,-0.915541,0.000000,-0.006714,-0.003540,0.993790
9,-1.831083,-0.854505,-0.122072,0.006470,-0.011597,1.003922
10,-1.220722,-0.488289,0.000000,-0.004517,-0.005371,0.998184
11,-1.403830,-0.427253,0.000000,-0.004883,-0.010498,1.005142
12,-0.549325,-0.366217,0.000000,-0.003418,-0.004761,1.004288
13,-0.854505,-0.366217,0.000000,-0.004150,-0.007691,0.999771
14,-0.488289,-0.427253,0.000000,-0.002319,-0.006470,0.999283
15,-0.549325,-0.488289,-0.122072,-0.002197,-0.007324,1.002213
16,-0.427253,-0.427253,-0.183108,-0.004883,-0.005371,1.003067
17,-0.610361,-0.610361,0.000000,-0.003296,-0.006958,1.010513
18,-0.366217,-0.366217,0.000000,-0.003174,-0.009400,1.002701
19,-0.488289,-0.488289,0.000000,-0.004395,-0.009155,1.004654
20,-0.183108,-0.305180,0.000000,-0.000610,-0.004395,1.003799
21,-0.549325,-0.366217,0.000000,-0.004273,-0.010620,0.999893
22,-0.183108,-0.366217,0.000000,-0.003174,-0.001343,1.001114
23,-0.549325,-0.488289,-0.122072,-0.006836,-0.005249,0.997208
24,-0.732433,-0.549325,-0.122072,-0.000488,-0.008179,0.998062
25,-0.732433,-0.610361,0.000000,0.000366,-0.005005,1.004410
26,-0.671397,-0.549325,-0.183108,-0.001831,-0.001099,1.008438
27,-0.427253,-0.427253,0.000000,-0.006348,-0.004150,1.001236
28,-0.610361,-0.427253,0.000000,-0.003540,-0.003662,1.004166
29,-0.183108,-0.305180,0.000000,-0.005737,-0.003418,1.005631
30,-0.305180,-0.244144,0.061036,-0.008301,-0.005371,0.999649
31,-0.366217,-0.244144,0.000000,-0.005859,-0.009155,1.003555
32,-0.061036,-0.244144,0.061036,-0.009033,-0.003174,1.006363
33,-0.366217,-0.549325,0.061036,-0.007568,-0.006714,0.998184
34,-0.061036,-0.488289,0.000000,-0.004395,-0.008545,0.998672
35,-0.366217,-0.732433,0.183108,-0.020874,-0.012696,0.999283
36,0.915541,-0.732433,0.000000,0.030518,0.010986,0.972305
37,-1.831083,-0.915541,0.000000,-0.014527,0.003296,1.001846
38,-1.220722,-0.976577,0.000000,0.009400,-0.006714,1.036881
39,0.183108,-0.244144,-0.183108,-0.006348,0.001465,0.976699
40,-1.525902,-0.915541,0.061036,-0.000366,-0.008179,1.003677
41,0.000000,-0.671397,-0.122072,-0.000244,-0.006836,0.999039
42,-0.854505,-0.610361,0.000000,-0.005371,-0.003052,1.007584
43,-0.366217,-0.671397,0.000000,-0.000855,-0.011597,1.001968
44,-0.122072,-0.488289,0.000000,-0.007324,-0.007080,0.996719
45,-0.305180,-0.793469,0.061036,-0.003418,-0.005493,1.000015
46,-0.183108,-0.549325,0.000000,-0.006714,-0.007813,1.002579
47,-0.244144,-0.671397,0.061036,-0.003662,-0.008301,1.001846
48,0.915541,-0.427253,0.000000,-0.014649,-0.004883,0.996841
49,0.061036,-0.976577,0.061036,0.013184,-0.001709,1.010758
50,0.061036,-0.549325,0.000000,-0.013184,-0.015625,0.995987
51,0.854505,-0.732433,0.122072,-0.008179,-0.004028,1.004166
52,1.281758,-0.305180,0.000000,-0.008057,-0.005859,0.996353
53,0.976577,-0.671397,0.122072,-0.011231,-0.011353,1.024063
54,3.662165,-0.671397,0.061036,0.015503,0.003052,0.997696
55,1.464866,-0.427253,0.061036,-0.013794,-0.002319,1.009171
56,3.906310,0.000000,0.000000,-0.010742,-0.022583,0.967666
57,4.150454,0.061036,0.122072,-0.004150,0.006348,1.029068
58,3.662165,-0.366217,0.488289,-0.012696,0.000732,1.013443
59,4.821851,-0.610361,0.061036,-0.001953,0.008667,0.978531
60,2.441444,-0.793469,0.244144,-0.009766,0.001465,0.990249
61,3.356985,-0.854505,0.061036,-0.006958,0.010010,0.989639
62,2.014191,-1.220722,0.061036,-0.000122,0.005371,0.987808
63,1.953155,-1.281758,0.183108,-0.000122,-0.002686,1.015274
64,2.929732,-0.915541,0.183108,0.002930,0.001221,1.010391
65,3.356985,-0.610361,0.305180,-0.005371,0.009766,1.008682
66,3.295949,-0.549325,0.244144,-0.015381,0.008667,0.981582
67,2.319371,-1.098650,0.366217,-0.011109,0.007691,1.003555
68,2.380407,-1.159686,0.305180,-0.004028,0.010742,1.002579
69,2.197299,-1.098650,0.244144,-0.007568,0.012940,0.985855
70,1.770047,-1.586938,0.244144,-0.002319,0.012818,0.995621
71,1.770047,-1.586938,0.305180,-0.008911,0.013916,0.988296
72,1.647974,-1.831083,0.244144,-0.006958,0.020264,0.988174
73,0.488289,-2.197299,0.122072,-0.010254,0.012451,0.979629
74,0.366217,-2.258335,0.000000,0.002930,0.004883,1.010880
75,0.793469,-2.258335,0.000000,0.003540,0.003418,1.005386
76,0.854505,-2.014191,-0.183108,0.008667,0.002686,1.004044
77,1.525902,-1.464866,-0.183108,-0.007446,0.002441,1.006851
78,2.319371,-1.403830,-0.183108,-0.000855,0.010254,1.009293
79,1.525902,-1.159686,0.000000,-0.004150,0.014771,1.001846
80,2.258335,-1.037613,0.000000,-0.002075,0.017334,0.987442
81,0.854505,-1.464866,0.183108,0.003174,0.007202,0.997208
82,1.403830,-1.220722,0.061036,-0.001221,0.018189,0.995743
83,1.281758,-1.220722,0.061036,0.000244,0.021485,0.989883
84,0.427253,-1.464866,0.122072,0.006592,0.017823,0.998428
85,-0.061036,-1.220722,0.183108,-0.000977,0.006226,0.989761
86,-0.061036,-1.342794,0.122072,-0.002686,0.010132,0.995621
87,0.122072,-1.159686,0.061036,-0.002930,0.008667,0.999283
88,0.732433,-1.159686,0.122072,0.003906,0.018799,0.998184
89,0.244144,-1.098650,0.122072,0.001099,0.011475,0.986099
90,0.366217,-1.281758,0.244144,-0.001587,0.010498,0.985733
91,0.183108,-1.892119,0.549325,-0.014527,0.024659,0.985122
92,-1.464866,-2.441444,0.854505,0.009033,0.005737,0.995010
93,0.122072,-1.831083,0.854505,-0.007568,0.006592,0.992569
94,-0.854505,-2.563516,1.159686,-0.010986,0.012451,0.977188
95,-1.403830,-3.112840,0.976577,-0.013794,0.031617,0.999893
96,-1.831083,-4.211490,1.403830,-0.009522,0.002197,0.975967
97,-0.854505,-5.432212,1.586938,-0.003418,0.007446,0.982437
98,-1.770047,-6.164645,2.685588,0.006104,0.010132,0.981460
99,-2.319371,-6.713970,3.112840,-0.016236,0.004639,0.971695
100,-2.624552,-8.728161,3.418021,-0.012940,0.010620,1.008194
101,-2.685588,-9.704738,3.356985,0.009155,0.005615,0.998672
102,-1.342794,-9.338521,3.356985,0.020264,0.012818,0.984390
103,-2.563516,-8.484016,3.540093,0.021729,0.017945,0.969131
104,-5.493248,-7.507439,3.784237,0.028687,0.017212,1.018326
105,-3.356985,-6.469825,3.112840,0.008057,0.006470,1.009781
106,-2.258335,-6.225681,2.685588,0.032959,0.023072,1.016495
107,-2.807660,-4.699779,2.075227,0.014160,0.021851,1.005142
108,-2.197299,-4.394598,1.159686,-0.001465,0.035279,1.019059
109,-2.563516,-4.821851,0.488289,0.019654,0.015747,1.016617
110,-2.502480,-4.272526,0.305180,0.018799,-0.005982,1.018814
111,0.061036,-3.418021,0.122072,0.028687,0.001221,1.031022
112,2.319371,-1.953155,-0.488289,0.022583,-0.019409,0.940444
113,0.305180,-1.831083,0.000000,0.020752,0.016358,0.992081
114,-0.305180,-1.403830,0.549325,0.027100,0.001953,1.016861
115,2.136263,0.000000,0.244144,0.017700,0.026490,0.985733
116,-1.525902,-0.244144,0.305180,0.026246,0.022705,0.987808
117,-1.403830,0.671397,-0.305180,0.048829,0.012818,1.010758
118,-1.281758,1.709010,-0.793469,0.033570,0.009155,1.025772
119,-0.488289,2.929732,-1.220722,0.036011,0.010986,1.011978
120,-0.732433,3.967346,-1.464866,0.025879,0.018067,1.000259
121,-1.770047,4.150454,-1.586938,0.012940,0.007813,1.005142
122,-1.220722,4.272526,-1.525902,0.016114,0.014893,0.995621
123,-1.892119,4.150454,-1.586938,0.003052,0.007568,0.979019
124,-2.014191,3.540093,-1.586938,0.015259,0.015991,0.986099
125,-3.295949,3.601129,-1.525902,0.022095,0.007691,1.001846
126,-2.746624,4.638743,-1.647974,0.029175,0.017945,0.980484
127,-5.065995,5.493248,-1.525902,0.026612,0.010864,1.001846
128,-5.554284,7.324331,-1.342794,0.027588,-0.000610,1.023697
129,-3.906310,8.850233,-1.037613,0.015015,0.003418,1.016739
130,-4.455634,9.460594,-0.976577,0.001343,-0.006714,1.008804
131,-3.234913,9.338521,-0.793469,-0.006714,-0.009400,1.018936
132,-0.488289,8.545052,-0.915541,-0.022461,0.017212,0.994278
133,-1.525902,6.164645,-1.037613,-0.027344,0.010986,0.952163
134,-2.441444,3.295949,-0.915541,-0.021851,0.012085,0.959976
135,-5.432212,0.854505,-1.403830,-0.039185,-0.045045,0.935195
136,-5.127031,-0.366217,-1.647974,-0.021851,0.021851,0.979507
137,-8.178836,-1.342794,-1.464866,-0.001587,-0.001709,0.982559
138,-6.591897,-1.037613,-1.281758,0.005005,-0.019287,0.973037
139,-8.239872,-0.732433,-1.037613,0.016236,-0.024537,0.982925
140,-7.690547,0.000000,-1.098650,-0.002441,-0.061524,0.972915
141,-8.117800,-0.183108,-1.037613,0.006836,-0.050294,0.961074
142,-8.667124,-0.610361,-0.549325,-0.016236,0.097536,1.050675
143,-8.850233,-1.403830,-0.488289,-0.010986,-0.066529,0.970108
144,-7.934691,-1.464866,-0.976577,-0.008667,0.045167,1.014542
145,-10.070954,-2.258335,-0.183108,-0.009888,0.029541,0.991104
146,-12.268254,-2.624552,-0.549325,0.008423,-0.008911,0.972549
147,-12.634470,-2.746624,-0.305180,-0.005737,0.003784,0.993790
148,-13.977264,-2.197299,-0.244144,0.009766,-0.035889,0.977066
149,-13.794156,-2.014191,0.305180,0.017334,-0.058106,1.004654
150,-11.718929,-1.037613,0.549325,0.006226,-0.029419,1.004288
151,-10.498207,-1.037613,1.159686,0.004028,-0.046509,0.984756
152,-10.315099,-1.831083,1.342794,-0.009522,-0.020142,0.967666
153,-12.512398,-3.906310,2.075227,-0.037110,-0.004395,0.938857
154,-16.784924,-6.958114,2.685588,-0.011231,0.003906,0.974746
155,-21.423667,-8.056764,3.051804,-0.002808,-0.022095,0.992569
156,-20.080873,-7.751583,2.929732,0.005371,-0.024414,0.960220
157,-28.503853,-7.507439,3.356985,0.030396,-0.041505,0.989151
158,-28.931106,-6.103609,4.089418,0.009155,-0.049683,1.029923
159,-24.170291,-5.127031,3.356985,0.012451,-0.039551,1.020035
160,-25.879301,-5.249104,2.258335,0.011353,-0.044556,1.002579
161,-24.536507,-4.821851,1.403830,0.042359,-0.027832,0.975967
162,-28.076600,-3.479057,0.061036,-0.055421,-0.025147,0.938369
163,-31.677729,-7.324331,-0.122072,0.003662,-0.003052,1.009537
164,-36.194400,-7.202258,-1.647974,-0.012207,-0.010376,0.987442
165,-37.415122,-8.484016,-3.784237,-0.077272,0.013672,0.913588
166,-46.997787,-13.000687,-4.333562,0.064210,-0.048707,1.030045
167,-52.979324,-10.986496,-3.418021,-0.020142,-0.110353,1.011368
168,-41.321431,-11.169604,-6.103609,0.021118,-0.105715,0.999771
169,-33.875029,-7.202258,-3.662165,0.058717,-0.110842,1.179706
170,-29.846647,-0.610361,-3.601129,-0.039673,-0.126955,0.971450
171,-44.434272,-7.507439,-15.564202,-0.032959,-0.028809,1.001602
172,-60.120546,-10.925460,-24.597543,0.047974,-0.199588,1.003799
173,-67.139696,-1.159686,-16.357671,0.078859,-0.189456,1.067399
174,-62.012665,5.432212,-14.526589,0.056153,-0.233402,1.080827
175,-44.861524,1.159686,-4.272526,0.045655,-0.147463,1.056901
176,-45.838102,-0.366217,-3.540093,0.026001,-0.101198,0.972793
177,-62.928206,1.586938,-7.202258,0.051270,-0.127077,1.060197
178,-62.195773,4.638743,-8.361944,-0.259892,0.347784,1.646021
179,-39.917601,3.845274,-13.122759,-0.219730,0.143801,1.025772
180,-95.887694,3.723201,-10.803388,0.127443,0.091432,0.818006
181,-161.501488,6.225681,12.634470,0.062013,-0.068849,0.857679
182,-138.673991,1.953155,20.569162,0.167361,0.620005,1.063005
183,-216.006714,3.051804,-22.034028,-0.057496,0.287724,0.987076
184,-357.366293,4.089418,8.361944,0.064088,0.382086,1.319722
185,-474.738689,27.283131,5.554284,0.164309,0.209354,1.397604
186,-553.292134,12.024109,16.540780,-0.178103,0.048096,1.565454
187,-614.938582,12.207218,29.541466,0.265629,-0.062867,1.045426
188,-682.871748,24.963760,23.559930,0.077516,-0.331792,0.991958
189,-786.633097,18.066682,94.544900,0.118166,-2.000031,1.999969
190,-589.791714,23.743038,92.774853,-1.432883,-0.456550,1.999969
191,53.223468,-25.268940,-40.955215,-0.489631,0.030884,1.999969
192,228.213931,-6.775006,-40.283818,-0.655772,0.739757,1.999969
193,33.875029,-17.578393,-29.480430,-0.334600,0.464363,1.586084
194,-60.975052,-47.486076,35.584039,-0.221073,0.343999,1.118669
195,25.391012,-25.024796,20.141909,-0.028443,0.244022,1.123186
196,104.005493,-4.272526,1.709010,0.037964,0.484871,0.719249
197,58.472572,-5.615320,-3.173877,0.146853,0.467414,0.747326
198,56.824598,0.305180,-11.474784,0.118532,0.315312,0.878309
199,99.488823,5.249104,-23.376822,0.064576,0.364508,0.815564
200,99.977111,-4.455634,-25.879301,-0.013916,0.380011,0.837903
201,107.057298,-14.587625,-25.024796,-0.034546,0.326299,1.004166
202,135.133898,-19.165332,-25.391012,-0.055299,0.351324,1.157244
203,152.468147,-21.301595,-24.292363,-0.039185,0.351324,1.303853
204,173.342489,-16.296635,-24.231327,-0.058350,0.304204,1.448875
205,202.761883,-6.225681,-24.658579,-0.062745,0.251835,1.408103
206,224.368658,5.554284,-24.902724,-0.062257,0.172244,1.284321
207,237.979706,14.648661,-23.376822,-0.081056,0.047974,1.172137
208,251.224537,18.249790,-19.897765,-0.068605,-0.013428,1.078996
209,258.915084,13.733120,-15.014878,-0.036866,-0.045655,1.067277
210,264.164187,3.356985,-10.742351,0.030030,-0.052979,1.112688
211,269.291218,-8.117800,-10.131991,0.139651,-0.029786,1.229511
212,274.967575,-15.197986,-16.052491,0.251225,-0.037842,1.287373
213,278.080415,-11.413748,-28.320745,0.326543,-0.039307,1.376242
214,275.761044,4.028382,-44.983597,0.327642,-0.156130,1.352804
215,269.108110,28.992142,-59.266041,0.283207,-0.270024,1.344381
216,259.891661,49.011978,-66.773480,0.159792,-0.329473,1.407126
217,252.872511,53.162432,-68.116274,0.075196,-0.384771,1.382345
218,248.844129,48.889906,-65.430686,-0.001221,-0.376349,1.445945
219,236.026551,45.838102,-58.167391,-0.092531,-0.386725,1.644068
220,223.025864,48.340581,-48.767834,-0.147341,-0.439338,1.972564
221,225.711452,54.871443,-39.978637,-0.154299,-0.470344,1.999969
222,238.406958,60.914015,-31.311513,-0.132204,-0.497688,1.999969
223,258.670939,58.106355,-23.376822,-0.096315,-0.600473,1.999969
224,287.296864,51.819638,-19.409476,0.015625,-0.706676,1.999969
225,296.635386,52.552071,-19.287404,0.108400,-0.725353,1.795926
226,278.446632,54.932479,-21.057450,0.170413,-0.774548,1.721584
227,271.427482,59.998474,-24.170291,0.167605,-0.815686,1.777737
228,264.713512,62.378882,-26.184482,0.158206,-0.882460,1.732448
229,254.703594,64.087892,-25.207904,0.122683,-1.012100,1.552514
230,242.801556,63.721675,-22.827497,0.091920,-1.171771,1.307881
231,216.433967,63.538567,-20.019837,0.076417,-1.451194,1.050065
232,184.267948,68.970779,-17.273213,0.194583,-1.836332,0.857313
233,140.321965,79.652094,-21.667811,0.426154,-2.000031,0.938491
234,101.564050,101.319905,-30.701152,0.578256,-2.000031,0.934707
235,92.408637,132.814527,-42.298009,0.488411,-2.000031,0.354742
236,79.224842,133.180743,-35.767147,0.192020,-2.000031,-0.518441
237,6.042573,63.050278,-3.906310,-0.054322,-2.000031,-0.780285
238,-100.404364,-60.608835,16.845960,0.151980,-2.000031,-1.948150
239,-221.988251,-177.248798,37.598230,0.809216,-1.459495,-0.180056
240,-235.355154,-139.467460,11.169604,0.501350,-0.826062,1.384543
241,-119.325551,-88.563363,-19.653620,-0.427863,0.347906,1.999969
242,-107.789731,-75.684749,-3.234913,-0.799084,0.853651,1.844266
243,-207.705806,-79.285878,28.503853,-0.783093,0.333501,0.310185
244,-301.396201,-93.385214,54.993515,-0.215091,-0.385138,0.408209
245,-283.573663,-79.163806,68.787671,0.474861,-0.314946,1.999969
246,-217.227436,-50.476844,54.383154,1.099504,-0.099733,1.999969
247,-115.724422,-19.165332,23.254749,1.236591,0.038941,1.999969
248,-86.366064,5.371176,-12.024109,0.489998,0.126589,1.132097
249,-128.480964,28.076600,-8.361944,-0.634897,0.012573,1.223529
250,-147.524224,2.868696,25.635157,-1.276265,-0.276860,1.881254
251,-103.150988,-51.392386,41.748684,-0.359258,-0.441657,1.501244
252,-46.021210,-70.923934,34.424353,0.604501,0.282475,1.917510
253,-57.679103,-39.185168,20.874342,0.982437,0.190921,1.868681
254,-37.720302,1.281758,11.841001,-0.237064,-0.037720,1.111101
255,-37.170977,-16.540780,16.296635,-0.453376,0.028199,1.088518
256,-32.043946,-31.738766,12.634470,0.348272,0.113405,1.327657
257,-21.484703,-9.643702,4.211490,0.120607,0.118410,1.185077
258,-27.527276,-7.751583,4.943923,-0.275273,0.017578,0.906996
259,-23.743038,-18.371862,4.821851,-0.007691,0.069825,1.082780
260,-21.972992,-15.381094,3.356985,0.047120,0.044800,1.096818
261,-16.906996,-11.779965,2.563516,-0.094606,0.066651,0.961074
262,-21.240558,-14.770733,2.502480,0.023926,0.067506,1.062638
263,-19.470512,-11.047532,2.258335,0.049073,0.038575,1.101579
264,-13.244831,-7.690547,1.464866,-0.030396,0.033936,1.049821
265,-12.390326,-8.300908,1.525902,0.015869,0.035279,1.027359
266,-10.376135,-7.019150,0.793469,-0.004517,0.030274,1.052140
267,-7.934691,-6.286717,0.305180,-0.019532,0.037720,1.014054
268,-7.812619,-6.103609,0.732433,-0.020020,0.031495,1.001114
269,-7.507439,-5.859464,1.159686,-0.032349,0.034058,1.001846
270,-7.507439,-6.225681,1.220722,-0.058473,0.061036,0.999161
271,-9.094377,-7.812619,2.014191,-0.043336,0.038575,0.956069
272,-8.606088,-6.836042,-0.793469,0.006958,-0.059327,0.952773
273,-6.530861,-9.277485,0.427253,0.002686,0.011109,0.943008
274,-13.794156,-11.047532,2.014191,-0.011841,0.016114,0.928847
275,-10.681315,-11.718929,2.197299,-0.029908,0.018555,1.028458
276,-9.643702,-12.268254,2.197299,-0.005615,0.035889,1.004898
277,-8.911269,-10.498207,-1.403830,0.011719,-0.173220,0.703746
278,-7.324331,-13.794156,0.854505,-0.031250,0.064088,1.080461
279,-13.061723,-14.404517,2.197299,-0.012696,0.024903,0.997696
280,-9.033341,-13.000687,1.831083,0.003906,0.006958,1.017350
281,-6.347753,-11.230640,1.342794,0.013306,0.031373,0.983536
282,-8.606088,-10.437171,1.586938,0.017578,0.023438,0.965225
283,-8.789197,-9.460594,1.770047,0.020264,0.022461,0.964492
284,-8.545052,-8.300908,1.098650,-0.001099,0.031006,0.946914
285,-12.146181,-10.376135,2.075227,-0.006226,0.117433,1.015518
286,-10.009918,-8.300908,1.831083,0.018433,0.029175,0.988785
287,-11.657893,-8.178836,2.014191,0.013306,0.011841,1.023453
288,-9.155413,-7.751583,1.159686,-0.002808,0.028199,0.950332
289,-14.099336,-9.643702,1.525902,-0.004517,0.040284,0.950576
290,-15.869383,-11.108568,1.342794,-0.015015,0.031128,0.932631
291,-21.240558,-13.550011,1.647974,0.003052,0.076783,0.978775
292,-25.635157,-13.916228,1.709010,0.018799,0.000977,0.938003
293,-26.001373,-14.404517,1.647974,0.010742,0.015381,0.920790
294,-31.189441,-15.320058,1.709010,0.038209,0.047730,1.006607
295,-40.466926,-14.404517,2.258335,0.061280,-0.018189,1.039811
296,-34.912642,-10.559243,1.709010,0.063600,-0.026490,1.059953
297,-33.936065,-7.019150,1.770047,0.058473,-0.008301,1.049332
298,-36.133364,-5.065995,2.075227,0.031861,-0.039918,1.012100
299,-35.156786,-3.295949,2.136263,0.038087,-0.025025,0.994156
300,-35.217823,-2.075227,3.051804,0.037110,-0.011475,0.994644
301,-40.100710,-1.403830,4.455634,0.027100,-0.050782,0.997330
302,-38.574807,-1.098650,6.836042,0.039185,-0.040650,0.990249
303,-40.283818,0.183108,9.033341,0.031128,-0.030884,0.963638
304,-42.114900,1.953155,10.070954,0.022339,0.012573,0.901625
305,-53.772793,-0.366217,8.728161,0.044923,0.007813,0.931289
306,-56.519417,0.427253,3.356985,-0.031739,0.003174,0.980484
307,-62.134737,-2.685588,-2.014191,0.008545,-0.051026,0.997574
308,-66.163119,-3.051804,-4.638743,-0.043702,-0.069093,0.999893
309,-66.590372,-5.981537,-11.169604,-0.058228,-0.062989,1.053239
310,-71.290150,-12.085145,-15.442130,-0.005982,-0.119265,1.056535
311,-56.885634,-0.610361,-33.936065,0.014649,-0.310552,0.806287
312,-67.689021,3.540093,-42.298009,0.186770,-0.362676,1.090715
313,-32.410163,5.493248,-17.700465,0.144289,-0.337652,1.135149
314,-28.381781,2.380407,-7.507439,0.069581,-0.026734,0.985000
315,-54.200046,9.643702,-8.728161,0.075685,0.316533,0.945083
316,-122.255283,20.630198,-14.465553,0.164187,0.260136,0.911879
317,-155.886168,21.972992,-4.272526,-0.078614,0.253300,0.628672
318,-169.619287,-9.582666,-2.380407,-0.289677,0.428351,0.633555
319,-270.634012,-23.132677,-12.817578,0.241703,1.474876,0.919570
320,-513.374533,-24.841688,-48.218509,0.050416,0.798840,1.768948
321,-697.398337,-87.769894,5.920500,-0.325322,-0.014649,1.366720
322,-840.405890,-140.566110,51.575494,0.019409,0.036133,1.301411
323,-917.372396,-155.458915,63.050278,0.205936,-0.400641,1.022354
324,-1179.522393,-197.024491,162.844282,-0.854749,-0.104494,1.999969
325,-359.624628,-78.492409,28.992142,-0.913588,-1.126848,1.999969
326,316.411078,1.220722,-85.999847,-0.270512,0.929824,1.999969
327,307.682918,20.996414,-81.849393,-0.418952,1.623072,1.474022
328,116.212711,6.042573,-61.646448,-0.684703,0.642954,0.958877
329,-20.569162,-48.706798,-5.920500,-0.449958,0.504768,0.168093
330,17.029068,-38.269627,0.549325,-0.366094,0.281743,0.249516
331,114.564736,-8.789197,-20.508125,-0.391852,0.332525,0.252567
332,82.215610,1.892119,-16.418708,-0.317632,0.422858,0.361212
333,45.349813,6.469825,-6.469825,-0.367926,0.291630,0.837171
334,93.812467,15.197986,-2.502480,-0.381842,0.305058,1.132341
335,132.387274,15.869383,3.540093,-0.364019,0.385016,1.199847
336,142.824445,9.155413,13.550011,-0.323613,0.344244,1.358785
337,176.516365,13.305867,18.432898,-0.258671,0.277470,1.379538
338,209.781033,23.926146,20.141909,-0.183719,0.253056,1.203632
339,219.729915,33.081559,21.850919,-0.135622,0.177615,1.073625
340,230.350195,40.955215,21.911955,-0.079835,0.103639,1.076432
341,245.120928,47.913329,20.508125,-0.010864,0.048219,1.080339
342,255.313954,48.340581,20.019837,0.050050,0.014527,1.132341
343,266.483558,41.321431,18.554971,0.141238,0.007324,1.254292
344,280.949111,33.203632,14.099336,0.234623,0.032349,1.494652
345,295.963989,27.527276,4.821851,0.367071,0.044190,1.762722
346,313.542382,30.395972,-9.643702,0.463752,-0.059815,1.732326
347,326.909285,44.922560,-31.372549,0.582773,-0.365240,1.179706
348,318.303197,72.999161,-53.589685,0.676890,-0.537972,0.589731
349,287.113756,85.572595,-64.698253,0.503059,-0.434211,0.525887
350,241.336690,62.928206,-70.618753,0.340581,-0.351324,0.917128
351,225.162127,45.899138,-73.853666,0.172854,-0.274662,1.699611
352,218.081941,48.523690,-72.816052,0.014527,-0.322515,1.999969
353,227.298390,63.904784,-67.322805,-0.116457,-0.493416,1.999969
354,264.225223,77.027543,-59.143969,-0.172488,-0.635386,1.999969
355,294.865339,78.004120,-46.448463,-0.221805,-0.690562,1.999969
356,310.185397,64.820325,-31.555657,-0.146242,-0.794568,1.999969
357,333.134966,62.806134,-22.766461,0.016480,-0.900404,1.999969
358,334.599832,73.609522,-20.263981,0.170657,-0.964614,1.575341
359,308.232242,86.366064,-19.775692,0.197391,-0.895033,1.551049
360,275.700008,82.459754,-18.799115,0.139162,-0.904677,1.868437
361,271.610590,74.097810,-19.043259,0.157595,-1.003433,1.999969
362,271.915770,75.745785,-21.545739,0.226078,-1.186542,1.842802
363,252.628367,85.694667,-26.062409,0.305425,-1.536645,1.452415
364,217.410544,99.610895,-30.884260,0.539559,-2.000031,1.040177
365,168.703746,113.282979,-36.865797,0.950088,-2.000031,0.673716
366,104.005493,134.828717,-48.950942,1.113787,-2.000031,0.262943
367,89.112688,150.881209,-66.224155,0.775158,-2.000031,-0.335943
368,74.830243,98.329137,-43.274586,0.392706,-2.000031,-1.156146
369,-18.127718,-27.038987,3.418021,0.084962,-2.000031,-0.657359
370,-79.163806,-129.518578,50.843061,0.028809,-1.757351,-0.412360
371,-202.822919,-203.433280,18.554971,1.325826,-1.812528,-0.550546
372,-179.140917,-149.721523,8.911269,0.304448,-0.750378,1.286397
373,-137.270161,-93.934539,3.540093,-0.453620,0.895888,1.925444
374,-127.992676,-89.784085,-3.112840,-0.711559,0.833509,1.370382
375,-272.404059,-99.305715,51.697566,-0.147951,0.303471,-0.158816
376,-348.393988,-89.417868,62.867170,0.689708,-0.498177,0.518074
377,-339.116503,-67.322805,50.354772,1.326192,-0.233768,1.999969
378,-243.839170,-19.287404,17.212177,1.210346,-0.332036,1.999969
379,-150.759136,12.207218,-20.508125,0.051759,-0.290166,1.999969
380,-148.805982,23.987182,0.854505,-1.483421,-0.170901,1.999969
381,-139.040208,-33.325704,43.640803,-1.248310,-0.572519,1.458396
382,-83.375296,-73.487449,44.068055,0.453254,-0.055909,1.148699
383,-89.478904,-64.637217,32.104982,1.327779,0.343633,1.999969
384,-78.004120,-5.615320,18.554971,0.198123,-0.100099,1.443870
385,-53.223468,-9.399557,18.127718,-0.799695,0.008545,1.030045
386,-63.721675,-47.119860,22.034028,0.201907,0.049073,1.254292
387,-49.073014,-29.053178,7.812619,0.453132,0.090333,1.549096
388,-46.997787,-5.676356,5.798428,-0.116457,-0.094850,1.134661
389,-33.203632,-10.070954,7.019150,-0.102907,-0.011353,1.183978
390,-28.747997,-12.512398,8.484016,0.114870,-0.020752,1.151263
391,-15.991455,-4.455634,4.150454,-0.041749,0.041016,1.050187
392,-20.569162,-5.554284,6.103609,0.007568,0.041993,1.062882
393,-14.526589,-4.455634,5.127031,-0.006470,0.054200,0.990860
394,-18.249790,-3.723201,4.577707,-0.034668,0.015381,0.938735
395,-18.127718,-6.042573,4.699779,-0.031128,0.019287,1.024186
396,-17.395285,-7.812619,4.577707,-0.021973,0.036378,1.005631
397,-19.104295,-7.202258,3.356985,-0.019776,0.003540,1.014542
398,-18.371862,-5.249104,2.685588,-0.001221,0.005737,1.025162
399,-19.165332,-2.624552,3.662165,0.016114,-0.001831,1.037491
400,-16.968032,1.037613,3.723201,-0.007568,-0.003784,1.022721
401,-18.005646,2.868696,4.577707,-0.025513,-0.005859,0.989151
402,-19.348440,2.502480,4.821851,-0.038697,-0.008667,1.016495
403,-16.662852,1.525902,4.394598,-0.041505,0.006104,0.993790
404,-17.273213,-0.305180,3.723201,-0.061891,0.000366,0.977798
405,-14.526589,-2.624552,1.403830,-0.082399,0.041382,0.992813
406,-11.108568,-4.333562,1.831083,-0.051514,0.026978,1.002823
407,-15.503166,-6.958114,1.831083,-0.067872,-0.025025,0.986343
408,-12.573434,-8.911269,0.854505,-0.042847,-0.028321,0.977310
409,-13.061723,-10.009918,0.732433,-0.039673,-0.011475,0.997330
410,-13.427939,-10.498207,0.488289,-0.094972,0.025147,1.099138
411,-11.902037,-12.634470,1.770047,-0.005249,0.047364,0.905409
412,-16.235599,-12.390326,1.464866,-0.025269,-0.031739,0.977310
413,-14.587625,-11.779965,1.220722,-0.026368,-0.045899,1.019303
414,-13.611048,-11.779965,1.464866,-0.019165,-0.043336,1.016983
415,-15.075914,-11.657893,2.258335,-0.018189,-0.026246,1.015396
416,-13.916228,-11.291676,2.929732,-0.013550,-0.005737,1.013565
417,-14.709697,-11.474784,3.051804,-0.022461,-0.037964,0.964858
418,-17.639429,-12.024109,2.502480,-0.016114,-0.040650,0.959487
419,-19.104295,-12.390326,2.258335,0.003418,-0.052491,1.003799
420,-17.151141,-11.169604,1.647974,0.009644,-0.049073,1.020768
421,-19.714656,-10.009918,2.685588,0.030884,-0.078370,0.995865
422,-22.888533,-9.094377,3.540093,0.015869,-0.032837,1.001358
423,-24.353399,-8.361944,4.333562,-0.009888,-0.047730,0.971939
424,-23.132677,-8.606088,3.418021,-0.020264,-0.020264,0.985611
425,-26.306554,-10.376135,2.319371,-0.015259,-0.029664,0.977920
426,-27.893492,-11.047532,0.488289,0.007813,-0.044068,0.991592
427,-28.809033,-10.681315,-0.915541,0.006592,-0.048951,0.996719
428,-29.663539,-9.948882,-1.770047,0.004273,-0.041627,1.003189
429,-33.264668,-10.131991,-1.892119,-0.005371,-0.039307,0.962051
430,-36.255436,-9.704738,-2.136263,-0.013794,-0.053468,0.912123
431,-43.152514,-10.315099,1.037613,0.057984,-0.073121,0.990494
432,-49.378195,-5.737392,5.249104,0.110109,-0.161379,1.086687
433,-39.002060,2.807660,7.812619,0.028687,-0.139773,1.065080
434,-34.668498,5.859464,8.850233,0.004395,-0.118776,1.003311
435,-35.828183,5.615320,8.606088,-0.054444,-0.067872,0.996475
436,-35.645075,3.173877,3.234913,-0.030640,-0.100832,0.936904
437,-35.828183,-1.159686,-1.098650,-0.133181,-0.047364,1.000748
438,-39.917601,-5.310140,-2.929732,0.007813,-0.164187,0.922133
439,-41.992828,1.586938,-19.897765,-0.058717,-0.010620,1.026261
440,-67.933165,-1.281758,-50.232700,0.030274,-0.236698,0.999283
441,-51.392386,4.516670,-35.767147,0.102419,-0.336675,1.102312
442,-24.231327,-5.188067,-9.704738,0.022217,-0.166629,1.077775
443,-40.650034,-8.972305,-10.864424,-0.035401,0.026123,0.987564
444,-62.745098,-8.056764,-19.592584,0.001099,0.183963,0.920424
445,-96.986343,-5.004959,-27.222095,0.112673,0.087160,0.929702
446,-129.457542,-6.652934,-14.648661,-0.014282,0.397711,0.755749
447,-172.915236,-24.048219,-37.903410,-0.023438,0.405158,0.593027
448,-295.170520,-33.569848,-41.870756,0.088380,1.196918,1.811551
449,-596.078431,-4.516670,-66.956588,0.146731,1.042985,1.881621
450,-762.829023,-33.752956,-47.058824,-0.575082,0.141726,1.207416
451,-903.089952,-111.390860,15.442130,-0.253544,-0.217533,0.896986
452,-983.230335,-191.226062,62.561990,0.119020,-2.000031,1.834134
453,-1082.169833,-212.405585,200.564584,-0.496956,-2.000031,1.999969
454,-178.347448,-114.137484,-63.660639,-0.358770,-1.888945,1.999969
455,291.020066,-60.425727,-65.430686,-0.556039,0.659312,1.999969
456,130.251011,-23.132677,-79.285878,-0.282719,1.145403,1.999969
457,-18.432898,-44.678416,6.042573,-0.823377,0.956680,1.616114
458,-65.918975,-76.966506,34.973678,-0.534798,0.311162,1.334493
459,67.200732,-41.260395,27.954528,-0.394781,0.324224,1.036271
460,146.669718,-14.709697,17.090105,-0.333989,0.536019,0.619394
461,98.023957,-11.963073,21.728847,-0.244633,0.495491,0.707774
462,91.004807,-7.019150,23.743038,-0.255253,0.305425,1.046647
463,149.538415,0.671397,19.226368,-0.278569,0.307744,1.164202
464,177.431907,-1.586938,19.592584,-0.250126,0.342901,1.120012
465,189.394980,-4.760815,21.057450,-0.183841,0.294316,1.148943
466,219.729915,2.014191,16.174563,-0.107179,0.258671,1.086564
467,239.749752,13.550011,9.582666,-0.059449,0.248173,1.022232
468,247.379263,22.949569,3.601129,-0.018921,0.173465,1.069108
469,263.370718,31.799802,-2.563516,-0.009522,0.096559,1.123186
470,281.132219,37.720302,-7.751583,0.031617,0.032959,1.157855
471,291.996643,40.711070,-10.742351,0.042969,-0.007813,1.262104
472,305.485618,40.955215,-13.672084,0.103029,-0.053956,1.383322
473,323.552300,41.748684,-18.127718,0.178470,-0.052003,1.505516
474,336.797131,42.359045,-25.024796,0.245975,-0.091066,1.564843
475,344.670787,46.753643,-35.156786,0.286381,-0.253544,1.314961
476,339.971008,61.097124,-47.913329,0.338628,-0.514412,0.822156
477,314.579995,84.657053,-59.876402,0.396246,-0.599130,0.610849
478,278.873884,97.352560,-66.712444,0.349981,-0.469978,0.774792
479,248.294804,85.999847,-74.647135,0.325689,-0.396979,1.181903
480,233.890288,78.736553,-77.637903,0.220951,-0.324590,1.801785
481,225.528344,76.844434,-76.722362,0.021851,-0.394171,1.999969
482,234.256504,80.628672,-71.046006,-0.141970,-0.560678,1.999969
483,256.778820,93.690394,-61.341268,-0.202884,-0.732067,1.999969
484,270.878157,100.587472,-46.082246,-0.281010,-0.825330,1.999969
485,284.733349,90.028229,-26.062409,-0.322637,-0.930678,1.999969
486,317.143511,79.957275,-7.263294,-0.260624,-1.055924,1.999969
487,332.158389,80.994888,9.277485,-0.164187,-1.062150,1.958404
488,313.664454,83.131151,22.949569,0.126589,-1.038590,1.707424
489,294.132906,87.464714,28.686961,0.253910,-1.058244,1.769924
490,276.981765,80.689708,30.823224,0.211307,-1.194598,1.853544
491,265.873198,72.205692,33.813993,0.140261,-1.472801,1.736843
492,247.623407,68.665599,37.842374,0.156985,-1.883207,1.331075
493,211.917296,74.341955,44.129091,0.399542,-2.000031,0.843030
494,159.670405,77.454795,43.701839,1.029557,-2.000031,0.517220
495,95.887694,97.535668,2.807660,1.546532,-2.000031,0.370489
496,79.163806,136.476692,-40.527962,1.188739,-2.000031,-0.107057
497,41.016251,108.461128,-36.926833,0.611093,-2.000031,-0.625498
498,-32.227054,7.568475,-4.882887,0.169558,-2.000031,-0.287968
499,-66.834516,-90.516518,27.283131,0.021241,-1.717556,0.521981
500,-88.502327,-148.867018,18.432898,0.642466,-1.994415,-2.000031
501,-178.957809,-98.573281,4.028382,0.045533,0.310796,1.480980
502,-202.212558,-99.427787,4.943923,-0.982071,0.341314,1.536645
503,-128.114748,-80.872816,4.760815,-1.198016,1.023331,1.720974
504,-211.673152,-92.164492,49.256123,-1.248310,0.138674,0.504646
505,-354.436561,-110.292210,101.564050,-0.419440,-0.626352,0.465583
506,-297.489891,-94.544900,127.809567,1.069841,-0.388922,1.999969
507,-237.613489,-57.373922,79.407950,1.999969,0.128054,1.999969
508,-200.259403,-29.297322,36.865797,1.999969,0.094362,1.999969
509,-149.172198,9.338521,-11.108568,0.992081,0.111940,1.581323
510,-162.539101,31.494621,-20.691234,-0.663951,-0.139895,1.613550
511,-167.605097,0.610361,17.639429,-2.000031,-0.704234,1.901640
512,-98.634318,-89.662013,53.894865,-1.147356,-0.499031,0.807507
513,-81.239033,-134.645609,42.114900,1.286397,0.329351,1.999969
514,-80.750744,-70.069429,18.921187,1.473045,0.091798,1.999969
515,-57.740139,-10.193027,8.911269,-0.737316,0.147585,1.143450
516,-72.388800,-55.664912,13.611048,-0.191775,0.051514,1.191302
517,-46.997787,-48.096437,1.831083,0.673106,0.172000,1.648951
518,-51.087205,-14.770733,2.563516,-0.109865,-0.108278,1.140887
519,-23.376822,-23.437858,0.488289,-0.151858,-0.005249,1.051286
520,-23.010605,-23.132677,-1.220722,0.283085,0.133669,1.146868
521,-30.945296,-12.207218,3.723201,0.002930,-0.038209,1.134051
522,-13.366903,-7.080186,0.671397,0.088502,-0.002930,0.972671
523,-20.996414,-2.746624,3.356985,0.091066,0.016114,1.045792
524,-21.362631,2.258335,3.601129,0.048219,-0.019776,0.959121
525,-19.714656,3.295949,4.699779,0.052613,-0.003906,1.044450
526,-19.714656,5.004959,4.821851,0.030030,0.000610,1.015763
527,-18.738079,5.737392,3.906310,0.037232,0.008789,1.000992
528,-23.315785,5.859464,3.906310,0.003540,0.004150,1.026749
529,-22.095064,4.760815,3.234913,-0.014649,-0.023682,1.019669
530,-16.784924,4.638743,2.685588,0.006104,-0.019898,1.001480
531,-15.503166,4.394598,2.441444,0.003662,-0.030396,0.999405
532,-14.648661,3.295949,2.990768,-0.002319,-0.023926,1.005264
533,-11.902037,2.197299,2.563516,-0.014893,-0.011719,0.984878
534,-12.817578,0.183108,2.197299,-0.012940,-0.025757,0.976089
535,-13.183795,-1.647974,1.892119,-0.001831,-0.022461,0.998550
536,-13.427939,-2.929732,1.525902,-0.011597,-0.035767,0.979141
537,-12.268254,-3.967346,1.159686,0.011231,-0.061891,0.957778
538,-11.657893,-4.943923,1.342794,-0.021363,-0.000366,1.032975
539,-10.742351,-6.286717,1.159686,0.008789,-0.047364,1.011490
540,-9.460594,-6.408789,0.549325,0.015747,-0.060426,0.960830
541,-10.864424,-6.347753,0.488289,0.019898,-0.050538,0.990860
542,-11.902037,-5.859464,1.098650,0.010742,-0.022583,1.019913
543,-9.643702,-5.371176,0.854505,0.013184,-0.035157,0.969009
544,-12.024109,-5.981537,0.549325,0.028199,-0.041138,0.959243
545,-14.160372,-6.042573,0.366217,0.015015,-0.050904,0.967056
546,-15.442130,-6.713970,-0.244144,0.011231,-0.045167,0.990494
547,-17.761501,-7.446403,-0.427253,0.012085,-0.031739,1.011368
548,-17.944610,-6.958114,-0.244144,0.021607,-0.059083,1.010025
549,-16.540780,-6.347753,-0.366217,0.009400,-0.052735,1.005509
550,-16.845960,-5.981537,-0.183108,0.020630,-0.053712,0.995010
551,-17.395285,-6.164645,-0.244144,-0.001587,-0.047486,0.985489
552,-21.179522,-7.263294,-0.244144,0.015503,-0.015015,0.964858
553,-27.710384,-7.690547,0.305180,0.026978,-0.057984,1.031632
554,-27.466239,-6.591897,0.549325,0.033204,-0.075685,1.024063
555,-24.841688,-5.493248,0.000000,0.027466,-0.049928,0.962173
556,-32.715343,-5.676356,0.366217,0.020508,-0.044068,0.967300
557,-32.959487,-6.225681,0.305180,0.028565,-0.059083,0.999161
558,-33.569848,-1.709010,2.014191,-0.010742,-0.100954,0.957412
559,-47.486076,1.831083,6.713970,0.093141,-0.079469,0.985122
560,-52.307927,5.310140,9.399557,0.009888,-0.108888,1.021256
561,-48.096437,6.897078,9.399557,0.043824,-0.127810,1.012222
562,-50.110628,7.568475,8.484016,-0.035035,-0.110597,1.024430
563,-47.180896,3.662165,2.807660,-0.058717,-0.103883,0.953262
564,-43.640803,-0.793469,-2.807660,-0.062623,-0.052247,1.001846
565,-46.875715,-1.464866,-11.291676,0.000732,-0.111696,1.117449
566,-48.462654,-9.521630,-35.095750,-0.046143,-0.312383,0.989883
567,-50.354772,-0.610361,-35.889220,0.146242,-0.274662,1.076555
568,-43.579767,3.295949,-23.315785,0.105837,-0.312993,1.086198
569,-27.954528,-0.427253,-8.850233,0.062501,-0.229007,1.077043
570,-25.146868,-1.098650,-8.361944,0.038209,-0.018311,1.040055
571,-41.382467,4.943923,-19.714656,0.032227,0.221683,0.843519
572,-88.624399,8.972305,-22.034028,0.176516,0.272831,0.961685
573,-149.904631,18.677043,-20.080873,-0.060914,0.469978,0.610117
574,-189.639124,-3.845274,-21.484703,-0.070069,0.377813,0.539193
575,-319.768063,-26.672770,-32.471199,0.004761,1.106462,1.384909
576,-586.373693,-11.718929,-35.339895,0.023560,1.092424,1.969879
577,-797.192340,-50.110628,11.169604,-0.627085,-0.077638,1.430076
578,-915.846494,-87.891966,80.567636,0.090944,-0.137942,1.097185
579,-981.582361,-106.385901,86.243992,0.851209,-2.000031,1.999969
580,-1083.756771,-92.225528,191.409171,-0.654429,-0.536995,1.999969
581,-110.048066,-46.448463,-65.125505,-0.263798,-1.622705,1.999969
582,315.190356,31.799802,-74.586099,-0.334478,0.985977,1.999969
583,184.756237,25.574121,-79.407950,-0.321782,1.054704,1.429343
584,20.752270,-5.127031,-3.112840,-0.745373,0.839857,0.934463
585,-63.599603,-58.899825,26.672770,-0.470222,0.472175,0.664317
586,21.850919,-45.532921,29.480430,-0.304082,0.351812,0.617319
587,105.104143,-26.550698,15.075914,-0.250126,0.483894,0.581552
588,72.083619,-25.085832,17.212177,-0.156497,0.530648,0.706676
589,69.092851,-22.827497,16.662852,-0.141970,0.391363,0.986954
590,124.025330,-17.578393,8.728161,-0.089479,0.463264,1.115373
591,148.561837,-21.911955,2.807660,-0.016968,0.531624,1.122820
592,163.820859,-28.931106,-4.516670,0.046143,0.477913,1.205219
593,198.184176,-24.902724,-17.334249,0.090700,0.418830,1.200946
594,223.086900,-13.000687,-31.250477,0.093629,0.365850,1.181659
595,237.491417,2.319371,-42.298009,0.054322,0.251347,1.158465
596,257.572290,16.113527,-51.270314,0.006226,0.149783,1.146746
597,275.028611,25.146868,-56.458381,-0.039918,0.063844,1.165179
598,286.808576,30.640116,-57.679103,-0.039307,-0.035279,1.147356
599,299.626154,34.058137,-58.350500,-0.032593,-0.079835,1.201190
600,311.650263,30.640116,-56.824598,-0.010254,-0.106569,1.169696
601,319.523919,22.400244,-56.336309,0.058717,-0.109255,1.145281
602,317.448692,19.775692,-61.280232,0.156130,-0.188479,1.046769
603,306.401160,36.499580,-71.839475,0.208621,-0.355718,0.811658
604,284.306096,69.153887,-80.506600,0.185061,-0.420905,0.795544
605,251.102464,90.943771,-83.009079,0.153201,-0.380987,1.034806
606,234.866865,97.535668,-84.840162,0.123049,-0.303716,1.365133
607,227.542535,101.197833,-82.887007,-0.012696,-0.211917,1.999969
608,216.739147,103.089952,-71.168078,-0.150393,-0.277836,1.999969
609,244.449531,103.517205,-55.237659,-0.191531,-0.516487,1.999969
610,304.875258,102.052338,-39.856565,-0.145876,-0.581674,1.999969
611,326.787213,92.896925,-22.766461,-0.078126,-0.613046,1.999969
612,337.102312,86.488136,-9.338521,-0.001709,-0.752209,1.999969
613,354.924849,93.385214,-1.464866,0.127932,-0.834852,1.999969
614,349.004349,101.319905,2.990768,0.382086,-0.891005,1.999969
615,335.210193,109.620813,0.976577,0.617807,-0.861341,1.978424
616,317.570764,103.822385,-5.920500,0.475959,-0.961318,1.999969
617,299.320974,90.150301,-7.629511,0.444709,-1.148089,1.970001
618,281.986725,84.901198,-8.850233,0.386236,-1.500023,1.672023
619,239.688716,90.699626,-8.911269,0.384161,-2.000031,1.249165
620,172.854200,109.803922,-7.629511,0.714977,-2.000031,0.865003
621,78.431373,142.458228,-27.283131,1.195209,-2.000031,0.587045
622,60.486763,196.902419,-54.016938,1.136492,-2.000031,-0.109255
623,106.874189,178.957809,-60.791943,0.640635,-2.000031,-1.257099
624,21.484703,51.941711,-22.766461,0.116213,-2.000031,-1.385641
625,-124.696727,-112.794690,56.885634,-0.113527,-1.986481,0.241215
626,-132.021057,-196.292058,86.549172,0.906752,-1.635645,-1.796292
627,-217.227436,-161.074235,20.935378,0.890883,-0.202029,1.999969
628,-157.289998,-102.174411,3.906310,-0.414679,-0.392218,1.175189
629,-93.812467,-102.845808,11.047532,-0.690562,1.075944,1.241108
630,-166.384375,-110.658427,15.197986,-1.078996,0.145754,0.448981
631,-329.045548,-87.769894,83.924620,-0.302617,-0.184451,-0.802625
632,-371.892882,-80.323491,118.043793,0.970474,-0.558480,0.820447
633,-358.098726,-53.528649,81.605249,1.999969,-0.257939,1.999969
634,-241.397726,22.522316,22.583352,1.683619,-0.227543,1.999969
635,-167.788205,-9.521630,-3.662165,-0.596933,-0.300908,1.999969
636,-109.864958,-26.123445,37.048905,-1.900542,-1.008194,1.777859
637,-17.273213,-96.925307,29.358358,0.158694,0.171267,1.402731
638,-61.158160,-71.107042,33.752956,1.788846,0.460334,1.612451
639,-62.317845,10.315099,16.174563,0.056764,0.010986,1.638941
640,-49.195087,-11.108568,19.592584,-0.916884,-0.241581,0.883680
641,-19.714656,-51.453422,9.155413,0.344244,0.302251,1.313619
642,-36.255436,-30.395972,3.540093,0.410773,0.128908,1.245747
643,-28.564889,-13.855192,1.647974,-0.320073,-0.068727,1.094255
644,-20.752270,-26.672770,2.380407,0.051881,-0.001587,1.111833
645,-11.596857,-19.470512,1.342794,0.107301,0.095827,1.114153
646,-16.296635,-10.254063,1.220722,-0.031250,0.008789,0.946181
647,-14.770733,-11.108568,2.746624,0.068971,0.059327,1.086442
648,-13.672084,-4.211490,2.502480,0.010498,0.080690,0.984512
649,-19.714656,-1.831083,4.150454,-0.003662,0.073610,0.998306
650,-21.911955,-0.183108,4.333562,0.007446,0.055055,1.040299
651,-22.461280,2.197299,4.394598,0.011963,0.040162,1.038224
652,-22.217136,4.150454,4.882887,0.026856,0.023438,1.035050
653,-20.752270,6.530861,5.249104,-0.014649,0.033936,1.002579
654,-21.179522,5.981537,5.249104,-0.051026,0.028687,0.975967
655,-22.339208,5.188067,3.051804,-0.011719,0.029541,1.052018
656,-18.677043,3.601129,3.540093,-0.017090,-0.038087,1.038590
657,-18.799115,1.281758,3.906310,-0.040894,-0.008789,0.974502
658,-15.442130,-0.061036,3.234913,-0.042725,0.008057,0.997330
659,-17.395285,-2.075227,3.234913,-0.039673,-0.005249,1.021256
660,-14.953841,-3.967346,2.563516,-0.037720,-0.007935,1.009537
661,-11.169604,-4.821851,1.464866,-0.044923,-0.010864,0.989395
662,-9.765774,-6.897078,1.464866,-0.024170,-0.011597,1.032486
663,-4.150454,-6.103609,-0.610361,-0.055787,-0.031739,0.940566
664,-5.249104,-7.751583,1.098650,-0.019165,0.048829,1.016739
665,-9.094377,-9.338521,2.746624,-0.038697,0.011109,0.995254
666,-8.300908,-11.291676,2.014191,-0.057130,0.016968,0.935561
667,-13.672084,-14.160372,1.892119,-0.027588,0.011719,0.978531
668,-15.869383,-13.794156,0.976577,0.003784,-0.035767,0.997818
669,-11.718929,-10.681315,-0.183108,0.088746,-0.090089,0.857435
670,-11.047532,-11.474784,0.427253,-0.029664,0.027466,1.070939
671,-18.005646,-13.488975,1.525902,-0.015015,-0.000122,0.988418
672,-17.944610,-13.733120,1.464866,0.012818,-0.050172,0.965347
673,-19.348440,-13.672084,0.976577,-0.005859,-0.037476,0.950698
674,-20.752270,-14.465553,0.915541,0.002930,-0.067018,0.964981
675,-20.080873,-14.709697,0.671397,0.006104,-0.044800,0.975601
676,-21.606775,-14.038300,0.305180,0.011475,-0.029664,0.982925
677,-24.475471,-13.305867,1.220722,0.002075,-0.006836,0.996231
678,-26.245518,-12.756542,1.647974,0.028443,-0.009277,0.949355
679,-33.020523,-11.841001,1.831083,0.038819,-0.022095,1.006973
680,-35.706111,-9.826810,2.746624,0.024048,-0.068849,1.061540
681,-29.480430,-6.713970,3.234913,0.093141,-0.037964,1.028336
682,-33.936065,-3.356985,2.685588,-0.015991,-0.055665,1.005386
683,-33.508812,-3.418021,3.418021,0.052247,-0.031617,0.982071
684,-35.523003,-2.197299,2.014191,0.003662,-0.005371,0.927749
685,-41.626612,-1.892119,2.685588,0.018921,-0.003662,0.931533
686,-54.444190,-3.845274,5.920500,-0.020508,-0.076173,0.924941
687,-52.796216,-2.563516,7.934691,0.076173,-0.070192,1.176165
688,-51.758602,2.807660,4.699779,0.017090,-0.111696,1.027970
689,-50.110628,3.601129,5.004959,0.015259,-0.112917,1.005386
690,-49.500267,3.295949,2.441444,-0.017090,-0.064332,0.972671
691,-46.692607,0.427253,-1.159686,-0.092775,-0.077760,1.033097
692,-50.904097,-4.577707,-5.432212,-0.190555,0.087037,1.283711
693,-49.927520,-9.338521,-19.043259,-0.095338,-0.103883,1.000259
694,-58.411536,-7.507439,-33.508812,0.052491,-0.107424,0.903212
695,-64.332036,0.793469,-30.090791,0.126101,-0.306401,1.081437
696,-53.223468,0.122072,-18.371862,0.076295,-0.333623,1.056168
697,-29.907683,-2.990768,-8.117800,0.051392,-0.251957,1.043107
698,-26.123445,-2.319371,-7.629511,0.048829,-0.068116,1.041520
699,-46.387427,3.173877,-14.648661,-0.023926,0.070802,0.946792
700,-84.596017,4.821851,-17.456321,0.134401,0.112428,1.008927
701,-121.644923,13.916228,-14.160372,0.020264,0.311528,0.633921
702,-126.283665,0.854505,-12.329290,-0.021851,0.525887,0.913588
703,-196.108949,-27.344167,-29.053178,-0.181521,0.683360,1.311666
704,-397.589075,-28.320745,-27.283131,0.264775,1.348043,1.525658
705,-685.191119,-13.244831,-23.376822,-0.503548,1.099748,1.999969
706,-871.534295,-73.853666,38.025483,-0.305058,-0.102174,1.467185
707,-977.920195,-80.872816,96.986343,0.141238,0.246586,0.753796
708,-1061.600671,-113.954376,81.788357,1.733913,-2.000031,1.999969
709,-873.182269,-86.243992,160.280766,-0.841444,-1.503929,1.999969
710,91.248951,-65.186542,-111.512932,-0.162356,-0.408209,1.999969
711,382.207980,-5.615320,-94.850080,-0.522225,1.314351,1.999969
712,192.568856,-10.925460,-111.451896,-0.185306,1.208392,1.571801
713,20.202945,-45.166705,-38.147555,-0.783337,0.601572,0.881361
714,-29.663539,-79.957275,-6.836042,-0.496956,0.493660,0.683360
715,63.172351,-53.223468,-15.259022,-0.426032,0.167605,0.559701
716,128.786145,-32.837415,-17.517357,-0.420539,0.416999,0.491218
717,87.220569,-29.663539,-7.690547,-0.398322,0.439826,0.806287
718,94.056611,-24.048219,-1.098650,-0.426764,0.318608,1.230365
719,156.923781,-19.836728,0.244144,-0.409186,0.371344,1.345480
720,188.845655,-25.024796,3.784237,-0.348638,0.409796,1.297383
721,209.842069,-25.452049,4.882887,-0.254765,0.338262,1.295674
722,242.862593,-12.939651,-0.854505,-0.160281,0.271733,1.158709
723,260.502022,4.211490,-8.239872,-0.109865,0.213504,1.090105
724,268.741894,17.883574,-13.977264,-0.082277,0.111086,1.068986
725,286.381323,26.367590,-20.386053,-0.035035,0.034180,1.025040
726,299.259937,27.405203,-26.123445,0.016358,0.006348,1.054093
727,303.532464,25.452049,-31.250477,0.094118,-0.010132,1.240986
728,314.335851,25.391012,-39.002060,0.149905,-0.042237,1.395529
729,327.519646,30.029755,-50.598917,0.147219,-0.187503,1.176532
730,324.956130,50.171664,-65.735866,0.091554,-0.479744,0.637705
731,296.574350,96.131838,-69.336996,0.050050,-0.620737,0.452277
732,247.196155,121.583886,-64.087892,0.134401,-0.482551,0.581186
733,216.861219,110.536355,-64.698253,0.171145,-0.333623,1.291646
734,206.118868,98.512245,-63.721675,0.090944,-0.383673,1.980987
735,215.396353,104.127565,-57.007706,0.055543,-0.486458,1.999969
736,231.326772,106.202792,-49.500267,-0.006958,-0.552499,1.999969
737,244.754711,102.174411,-39.490349,-0.008057,-0.759655,1.999969
738,260.868238,103.639277,-30.090791,0.052735,-0.924697,1.999969
739,261.661707,101.136797,-19.836728,0.062013,-0.924331,1.999969
740,265.079728,89.417868,-9.582666,0.087037,-1.029435,1.999969
741,290.653849,83.802548,-2.990768,0.072999,-0.975723,1.999969
742,300.724804,77.393759,5.249104,0.151980,-0.888685,1.999969
743,306.218051,73.731594,8.850233,0.457404,-0.842298,1.893706
744,314.518959,81.605249,2.746624,0.806409,-0.691051,1.646143
745,296.574350,83.802548,-8.728161,0.814954,-0.689220,1.613794
746,281.010147,70.130465,-15.625238,0.663828,-0.795911,1.676905
747,273.807889,49.988556,-19.592584,0.440803,-1.002213,1.653590
748,258.548867,38.757916,-21.911955,0.204837,-1.370260,1.444358
749,231.448844,45.593957,-22.766461,0.017212,-1.904204,1.015640
750,187.197681,68.299382,-21.606775,0.073365,-2.000031,0.627695
751,128.419928,94.544900,-12.634470,0.511482,-2.000031,0.236698
752,70.984970,102.601663,-14.221408,0.795056,-2.000031,-0.041016
753,32.837415,85.694667,-22.217136,0.739757,-2.000031,-0.132815
754,8.606088,24.170291,1.342794,0.551522,-2.000031,-0.115480
755,-44.922560,-67.627985,23.498894,0.579599,-2.000031,-2.000031
756,-230.411231,-154.055085,50.171664,1.013443,-1.717922,-0.168704
757,-235.049973,-135.988403,17.212177,0.501472,-0.977920,1.421530
758,-105.165179,-74.280919,-15.625238,-0.394903,1.087419,1.999969
759,-111.757076,-60.303655,-7.446403,-0.938613,1.039322,0.817762
760,-256.046387,-69.825284,35.523003,-1.042618,0.313970,-1.147967
761,-429.083696,-88.990616,78.248264,-0.159670,-0.672740,1.033097
762,-429.388876,-52.857252,103.089952,1.252216,-0.896986,1.999969
763,-198.794537,12.329290,40.466926,1.950958,-0.342046,1.999969
764,-131.105516,42.298009,-15.320058,0.767712,0.111208,1.999969
765,-155.947204,21.484703,-0.854505,-1.499290,-0.375494,1.999969
766,-91.126879,-28.992142,35.217823,-1.830106,-0.544808,0.810071
767,-82.093538,-104.127565,56.153201,0.349371,0.274907,1.406271
768,-87.647822,-91.920348,39.734493,1.914336,0.258061,1.999969
769,-47.791257,-15.808347,11.718929,-0.023438,-0.064820,1.439597
770,-54.322118,-31.982910,25.635157,-0.821912,-0.100099,0.873548
771,-45.410849,-65.186542,17.456321,0.386725,0.207156,1.210101
772,-52.735180,-37.964446,7.019150,0.477424,0.210330,1.283711
773,-66.590372,-17.761501,7.568475,-0.250980,-0.084596,1.047379
774,-51.148241,-30.579080,5.554284,0.006714,-0.017700,1.446921
775,-36.133364,-21.179522,1.342794,0.172000,-0.029419,1.180560
776,-33.142596,-12.268254,2.685588,-0.007446,0.011231,1.117449
777,-30.334936,-8.850233,2.136263,0.077150,-0.006592,1.030167
778,-28.198672,-4.272526,2.136263,0.044556,0.032715,1.022843
779,-32.104982,-2.502480,4.028382,0.011475,-0.005615,1.076677
780,-27.283131,-0.549325,4.028382,0.053223,0.015747,1.080461
781,-26.367590,3.051804,4.821851,0.010132,-0.006104,1.065690
782,-24.597543,7.629511,2.258335,0.108888,-0.239384,0.665660
783,-20.386053,7.446403,3.784237,-0.012818,-0.018677,1.135393
784,-23.010605,7.995727,6.164645,-0.005249,-0.014282,1.016373
785,-18.432898,8.545052,5.432212,-0.029297,-0.017456,1.000015
786,-17.700465,8.239872,5.127031,-0.014038,-0.007813,1.014298
787,-17.883574,8.117800,5.249104,-0.042847,-0.020386,1.006363
788,-14.770733,6.652934,4.272526,-0.022217,-0.019287,0.986954
789,-15.136950,5.310140,3.662165,-0.054688,-0.016968,0.973037
790,-17.090105,1.525902,2.990768,-0.063966,-0.018555,0.973281
791,-16.784924,-2.075227,2.014191,-0.052247,-0.024048,0.974014
792,-15.564202,-4.760815,1.037613,-0.043336,-0.028077,0.962783
793,-16.052491,-6.530861,0.244144,-0.040406,-0.023316,1.000015
794,-15.381094,-5.554284,-1.342794,0.052613,-0.054322,0.936294
795,-11.535821,-5.859464,-1.647974,-0.052003,-0.036378,1.108171
796,-16.174563,-7.629511,0.488289,-0.011109,-0.067628,0.997818
797,-9.094377,-6.408789,0.000000,-0.021241,-0.066651,1.004044
798,-9.338521,-6.775006,0.000000,-0.022950,-0.056397,1.011734
799,-8.545052,-6.652934,0.244144,-0.012696,-0.032959,1.000259
800,-10.009918,-6.958114,0.305180,-0.039673,-0.034302,0.966201
801,-13.122759,-8.178836,0.915541,-0.002808,-0.051392,0.988663
802,-13.977264,-6.530861,-0.244144,0.124514,-0.130007,0.824109
803,-9.094377,-6.286717,0.122072,-0.009644,-0.026123,1.118914
804,-12.573434,-6.591897,2.380407,-0.018067,-0.067750,0.972427
805,-12.207218,-6.958114,2.929732,-0.020630,-0.039185,0.977920
806,-13.550011,-8.300908,3.356985,-0.015503,-0.026001,0.952407
807,-18.371862,-9.826810,2.990768,-0.025025,-0.024537,0.960098
808,-19.897765,-11.841001,2.014191,-0.042603,-0.031739,0.951186
809,-23.498894,-14.343481,0.976577,0.006958,-0.042969,0.972427
810,-26.672770,-13.794156,-0.488289,-0.017945,-0.039796,0.984634
811,-26.611734,-13.916228,-2.563516,0.017945,-0.032593,0.993668
812,-32.288090,-13.427939,-3.418021,-0.008545,-0.041260,0.957656
813,-35.278859,-13.977264,-5.065995,-0.008423,-0.040406,0.956558
814,-39.856565,-14.282444,-4.821851,-0.027955,-0.049928,0.977798
815,-41.992828,-14.770733,-2.502480,0.023560,-0.055543,0.989639
816,-47.119860,-14.892805,1.647974,0.002930,-0.109621,1.007218
817,-46.265354,-10.437171,4.028382,0.092164,-0.130617,1.073869
818,-42.298009,-4.516670,3.540093,0.011597,-0.119631,1.038468
819,-43.884947,-3.784237,2.929732,0.021851,-0.119142,0.993790
820,-44.678416,-4.882887,2.929732,-0.045533,-0.077394,1.032120
821,-35.584039,-5.004959,-7.385367,-0.129641,0.021729,0.988174
822,-36.438544,-9.521630,-17.517357,-0.038941,-0.225711,1.040299
823,-41.382467,-11.779965,-16.662852,-0.063233,0.030640,1.066056
824,-71.839475,-10.864424,-28.870069,0.058717,-0.194339,0.959609
825,-64.515145,-3.479057,-18.860151,0.108522,-0.357305,1.124773
826,-34.058137,-8.178836,-3.356985,0.089723,-0.244022,1.097795
827,-24.475471,-6.225681,-7.446403,0.045655,-0.093263,1.021622
828,-40.650034,-2.197299,-14.587625,0.032959,0.164431,0.964981
829,-84.473945,1.953155,-20.447089,0.103273,0.234379,1.017350
830,-126.161593,12.878614,-32.043946,0.015869,0.242802,0.666026
831,-152.529183,0.610361,-36.682689,0.188724,0.492927,0.394781
832,-201.113909,-35.584039,-27.100023,-0.022095,0.602670,1.141985
833,-477.363241,-14.892805,-41.382467,0.403326,1.533227,1.999969
834,-684.397650,-16.906996,-40.833143,-0.467048,0.866590,1.858183
835,-851.026169,-73.975738,14.343481,-0.122927,0.141482,1.498070
836,-952.162966,-101.930266,51.636530,-0.041138,-0.118410,0.632944
837,-1105.424582,-159.304189,95.338369,1.148333,-2.000031,1.999969
838,-689.585718,-83.070115,162.233921,-1.207050,-1.558251,1.999969
839,172.060731,-75.745785,-71.290150,-0.322759,0.325566,1.999969
840,377.569238,-18.432898,-63.721675,-0.700816,1.147723,1.999969
841,161.196307,5.127031,-66.895552,-0.427131,0.776257,1.526513
842,-6.652934,-24.414435,25.879301,-0.678477,0.575814,0.525887
843,-50.598917,-43.396658,35.889220,-0.403326,0.181277,0.614389
844,77.637903,-8.545052,28.747997,-0.409674,0.133669,0.548592
845,129.152361,-0.427253,25.818265,-0.290166,0.409430,0.300664
846,73.487449,-10.070954,36.255436,-0.219608,0.374762,0.471565
847,81.177996,-13.366903,38.391699,-0.158938,0.271489,0.814466
848,133.974212,-10.376135,31.433585,-0.046387,0.398810,0.962295
849,146.974899,-14.831769,26.001373,-0.007935,0.439094,1.092058
850,163.088426,-13.550011,19.409476,0.009400,0.361334,1.316304
851,201.602197,-4.150454,8.239872,0.029541,0.312383,1.410666
852,228.885328,3.234913,0.061036,-0.040772,0.223758,1.429343
853,251.712825,7.934691,-4.516670,-0.091554,0.094362,1.455711
854,280.094606,12.390326,-6.836042,-0.139773,-0.042847,1.349142
855,301.823453,14.770733,-6.652934,-0.179202,-0.148440,1.210468
856,313.603418,16.418708,-4.089418,-0.168826,-0.233890,1.076921
857,318.425269,18.005646,-1.770047,-0.127810,-0.264286,1.067277
858,318.669413,18.005646,-0.793469,-0.058595,-0.280156,1.118547
859,319.584955,16.540780,-2.624552,0.019776,-0.288701,1.193378
860,320.561532,17.090105,-8.972305,0.115358,-0.329107,1.155169
861,313.237202,29.541466,-20.813306,0.213138,-0.433845,0.986587
862,294.743267,51.331350,-33.752956,0.311894,-0.489021,0.880018
863,269.535363,62.745098,-46.753643,0.284062,-0.417243,1.111833
864,249.637598,55.725948,-58.472572,0.310674,-0.372808,1.394308
865,244.998856,51.026169,-71.656367,0.262943,-0.333623,1.761624
866,238.467994,56.519417,-80.262455,0.126955,-0.409796,1.999969
867,240.543221,67.322805,-82.398718,-0.050904,-0.580941,1.999969
868,253.665980,72.266728,-77.821012,-0.164309,-0.656138,1.999969
869,266.788739,70.191501,-68.482490,-0.220829,-0.709361,1.999969
870,285.954070,65.735866,-58.533608,-0.137331,-0.797986,1.999969
871,309.880217,73.060197,-53.955901,0.077516,-0.859876,1.999969
872,303.227283,85.816739,-51.758602,0.256229,-0.849134,1.804593
873,282.291905,89.112688,-51.392386,0.345342,-0.862684,1.740627
874,274.296178,82.459754,-53.345541,0.412116,-0.856458,1.720851
875,264.713512,71.778439,-57.495995,0.480354,-0.879652,1.686793
876,249.576562,68.665599,-64.087892,0.468635,-1.024674,1.605005
877,231.387808,72.388800,-69.947356,0.336553,-1.302388,1.435203
878,207.156481,77.027543,-70.801862,0.205936,-1.716457,1.169818
879,174.868391,80.323491,-63.172351,0.272221,-2.000031,0.748913
880,131.898985,84.718090,-52.491035,0.494148,-2.000031,0.502937
881,82.703899,90.760662,-48.157473,0.629038,-2.000031,0.145754
882,65.980011,83.924620,-47.302968,0.524300,-2.000031,-0.365484
883,32.715343,36.499580,-19.226368,0.275151,-2.000031,-0.584970
884,-48.462654,-40.650034,15.442130,-0.178225,-2.000031,-2.000031
885,-182.070649,-174.807355,68.421454,0.222171,-2.000031,-0.868177
886,-279.789426,-241.947051,76.783398,0.706310,-1.467063,1.248310
887,-129.213397,-102.906844,50.354772,0.207034,0.155764,1.999969
888,-118.837263,-35.095750,43.762875,-0.299565,1.075334,1.552392
889,-206.912337,-90.943771,69.581140,0.117189,0.671275,0.312505
890,-306.584268,-101.319905,72.999161,0.708995,-0.492683,0.469856
891,-295.658808,-59.388113,66.529335,1.027604,-0.232425,1.900420
892,-268.925002,-38.635843,43.274586,1.283833,-0.059327,1.999969
893,-199.465934,7.324331,13.733120,0.704723,-0.361700,1.999969
894,-142.641337,8.667124,-4.760815,-0.369024,-0.221805,1.591577
895,-169.253071,-30.457008,32.471199,-1.665675,-0.380133,1.999969
896,-114.930953,-110.658427,61.280232,-0.733776,-0.511360,0.913344
897,-82.337682,-150.576028,43.579767,1.457053,0.466194,1.999969
898,-93.568322,-74.402991,16.296635,1.664820,-0.163088,1.999969
899,-46.997787,-6.530861,6.347753,-0.754284,0.125002,1.155047
900,-68.360418,-54.383154,12.085145,-0.240116,-0.018555,1.153582
901,-38.574807,-52.613108,-0.366217,0.746105,0.179568,1.773831
902,-37.354086,-16.479744,2.685588,-0.079835,-0.010376,1.121477
903,-23.743038,-22.461280,3.234913,-0.128176,-0.056397,1.148943
904,-6.958114,-26.184482,0.183108,0.122805,0.111452,0.997086
905,-22.583352,-20.691234,0.549325,0.012573,0.019287,1.090105
906,-16.357671,-19.348440,1.403830,0.013306,-0.018433,1.052384
907,-10.315099,-15.014878,1.098650,0.098878,0.075807,0.991836
908,-20.141909,-9.094377,2.990768,0.051148,-0.047364,0.969375
909,-18.921187,-7.019150,4.028382,0.046387,0.019287,1.035904
910,-20.019837,-4.211490,3.601129,0.077028,0.021729,1.019181
911,-21.850919,-1.892119,4.028382,0.046265,-0.115480,1.007584
912,-16.174563,-0.732433,3.784237,0.058839,-0.050294,0.965469
913,-15.747311,-0.488289,3.234913,0.019776,0.007568,0.993179
914,-19.592584,-2.441444,2.929732,-0.005371,-0.016724,1.059831
915,-11.963073,-1.831083,2.014191,0.027466,-0.064942,1.051774
916,-10.315099,-1.586938,1.647974,0.044068,-0.060182,0.936782
917,-12.329290,-1.098650,1.647974,0.015137,0.047242,1.022843
918,-11.902037,-0.854505,2.014191,0.036255,-0.000610,0.936294
919,-15.564202,-1.342794,2.014191,0.012329,0.042725,1.001602
920,-19.409476,-1.892119,2.197299,0.022339,0.010254,1.009537
921,-16.723888,-1.953155,1.831083,0.019287,0.033814,1.016861
922,-16.968032,-2.075227,1.709010,0.015747,0.005859,1.013199
923,-18.432898,-2.685588,1.220722,0.021485,-0.045167,0.969375
924,-18.860151,-3.723201,1.342794,0.020996,-0.033448,0.974502
925,-19.958801,-4.455634,1.342794,0.034913,-0.030152,0.986831
926,-22.217136,-5.249104,1.464866,0.015869,-0.047486,0.975235
927,-20.508125,-6.408789,1.220722,0.022583,-0.040772,0.987320
928,-20.691234,-7.019150,1.159686,0.013062,-0.013550,0.962905
929,-22.949569,-8.239872,0.854505,0.030762,-0.024659,0.977310
930,-25.329976,-9.033341,-0.122072,0.040040,-0.032715,0.986831
931,-28.442817,-8.789197,0.122072,0.057008,-0.080079,1.011734
932,-21.728847,-6.713970,0.183108,0.066529,-0.075319,1.025772
933,-22.705425,-4.577707,1.342794,0.075074,-0.092164,1.023453
934,-19.592584,-2.319371,2.258335,0.047608,-0.073732,0.981338
935,-19.592584,-1.831083,2.990768,0.038331,-0.044800,0.984024
936,-23.376822,-2.929732,3.234913,0.038453,-0.029786,1.038468
937,-24.353399,-2.380407,2.014191,0.011841,-0.113405,0.970840
938,-27.954528,-1.831083,2.075227,0.048585,-0.032471,0.959121
939,-36.133364,-0.671397,1.770047,0.036133,-0.038209,1.007706
940,-39.307240,1.281758,0.000000,0.128054,0.133181,0.945449
941,-38.635843,-1.586938,-0.610361,0.012940,-0.039673,1.053117
942,-36.499580,-1.770047,-2.502480,0.037964,-0.051514,0.999283
943,-42.786297,1.098650,-0.915541,0.089479,-0.051514,0.961074
944,-61.585412,4.516670,3.906310,0.074708,-0.141848,1.037247
945,-52.918288,7.751583,7.141222,0.055909,-0.202884,1.084367
946,-40.344854,10.131991,8.239872,0.065797,-0.198978,1.016983
947,-37.293050,12.146181,4.699779,0.004150,-0.102663,1.014176
948,-35.584039,11.474784,-0.610361,-0.056764,-0.077394,1.001846
949,-37.659266,5.004959,-10.864424,-0.072633,-0.141726,0.996109
950,-39.368276,4.150454,-25.024796,-0.051392,-0.203983,0.997330
951,-44.373236,1.586938,-24.109255,0.068116,-0.307134,0.988907
952,-30.334936,-1.098650,-10.681315,0.107912,-0.188479,1.008804
953,-24.109255,-0.610361,-9.460594,0.091310,-0.234867,1.042496
954,-13.977264,-3.112840,-0.793469,-0.004395,-0.156619,1.175189
955,-46.692607,8.789197,-15.869383,0.134157,0.083986,1.008438
956,-77.515831,19.836728,-19.592584,0.067628,0.222538,0.896864
957,-128.603037,22.461280,-36.560616,-0.113161,0.481941,0.813977
958,-179.201953,-7.446403,-50.110628,-0.142702,0.215091,0.665415
959,-257.389181,-34.363317,-44.983597,-0.042481,1.181170,0.896986
960,-404.608225,-39.490349,-91.309987,-0.044068,0.893690,1.999969
961,-589.181354,-127.504387,-78.797589,-1.242939,0.173587,1.410544
962,-771.923400,-224.551766,-13.122759,-0.368414,0.034546,1.156878
963,-900.343328,-249.027237,29.175250,0.148806,0.018067,0.883558
964,-1048.538949,-235.355154,74.891279,0.810559,-2.000031,1.999969
965,-908.949416,-64.026856,188.906691,-1.037369,-0.561044,1.999969
966,126.894026,-24.780652,-64.515145,-0.520027,-0.316533,1.999969
967,396.246281,10.864424,-57.984283,-1.215595,0.774792,1.999969
968,157.289998,31.555657,-58.472572,-0.634043,0.801160,1.684108
969,-8.545052,-37.415122,54.566262,-0.797375,0.635752,0.745861
970,-38.391699,-57.251850,82.337682,-0.314702,0.211673,0.706798
971,77.759976,-18.371862,53.040360,-0.233890,0.177981,0.762707
972,125.490196,6.042573,45.410849,-0.117433,0.500984,0.474983
973,72.510872,7.690547,47.180896,0.026612,0.460456,0.750988
974,79.591058,12.634470,42.603189,0.053956,0.348028,1.102800
975,137.514305,12.756542,29.602502,0.093629,0.416266,1.238422
976,163.515679,1.037613,21.484703,0.099733,0.480232,1.314595
977,180.972000,-7.995727,13.977264,0.134768,0.423957,1.403098
978,218.875410,-0.915541,0.549325,0.167239,0.353887,1.300069
979,242.557412,15.014878,-11.657893,0.151736,0.289311,1.101335
980,247.196155,29.053178,-19.104295,0.099977,0.190799,0.992691
981,255.680171,38.330663,-23.376822,0.036866,0.083375,0.997208
982,266.239414,39.185168,-23.437858,0.008911,0.054932,1.165301
983,274.967575,33.875029,-20.508125,-0.005982,0.000855,1.348043
984,293.156329,28.992142,-18.188754,0.025879,-0.044678,1.405661
985,311.223011,26.794842,-18.738079,0.122072,-0.041138,1.452293
986,318.608377,31.494621,-22.278172,0.186893,-0.085084,1.430076
987,321.599146,41.565576,-28.870069,0.219608,-0.193973,1.388205
988,319.829099,53.223468,-35.523003,0.219974,-0.364752,1.182147
989,310.551614,64.393072,-39.917601,0.220340,-0.421515,0.996353
990,290.714885,74.402991,-43.396658,0.196658,-0.493660,0.870741
991,267.277028,68.360418,-44.678416,0.164187,-0.433356,0.936782
992,243.350881,60.547799,-44.434272,0.149172,-0.325444,1.301411
993,218.875410,59.449149,-43.640803,0.089601,-0.239872,1.999969
994,211.245899,65.918975,-40.344854,-0.007813,-0.385504,1.999969
995,247.196155,73.609522,-36.865797,0.010742,-0.524666,1.999969
996,277.470054,77.882048,-33.081559,0.032105,-0.559579,1.999969
997,274.296178,71.778439,-26.916915,0.109621,-0.615976,1.999969
998,278.080415,71.168078,-24.658579,0.207645,-0.754650,1.999969
999,289.494163,81.727321,-26.733806,0.277104,-0.910170,1.999969
1000,283.268483,93.995575,-26.977951,0.295415,-1.074479,1.999969
1001,267.643244,97.718776,-23.865110,0.341558,-1.245014,1.891997
1002,250.919356,91.309987,-21.606775,0.425177,-1.460349,1.790433
1003,233.157855,85.267414,-21.667811,0.462776,-1.796780,1.684230
1004,204.165713,88.075074,-23.498894,0.431525,-2.000031,1.561303
1005,182.742046,102.784772,-20.263981,0.513924,-2.000031,1.406638
1006,147.646296,125.856413,-28.076600,0.725597,-2.000031,1.195209
1007,132.570382,165.651942,-39.673457,0.676280,-2.000031,0.407111
1008,155.214771,178.286412,-38.147555,0.401373,-2.000031,-0.754040
1009,83.375296,129.091325,-14.770733,-0.037720,-2.000031,-1.551293
1010,-104.127565,-39.246204,40.100710,-0.095338,-2.000031,-2.000031
1011,-327.885863,-257.145037,95.277333,1.206195,-2.000031,-1.303731
1012,-224.307622,-232.303349,53.223468,1.395285,-0.467903,1.999969
1013,-140.566110,-124.025330,12.756542,0.056153,1.319112,1.999969
1014,-202.273594,-85.511559,37.109941,-0.337041,0.781384,1.119158
1015,-305.546654,-112.001221,47.547112,0.224735,-0.498909,-0.490242
1016,-310.185397,-85.938811,53.772793,0.371099,-0.516976,0.791150
1017,-380.682078,-88.380255,62.317845,0.967422,-0.264897,1.999969
1018,-264.652476,-19.287404,41.016251,0.739879,-0.865248,1.999969
1019,-110.292210,-53.101396,18.432898,-0.430182,-0.157839,1.999969
1020,-125.551232,-70.435645,33.508812,-0.776623,-0.307500,1.999969
1021,-62.256809,-114.503700,26.001373,1.108293,0.136721,1.999969
1022,-51.270314,-46.631571,-1.159686,1.293843,0.024414,1.732204
1023,-60.791943,3.356985,-0.549325,-0.390631,-0.087770,1.535424
1024,-50.293736,-23.682002,9.704738,-0.264408,-0.092775,1.114519
1025,-24.231327,-26.611734,-1.586938,0.487190,0.161379,1.224628
1026,-47.058824,-1.525902,1.586938,0.096071,-0.013672,1.358541
1027,-26.306554,-1.647974,0.671397,-0.187259,-0.088258,1.033219
1028,-13.794156,-7.629511,-3.112840,0.123171,0.104250,0.968276
1029,-32.898451,-2.929732,2.014191,0.008301,-0.048829,1.098039
1030,-14.892805,-1.709010,0.488289,0.000244,0.011841,1.049210
1031,-17.700465,-1.098650,1.037613,0.005005,0.036622,1.012222
1032,-20.019837,-1.464866,3.784237,0.028687,0.007568,1.047868
1033,-14.953841,0.061036,3.234913,0.027710,-0.007446,1.031266
1034,-15.320058,2.136263,4.028382,0.020874,-0.017090,1.009781
1035,-14.099336,2.014191,4.272526,-0.000855,0.001099,1.009659
1036,-13.855192,1.281758,4.699779,0.038453,0.013428,1.027481
1037,-12.329290,2.441444,4.394598,-0.021241,0.008545,1.002579
1038,-11.779965,0.183108,2.014191,-0.079835,-0.044923,0.947402
1039,-14.221408,-2.014191,3.112840,0.006714,0.026734,1.026749
1040,-15.259022,-2.136263,3.112840,-0.002441,-0.009033,1.038102
1041,-13.061723,-1.159686,2.502480,0.012085,-0.009277,1.015518
1042,-11.841001,-0.061036,2.014191,0.011963,-0.003174,1.006973
1043,-13.977264,-0.183108,2.563516,0.013184,-0.025513,1.004166
1044,-11.413748,0.915541,2.502480,0.002686,-0.006592,0.997818
1045,-11.352712,0.427253,2.136263,-0.013672,-0.011231,0.985367
1046,-12.207218,-1.342794,2.014191,-0.023194,0.001465,0.981949
1047,-13.672084,-3.295949,1.464866,-0.016846,-0.011841,0.955581
1048,-14.282444,-4.455634,0.305180,0.051392,-0.098756,0.832898
1049,-13.427939,-7.019150,0.732433,-0.013916,-0.015991,1.047379
1050,-14.526589,-7.873655,0.976577,-0.014282,-0.034424,0.965957
1051,-13.488975,-8.606088,0.793469,0.001953,-0.038331,0.932509
1052,-13.916228,-9.765774,0.915541,0.012329,-0.005127,1.026627
1053,-15.259022,-9.887846,1.159686,0.007202,-0.034668,0.999283
1054,-14.221408,-9.765774,1.342794,0.014282,-0.037842,1.041032
1055,-12.329290,-8.484016,1.525902,0.015503,-0.042969,1.039200
1056,-8.911269,-7.080186,1.831083,0.019776,-0.062989,1.007340
1057,-7.568475,-6.591897,2.075227,0.006348,-0.037964,0.989151
1058,-8.300908,-6.836042,2.319371,0.028565,-0.013306,0.981582
1059,-10.681315,-6.958114,1.586938,-0.001099,-0.001587,0.956802
1060,-15.136950,-7.690547,1.403830,0.038209,-0.010010,0.967056
1061,-20.080873,-6.775006,1.037613,0.029419,-0.005982,0.999893
1062,-23.620966,-5.432212,1.525902,0.045777,-0.042481,1.010025
1063,-23.865110,-3.662165,1.403830,0.032105,-0.040040,0.999649
1064,-24.475471,-2.624552,1.586938,0.035645,-0.010620,0.980484
1065,-30.701152,-1.342794,2.014191,0.007691,-0.018311,0.980240
1066,-34.973678,-2.502480,1.892119,-0.003418,-0.037110,0.979507
1067,-36.987869,-3.418021,1.342794,0.015259,-0.049317,0.968887
1068,-39.612421,-4.394598,1.342794,0.005249,-0.008911,0.970108
1069,-42.236973,-1.709010,3.479057,0.018677,-0.048463,0.962539
1070,-52.735180,0.122072,9.033341,0.101564,-0.096681,1.082658
1071,-45.105669,6.225681,7.019150,0.014649,-0.119142,1.026505
1072,-42.236973,8.422980,6.469825,0.001831,-0.090578,1.024308
1073,-45.899138,6.530861,4.577707,-0.064088,-0.072633,0.960342
1074,-39.246204,3.845274,0.244144,-0.083742,0.044556,1.106706
1075,-36.804761,0.915541,-10.254063,-0.128176,-0.113771,1.071061
1076,-39.429313,-5.065995,-12.756542,-0.094606,0.059693,1.046159
1077,-69.947356,-5.310140,-34.485389,0.052491,0.016236,0.790784
1078,-91.920348,2.685588,-42.236973,0.145144,-0.370489,1.075090
1079,-56.214237,-2.136263,-12.512398,0.102907,-0.299687,1.117327
1080,-37.048905,-6.347753,-11.291676,0.012818,-0.047730,0.992447
1081,-59.632258,-0.305180,-20.935378,0.041016,0.190677,1.023941
1082,-100.038148,7.751583,-11.535821,0.165530,0.163699,0.828870
1083,-113.588159,12.878614,4.760815,-0.104860,0.542855,0.650767
1084,-183.230335,-9.033341,-22.400244,-0.087648,0.308598,0.538094
1085,-248.905165,-20.447089,5.127031,0.072267,1.086809,1.066545
1086,-499.641413,-22.156100,-23.682002,0.178592,0.423224,1.598047
1087,-685.557336,-57.923247,32.715343,-0.348272,0.282597,1.427512
1088,-798.535134,-93.629358,35.767147,0.055787,0.145510,1.722560
1089,-879.591058,-108.278019,33.630884,-0.070558,-0.037476,0.831922
1090,-1112.504769,-178.530556,101.564050,0.031373,-2.000031,1.999969
1091,-533.882658,-105.775540,76.539254,-1.084977,-1.595239,1.999969
1092,258.060578,-61.463340,-70.191501,-0.373175,0.829603,1.999969
1093,372.564279,-24.231327,-73.792630,-0.787854,1.238300,1.999969
1094,152.895399,-8.239872,-78.431373,-0.502815,0.615488,1.101701
1095,16.968032,-43.640803,-10.254063,-0.535531,0.536629,-0.120851
1096,3.173877,-53.711757,-4.760815,-0.337896,0.212284,-0.025147
1097,80.689708,-33.142596,-24.902724,-0.360967,0.247929,0.194705
1098,67.322805,-23.498894,-23.498894,-0.305303,0.459724,0.404059
1099,31.372549,-14.526589,-18.249790,-0.304692,0.390631,0.882948
1100,72.877089,0.854505,-19.165332,-0.309941,0.429206,1.222187
1101,114.137484,7.263294,-18.616007,-0.300542,0.528695,1.276265
1102,132.753491,5.798428,-14.221408,-0.256718,0.492439,1.345602
1103,165.102617,10.620279,-12.451362,-0.216678,0.431159,1.396872
1104,200.747692,20.630198,-13.122759,-0.167849,0.351934,1.306416
1105,224.673838,31.311513,-13.550011,-0.132692,0.261234,1.187030
1106,243.411917,41.443503,-14.343481,-0.092287,0.158083,1.081804
1107,258.731975,51.758602,-15.320058,-0.054200,0.081910,0.984512
1108,266.239414,57.557031,-15.564202,-0.034058,0.026978,0.943618
1109,271.061265,56.214237,-13.977264,-0.061036,-0.022339,1.002335
1110,277.958343,48.584726,-10.925460,-0.028199,-0.029419,1.168353
1111,286.076143,42.236973,-8.361944,0.034546,-0.018189,1.355734
1112,295.902953,40.161746,-9.277485,0.101686,-0.087770,1.345846
1113,302.006561,47.486076,-14.404517,0.164675,-0.212528,1.191791
1114,295.658808,64.271000,-20.447089,0.199100,-0.343633,1.008072
1115,277.836271,83.436332,-25.207904,0.232181,-0.400763,1.034806
1116,258.304723,94.789044,-28.564889,0.301274,-0.296025,1.165423
1117,244.388495,96.070802,-35.584039,0.326421,-0.271489,1.419944
1118,231.692988,93.202106,-38.025483,0.306767,-0.225711,1.983795
1119,226.443885,81.788357,-38.696880,0.215335,-0.297734,1.999969
1120,246.646830,73.182269,-41.626612,0.161135,-0.491218,1.999969
1121,266.483558,80.811780,-43.945983,0.145144,-0.652232,1.999969
1122,266.056306,87.647822,-44.434272,0.099245,-0.741466,1.999969
1123,266.849775,86.854353,-41.260395,0.032837,-0.827283,1.999969
1124,291.386282,79.835203,-38.696880,0.021607,-0.945205,1.999969
1125,319.951171,83.436332,-37.170977,0.162722,-0.980362,1.999969
1126,311.711299,92.774853,-36.133364,0.293950,-0.964004,1.802518
1127,285.343709,96.986343,-32.593271,0.231205,-1.096574,1.728542
1128,272.709239,89.845121,-24.353399,0.111208,-1.279561,1.701442
1129,258.915084,76.783398,-10.681315,-0.006348,-1.527977,1.619898
1130,234.866865,67.444877,5.920500,-0.051148,-1.958892,1.402976
1131,207.339590,73.365377,21.545739,0.076051,-2.000031,1.011368
1132,166.628519,86.488136,26.123445,0.397101,-2.000031,0.690074
1133,112.733654,120.363165,13.427939,0.753063,-2.000031,0.359869
1134,85.511559,159.731441,-11.474784,0.644419,-2.000031,-0.090700
1135,46.509499,148.928054,-0.915541,0.410163,-2.000031,-0.629892
1136,-29.968719,60.303655,36.316472,0.280644,-2.000031,-0.517098
1137,-81.483177,-57.923247,64.209964,0.400275,-2.000031,-2.000031
1138,-231.754025,-217.227436,86.060884,1.479759,-1.079850,-0.606332
1139,-192.935073,-181.704433,40.161746,1.030533,-0.626108,1.815824
1140,-117.372396,-65.674830,12.268254,-0.099245,1.333272,1.999969
1141,-147.035935,-64.271000,30.090791,-0.373419,0.823743,0.565316
1142,-321.904326,-102.601663,51.514458,0.119387,-0.133791,-0.349981
1143,-357.244221,-75.928893,70.130465,0.601083,-0.653574,1.270893
1144,-330.998703,-50.843061,55.542840,1.235981,-0.326543,1.999969
1145,-229.922942,3.051804,29.175250,0.750988,-0.498787,1.999969
1146,-153.749905,7.080186,8.239872,-0.291386,-0.156374,1.867948
1147,-184.451057,-37.293050,36.804761,-1.350851,-0.577279,1.999969
1148,-96.925307,-92.591745,54.505226,-0.509163,-0.390021,1.458152
1149,-64.820325,-115.907530,40.588998,1.268452,0.348028,1.999969
1150,-60.486763,-61.524376,16.906996,1.153094,0.248417,1.999969
1151,-46.509499,-16.113527,7.934691,-0.514900,-0.025147,1.136126
1152,-45.960174,-47.669184,15.075914,-0.278202,0.076905,1.111223
1153,-40.588998,-50.049592,3.234913,0.660899,0.128298,1.484276
1154,-43.091478,-15.991455,1.770047,0.012573,-0.067750,1.077531
1155,-33.630884,-18.493935,4.394598,-0.200198,-0.013672,1.104509
1156,-23.498894,-23.498894,2.197299,0.172732,0.084474,1.195819
1157,-23.682002,-9.338521,0.671397,0.132692,0.089113,1.132830
1158,-17.517357,-3.540093,1.892119,-0.006714,0.065919,1.075456
1159,-20.263981,-1.953155,2.075227,0.042725,0.033814,1.021012
1160,-18.616007,1.525902,1.709010,0.031250,0.009277,0.985000
1161,-20.691234,3.418021,3.356985,0.032227,0.008911,1.046036
1162,-18.432898,6.103609,2.319371,0.072511,-0.078004,0.928359
1163,-16.784924,5.371176,3.784237,0.038331,-0.017823,1.053605
1164,-17.700465,6.530861,4.150454,-0.004639,-0.000488,0.963882
1165,-18.127718,6.408789,4.455634,-0.018433,0.017334,1.019547
1166,-17.151141,5.493248,4.089418,-0.020386,0.003052,1.026261
1167,-14.831769,5.493248,3.662165,-0.003784,-0.003784,1.025406
1168,-14.160372,5.432212,3.356985,-0.006714,0.002441,1.018814
1169,-12.939651,5.310140,3.051804,-0.023560,0.001343,0.990249
1170,-12.329290,4.150454,2.746624,-0.009888,0.019532,0.990372
1171,-14.526589,2.807660,2.685588,-0.036011,0.012696,1.020035
1172,-11.413748,1.709010,2.014191,-0.092042,0.076783,1.139910
1173,-8.606088,-1.159686,2.258335,0.001709,0.002564,0.903334
1174,-14.221408,-2.380407,1.098650,-0.020386,-0.035889,0.950698
1175,-11.902037,-3.234913,0.915541,-0.016602,-0.015625,1.022354
1176,-10.986496,-3.967346,1.220722,-0.019532,-0.018433,1.009415
1177,-9.216449,-4.516670,1.403830,-0.001587,-0.027466,1.016251
1178,-6.775006,-4.211490,1.342794,-0.017456,-0.019287,0.994278
1179,-6.775006,-5.310140,1.709010,-0.034913,0.020508,0.984268
1180,-9.033341,-7.934691,2.075227,-0.019287,0.034913,0.942885
1181,-13.000687,-11.047532,2.014191,-0.035767,0.059937,0.970596
1182,-16.906996,-14.831769,2.014191,-0.034424,0.048585,0.980972
1183,-18.860151,-16.784924,1.403830,-0.040894,0.002197,1.050187
1184,-15.930419,-17.395285,1.831083,0.053834,0.027344,0.944228
1185,-17.517357,-16.235599,0.427253,0.001953,-0.024048,0.911391
1186,-23.315785,-16.845960,1.647974,0.028199,-0.023804,1.034440
1187,-21.972992,-14.953841,1.831083,0.014893,-0.009888,0.974258
1188,-26.184482,-14.343481,2.014191,0.032227,-0.005615,0.977554
1189,-32.104982,-12.939651,2.380407,0.028077,-0.008667,0.979019
1190,-34.668498,-10.803388,2.441444,0.032715,-0.025391,1.035904
1191,-35.156786,-8.178836,1.709010,0.034302,-0.044190,1.056168
1192,-33.569848,-5.981537,1.770047,0.060426,-0.035767,0.988540
1193,-35.767147,-4.516670,1.098650,0.012329,0.000000,0.947280
1194,-44.373236,-5.676356,2.136263,-0.002075,-0.041871,0.965591
1195,-48.157473,-7.385367,3.356985,0.025269,-0.095827,1.018570
1196,-42.664225,-6.042573,3.662165,0.011963,-0.019532,0.986831
1197,-41.870756,0.366217,7.507439,0.125368,-0.052003,1.093034
1198,-58.106355,4.272526,9.948882,-0.015625,-0.086671,1.029191
1199,-48.340581,4.638743,6.897078,0.024537,-0.076173,1.001968
1200,-54.322118,5.432212,4.821851,-0.018921,-0.066773,0.954238
1201,-58.655680,1.831083,1.586938,-0.068238,-0.048585,0.990372
1202,-60.120546,-2.197299,-3.540093,-0.021607,-0.103151,1.001846
1203,-54.383154,0.366217,-12.939651,0.063111,-0.234623,1.061418
1204,-50.904097,-5.859464,-24.780652,-0.035889,-0.132204,0.957168
1205,-60.364691,0.122072,-35.461967,0.065553,-0.206180,0.995987
1206,-51.941711,2.502480,-27.771420,0.114992,-0.370367,1.041886
1207,-37.048905,-1.098650,-7.141222,0.053712,-0.160525,1.074846
1208,-40.222782,-0.549325,-10.009918,0.041627,-0.036500,1.034928
1209,-58.228428,6.775006,-19.897765,0.051637,0.185794,0.898695
1210,-99.244678,12.695506,-23.132677,0.152102,0.163699,0.956435
1211,-138.612955,15.808347,-13.244831,-0.080201,0.555673,0.636362
1212,-177.615015,-6.530861,-23.926146,-0.119753,0.786633,0.694347
1213,-336.919203,-16.113527,-41.870756,0.118898,1.673365,1.376730
1214,-629.709316,-5.188067,-24.902724,-0.099367,0.871717,1.999969
1215,-823.437858,-57.251850,41.321431,-0.519417,0.197024,1.686793
1216,-931.471733,-52.063783,66.651408,0.271611,0.119875,1.156146
1217,-1050.186923,-56.458381,115.419242,0.143435,-2.000031,1.999969
1218,-654.795148,-3.906310,109.132525,-1.814969,-1.510765,1.999969
1219,200.686656,3.479057,-38.879988,-0.798474,0.719860,1.999969
1220,375.677119,38.452735,-32.410163,-0.968643,1.217060,1.999969
1221,128.725109,3.662165,-9.582666,-0.832532,0.977676,1.025162
1222,-16.357671,-89.234760,83.192187,-0.418708,0.498909,-0.220829
1223,-38.513771,-137.087053,77.698940,0.136355,0.290654,0.415290
1224,86.549172,-101.136797,39.490349,0.150759,0.589731,1.074235
1225,111.329824,-59.266041,14.648661,0.269535,0.905043,1.116716
1226,88.197147,-24.719615,-4.821851,0.178958,0.763317,1.210468
1227,129.884794,-5.310140,-25.146868,0.025391,0.619516,1.084489
1228,170.595865,-10.864424,-37.354086,-0.028809,0.620493,0.832532
1229,176.333257,-26.184482,-42.236973,-0.038697,0.551766,0.789197
1230,187.624933,-28.259709,-46.387427,-0.039796,0.461433,0.937758
1231,209.475853,-15.991455,-51.697566,-0.043580,0.405035,1.009903
1232,225.223163,1.525902,-54.993515,-0.049195,0.328008,0.986343
1233,237.308309,15.869383,-56.031128,-0.044800,0.240116,0.929946
1234,248.661021,22.034028,-54.993515,-0.038087,0.174197,0.953628
1235,258.793011,23.559930,-53.040360,0.015015,0.116335,0.970474
1236,268.253605,24.170291,-52.796216,0.084962,0.088991,1.062394
1237,273.014420,28.137636,-54.749371,0.159548,0.043824,1.203754
1238,275.516899,36.133364,-60.059510,0.183352,-0.078126,1.383078
1239,288.029297,44.983597,-65.064469,0.180056,-0.205936,1.327413
1240,295.231556,50.171664,-69.581140,0.168704,-0.252445,1.220600
1241,288.639658,48.828870,-72.022583,0.128298,-0.279179,1.196674
1242,278.080415,50.415808,-73.304341,0.068971,-0.331914,1.355612
1243,268.375677,58.289464,-73.792630,0.034913,-0.353887,1.496361
1244,259.281300,75.074388,-73.670558,-0.010986,-0.371099,1.779934
1245,250.064851,91.309987,-70.008392,-0.081422,-0.396246,1.999969
1246,253.604944,100.770581,-62.684062,-0.153079,-0.515389,1.999969
1247,270.572976,102.906844,-52.002747,-0.121462,-0.616098,1.999969
1248,283.329519,98.878462,-41.260395,-0.043458,-0.651377,1.999969
1249,290.836957,90.211337,-31.433585,0.004273,-0.667124,1.999969
1250,310.795758,82.887007,-23.743038,0.058595,-0.730358,1.999969
1251,330.449378,81.849393,-17.822538,0.165164,-0.777722,1.999969
1252,325.932708,84.962234,-14.038300,0.506233,-0.801038,1.864164
1253,309.819181,86.549172,-16.113527,0.451423,-0.843153,1.874662
1254,290.348669,73.609522,-13.977264,0.295537,-1.023331,1.943877
1255,279.362173,60.425727,-7.812619,0.064576,-1.349264,1.752712
1256,256.046387,50.110628,0.671397,-0.089601,-1.836576,1.292744
1257,213.565270,55.298695,12.512398,-0.012207,-2.000031,0.773327
1258,151.247425,76.905470,20.752270,0.618051,-2.000031,0.434699
1259,61.829557,115.541314,-17.151141,1.214008,-2.000031,0.398444
1260,41.809720,158.571756,-41.565576,0.887709,-2.000031,0.104616
1261,29.663539,124.147402,-24.841688,0.281621,-2.000031,-0.298466
1262,-40.588998,9.460594,24.292363,-0.396612,-2.000031,-0.821790
1263,-179.873350,-156.374456,58.472572,0.523323,-2.000031,-0.893812
1264,-281.437400,-196.108949,64.332036,0.596933,-1.177874,1.535058
1265,-130.617227,-67.383841,45.410849,-0.294804,0.158938,1.999969
1266,-107.850767,-55.603876,46.509499,-0.757824,0.924453,1.548852
1267,-171.267262,-97.901884,79.041733,0.050416,0.207156,-0.242924
1268,-295.353628,-102.784772,89.051652,0.614145,-0.041016,0.027588
1269,-330.693523,-61.585412,97.901884,1.158953,-0.175174,1.999969
1270,-278.690776,-38.025483,74.219883,1.874052,-0.196536,1.999969
1271,-150.392920,-9.643702,9.399557,1.707912,0.072389,1.999969
1272,-143.251698,13.122759,-23.437858,0.408453,0.138430,1.529198
1273,-159.304189,28.564889,-17.944610,-0.910780,-0.148318,1.480003
1274,-146.364538,18.982223,9.582666,-1.652003,-0.391485,1.243793
1275,-147.219043,-51.087205,51.087205,-1.073869,-0.493660,1.585718
1276,-95.765621,-101.991302,57.129778,0.314092,-0.026978,1.753079
1277,-71.778439,-100.282292,31.067369,1.493553,0.290043,1.999969
1278,-50.782025,-35.645075,9.582666,0.484993,-0.013794,1.470970
1279,-42.908370,-21.728847,9.582666,-0.583627,0.043336,1.065080
1280,-55.298695,-54.505226,10.864424,0.096803,0.163088,1.304829
1281,-47.669184,-41.321431,-0.915541,0.568978,-0.024170,1.331441
1282,-43.274586,-15.259022,3.356985,-0.146365,0.005615,1.071183
1283,-39.063096,-29.053178,5.920500,-0.088380,0.097169,1.150286
1284,-32.104982,-25.635157,-1.892119,0.240360,0.016114,1.109514
1285,-32.593271,-14.038300,1.586938,0.008423,0.010010,1.170062
1286,-25.940337,-14.770733,3.723201,0.020142,-0.027710,1.108415
1287,-13.061723,-10.681315,1.647974,0.087282,0.031861,1.048966
1288,-20.691234,-7.629511,5.371176,0.073365,0.055421,1.041276
1289,-19.226368,-4.638743,2.685588,0.000244,0.038453,0.986587
1290,-21.850919,-5.798428,4.577707,0.046021,0.037720,1.032120
1291,-19.287404,-3.845274,3.540093,0.020630,0.059571,1.071061
1292,-19.348440,-5.004959,3.662165,0.018921,0.031617,1.044572
1293,-17.578393,-4.394598,2.014191,0.009033,0.032715,1.002335
1294,-20.996414,-6.164645,2.563516,0.011719,0.010254,1.035416
1295,-14.465553,-5.004959,1.525902,0.040772,0.017945,1.000259
1296,-16.723888,-3.845274,1.342794,0.021607,0.010498,1.000015
1297,-13.305867,-3.845274,1.403830,0.016724,0.036866,0.987808
1298,-17.761501,-5.676356,1.220722,-0.026978,0.052613,1.022232
1299,-19.470512,-6.225681,1.770047,0.036622,0.009888,0.997696
1300,-19.775692,-6.225681,1.159686,0.022705,0.001343,0.998672
1301,-18.799115,-6.286717,0.671397,0.035279,0.000488,0.972305
1302,-21.118486,-6.469825,0.488289,0.037354,-0.005493,1.006241
1303,-20.447089,-6.530861,0.671397,0.045533,0.049439,1.066789
1304,-19.287404,-5.615320,1.464866,0.047364,-0.006470,1.000381
1305,-19.043259,-5.371176,0.854505,0.021363,-0.006836,0.983536
1306,-21.240558,-5.737392,1.159686,0.033082,-0.007935,1.005875
1307,-20.630198,-5.981537,0.549325,0.022827,-0.027100,1.019425
1308,-19.653620,-6.469825,0.427253,0.037964,-0.063233,1.009903
1309,-16.906996,-6.958114,0.671397,0.049195,-0.069459,1.015274
1310,-15.075914,-6.408789,0.976577,0.049439,-0.061158,1.010880
1311,-13.183795,-5.798428,1.220722,0.057130,-0.021485,0.999893
1312,-16.479744,-5.554284,1.770047,0.050172,0.005249,0.975357
1313,-19.409476,-5.127031,1.770047,0.058473,-0.010986,0.952163
1314,-27.405203,-4.760815,2.380407,0.051148,-0.036988,0.986465
1315,-28.137636,-3.845274,2.685588,0.048585,-0.033326,1.019791
1316,-27.344167,-3.234913,2.563516,0.056031,-0.019532,1.005386
1317,-29.968719,-2.685588,2.563516,0.042115,-0.043336,0.989761
1318,-29.846647,-3.173877,2.075227,0.028687,-0.040528,0.999893
1319,-28.015564,-3.540093,1.892119,0.073854,0.004639,1.079728
1320,-36.865797,-1.037613,0.671397,0.044434,-0.060548,0.978775
1321,-35.461967,-0.732433,1.464866,0.063111,-0.088380,0.995987
1322,-34.485389,0.305180,2.807660,0.058106,-0.085084,1.041032
1323,-36.865797,5.737392,5.249104,0.043580,-0.179080,0.932265
1324,-31.738766,3.356985,6.591897,0.151614,-0.032593,1.031632
1325,-45.716030,7.080186,7.263294,-0.012573,-0.034302,0.999771
1326,-48.096437,6.164645,5.004959,0.032349,-0.083986,0.989761
1327,-51.026169,5.065995,0.061036,0.037354,-0.043946,0.978164
1328,-59.815366,5.188067,-2.563516,0.031983,-0.055055,1.040787
1329,-59.998474,5.981537,-7.629511,-0.015625,-0.102419,1.004776
1330,-57.495995,3.418021,-15.381094,-0.062013,-0.206058,0.974990
1331,-63.843748,5.859464,-30.090791,-0.010864,-0.052247,1.040177
1332,-73.914702,6.164645,-32.349126,0.064454,-0.385504,0.987198
1333,-48.706798,2.380407,-10.986496,0.184695,-0.300908,1.105730
1334,-26.855879,2.685588,-1.770047,0.199832,-0.149783,1.000137
1335,-29.236286,11.230640,1.098650,0.151614,0.270390,0.929824
1336,-87.647822,25.452049,-17.639429,0.076661,0.269413,0.801526
1337,-155.703059,34.668498,-23.010605,-0.064820,0.501961,0.653819
1338,-196.475166,-2.563516,-16.296635,-0.442512,0.139528,0.775402
1339,-254.337377,-33.264668,-12.878614,0.034424,1.415427,0.962905
1340,-472.053101,-84.290837,-51.087205,-0.461189,0.480232,1.254658
1341,-662.363623,-209.964141,35.400931,-0.337774,0.226566,1.623438
1342,-804.638743,-268.863966,68.848707,0.113283,-0.117556,0.750988
1343,-893.690394,-236.575875,105.531395,0.782727,-0.497810,1.803250
1344,-1058.793011,-225.589380,191.531243,-0.253056,-1.278584,1.999969
1345,-305.302510,-32.959487,18.005646,-0.442267,-1.089738,1.999969
1346,303.715572,39.856565,-80.506600,-0.057862,0.890394,1.999969
1347,273.197528,68.726635,-119.447623,-0.015869,1.370260,1.455955
1348,131.715877,36.194400,-59.205005,-0.781506,0.696178,0.789441
1349,-13.000687,-35.339895,1.525902,-0.461311,0.259281,0.120974
1350,-14.404517,-43.457694,15.075914,-0.337285,0.142702,0.397345
1351,88.990616,-22.522316,9.826810,-0.371221,0.202152,0.721080
1352,125.246052,-8.239872,9.277485,-0.215946,0.438849,0.649180
1353,93.873503,-3.234913,14.526589,-0.197757,0.390997,0.845472
1354,112.916762,4.882887,14.343481,-0.211063,0.276738,1.020645
1355,155.947204,13.427939,11.718929,-0.173342,0.324468,1.021500
1356,166.567483,14.343481,12.512398,-0.128054,0.321538,1.060441
1357,179.995422,16.845960,11.535821,-0.078737,0.249638,1.099504
1358,207.095445,25.268940,6.713970,-0.022705,0.235111,1.110613
1359,220.889601,34.241245,1.709010,0.001099,0.204105,1.156634
1360,232.547494,44.129091,-2.319371,0.041505,0.116091,1.190448
1361,250.308995,55.237659,-5.859464,0.095583,0.066041,1.222309
1362,261.417563,57.618067,-7.446403,0.111330,0.033326,1.363302
1363,274.967575,51.209277,-6.652934,0.162600,-0.009033,1.491966
1364,298.649577,44.617380,-9.399557,0.319097,-0.034913,1.444968
1365,311.955444,41.199359,-17.700465,0.494759,-0.109621,1.147723
1366,301.884489,45.654994,-32.898451,0.720592,-0.330449,0.754772
1367,279.728389,57.190814,-53.040360,0.886854,-0.393683,0.606210
1368,252.872511,57.923247,-77.637903,0.837049,-0.374517,0.770886
1369,229.678798,49.622339,-99.122606,0.744518,-0.344610,0.994034
1370,212.710765,51.453422,-117.189288,0.474495,-0.403082,1.232441
1371,186.709392,64.087892,-121.766995,0.164065,-0.448737,1.910063
1372,171.389334,71.900511,-116.945144,-0.067018,-0.618540,1.999969
1373,205.386435,80.750744,-108.705272,-0.203372,-0.847425,1.999969
1374,246.585794,98.756390,-96.681163,-0.236576,-0.970108,1.840970
1375,226.993210,112.489509,-78.126192,-0.262821,-0.997574,1.596094
1376,191.897459,117.189288,-54.261082,-0.328008,-1.057755,1.978180
1377,202.090486,118.715190,-26.916915,-0.317144,-1.046769,1.999969
1378,229.495689,113.221942,0.915541,-0.013184,-0.946548,1.999969
1379,245.059892,106.874189,21.179522,0.355596,-0.880262,1.767849
1380,244.388495,93.751431,32.043946,0.609506,-0.827039,1.364889
1381,233.646143,70.130465,34.607462,0.705699,-0.765515,1.332540
1382,220.279240,40.344854,30.823224,0.698741,-0.752453,1.555566
1383,223.575189,17.883574,18.371862,0.625498,-0.814588,1.590967
1384,228.274968,12.756542,0.366217,0.516976,-0.923110,1.360494
1385,215.457389,25.574121,-16.723888,0.350225,-1.116472,1.021134
1386,185.061418,41.016251,-25.940337,0.053956,-1.441672,0.728649
1387,153.200580,49.988556,-23.682002,-0.126955,-1.790677,0.464118
1388,120.729381,55.176623,-11.535821,-0.071168,-2.000031,0.280156
1389,75.440604,54.871443,2.685588,0.127565,-2.000031,0.312139
1390,40.466926,52.246891,16.906996,0.290043,-2.000031,0.207523
1391,14.892805,35.828183,27.893492,0.365728,-2.000031,0.157351
1392,-54.322118,5.981537,34.851606,0.517586,-2.000031,-1.776394
1393,-226.626993,-61.219196,70.923934,0.421027,-2.000031,-0.979385
1394,-212.954910,-111.940185,62.867170,0.761852,-0.791150,0.985489
1395,-87.708858,-79.041733,13.061723,0.341314,0.851453,1.999969
1396,-99.366751,-36.011292,15.625238,-0.091920,1.263935,1.142229
1397,-245.487144,-75.562676,24.475471,-0.426520,0.224735,-0.450080
1398,-313.542382,-87.891966,46.326390,-0.185550,-0.531014,0.736584
1399,-307.927062,-58.411536,56.458381,0.487068,-0.384649,1.999969
1400,-211.062791,-14.770733,41.504540,1.007950,-0.180179,1.999969
1401,-122.682536,19.348440,10.498207,0.957168,-0.063233,1.848661
1402,-135.439078,28.870069,-4.150454,0.303593,0.159548,1.371847
1403,-145.265888,31.616693,9.826810,-1.136614,0.070558,1.733303
1404,-144.411383,-24.292363,34.485389,-1.469993,-0.468147,1.316548
1405,-84.596017,-92.103456,46.387427,-0.194827,-0.057984,1.568017
1406,-84.718090,-105.592432,31.311513,1.471214,0.105837,1.999969
1407,-36.377508,-27.283131,2.685588,0.414679,0.053590,1.510887
1408,-42.359045,-19.470512,4.699779,-0.674937,0.075074,1.054826
1409,-61.707485,-51.758602,10.620279,0.232181,0.078859,1.201434
1410,-41.382467,-28.015564,-1.159686,0.398199,0.123415,1.278706
1411,-54.810407,-10.681315,4.028382,-0.129397,-0.001465,1.196429
1412,-37.781338,-15.564202,2.258335,0.000610,-0.142214,1.206928
1413,-15.320058,-9.399557,-1.403830,0.110109,0.061280,1.104143
1414,-29.846647,-4.760815,2.258335,-0.020996,-0.027344,1.064836
1415,-15.442130,-4.272526,1.159686,0.013916,0.008667,1.040665
1416,-16.845960,-2.258335,1.647974,0.057130,0.027832,1.027481
1417,-16.723888,-0.671397,2.746624,-0.042237,0.004273,1.002213
1418,-17.883574,-4.089418,4.150454,0.017945,0.008789,1.011734
1419,-16.723888,-4.272526,3.234913,-0.019165,-0.039063,0.988540
1420,-18.066682,-6.469825,3.601129,-0.004883,0.001099,0.983291
1421,-17.822538,-8.667124,2.685588,-0.030274,0.025025,0.977798
1422,-18.982223,-13.122759,2.319371,-0.043336,0.037476,0.986831
1423,-20.080873,-15.136950,0.976577,-0.015381,-0.002930,1.001114
1424,-19.531548,-16.723888,0.366217,0.003906,-0.016968,1.051286
1425,-14.709697,-14.770733,-0.427253,0.010864,-0.023682,0.967666
1426,-11.718929,-13.488975,-0.610361,-0.002441,-0.007935,1.002335
1427,-17.212177,-12.024109,-0.427253,0.128786,-0.076539,0.850233
1428,-13.488975,-11.474784,-0.244144,0.022339,-0.037720,1.048844
1429,-12.207218,-10.498207,0.000000,0.030640,0.055543,1.026993
1430,-17.090105,-10.193027,0.976577,0.031373,-0.032837,1.010880
1431,-12.512398,-8.667124,0.671397,0.025147,0.052369,1.060319
1432,-14.404517,-8.361944,1.342794,0.021118,-0.011475,0.990860
1433,-15.503166,-8.178836,0.793469,0.000244,-0.019287,1.012589
1434,-13.488975,-7.507439,0.427253,0.023682,-0.100099,0.969497
1435,-11.718929,-7.324331,0.793469,0.018433,-0.006104,1.043351
1436,-13.611048,-7.690547,1.159686,0.017578,-0.008301,1.020523
1437,-12.451362,-7.629511,0.976577,0.025635,-0.059083,0.935073
1438,-16.174563,-8.300908,0.061036,0.016846,0.011353,0.909438
1439,-28.015564,-9.582666,0.427253,0.035157,-0.008789,0.959609
1440,-30.945296,-8.545052,0.000000,0.042603,-0.029664,0.993790
1441,-33.264668,-7.324331,0.183108,0.043458,-0.038575,1.031998
1442,-32.715343,-6.042573,0.427253,0.031373,-0.084108,1.028702
1443,-27.161059,-5.310140,0.427253,0.036500,-0.057496,1.024674
1444,-23.437858,-4.089418,0.671397,0.035523,-0.062379,1.014176
1445,-23.071641,-4.333562,0.732433,0.015137,-0.072633,1.005142
1446,-24.292363,-5.127031,0.488289,0.020386,-0.072877,0.976944
1447,-25.635157,-5.920500,0.488289,0.031739,-0.088502,1.008560
1448,-23.682002,-6.164645,0.793469,0.041627,-0.093141,1.023209
1449,-22.095064,-5.798428,0.915541,0.050172,-0.026978,1.019913
1450,-22.461280,-3.234913,0.061036,0.053346,-0.113527,0.924819
1451,-21.667811,-1.098650,-0.793469,0.052247,-0.077028,1.017594
1452,-30.762188,0.915541,0.000000,0.067872,-0.105959,0.906386
1453,-25.207904,1.525902,0.854505,0.037964,-0.098878,0.967422
1454,-25.879301,1.281758,0.671397,0.033204,-0.079225,1.014176
1455,-29.785611,0.915541,0.305180,0.031006,-0.124147,1.017350
1456,-25.513085,0.366217,-0.305180,0.026978,-0.108644,0.994278
1457,-25.696193,0.244144,-0.488289,0.030640,-0.091066,0.969009
1458,-28.686961,1.342794,1.586938,0.036133,-0.101930,0.989639
1459,-37.415122,1.281758,1.770047,0.000732,-0.147097,1.018814
1460,-37.048905,1.586938,2.441444,0.034913,-0.110964,0.995865
1461,-37.415122,1.831083,2.868696,0.041627,-0.124880,1.047013
1462,-38.330663,2.319371,2.685588,0.031128,-0.159182,0.996963
1463,-34.668498,3.051804,1.831083,0.049195,-0.172732,1.035050
1464,-27.649348,4.760815,1.220722,0.018433,-0.141970,1.020768
1465,-27.222095,5.371176,-1.281758,0.044678,-0.134890,1.021012
1466,-27.405203,7.202258,-3.418021,0.030884,-0.116335,1.020768
1467,-29.541466,8.850233,-7.446403,-0.014649,-0.128786,1.013321
1468,-34.851606,9.094377,-14.282444,-0.032837,-0.100954,0.883192
1469,-35.828183,4.150454,-19.287404,-0.062501,-0.190066,1.059220
1470,-47.852293,4.516670,-28.992142,-0.005371,-0.199344,1.008927
1471,-53.223468,4.943923,-29.419394,0.065431,-0.334234,0.993545
1472,-37.170977,2.136263,-17.456321,0.122072,-0.333013,1.091447
1473,-23.193713,3.295949,-8.178836,0.024781,-0.169436,0.985855
1474,-32.715343,0.915541,-9.094377,0.076661,0.026612,0.979141
1475,-61.219196,9.216449,-15.564202,0.026734,0.103395,0.920668
1476,-89.784085,6.530861,-12.512398,0.032349,-0.033936,0.893935
1477,-104.554818,4.089418,-2.502480,0.021241,0.251225,0.616098
1478,-128.358892,-19.531548,0.793469,-0.177859,0.360235,1.026993
1479,-238.834211,-22.522316,-7.873655,0.028077,0.198489,1.027481
1480,-372.686351,-33.569848,4.882887,-0.064576,-0.017945,1.115984
1481,-455.756466,-72.083619,28.992142,-0.441047,-0.385992,1.282368
1482,-483.833066,-119.569696,21.728847,-0.144411,-0.271977,0.824231
1483,-529.243915,-140.321965,32.593271,-0.031373,-0.247196,1.217182
1484,-569.893950,-158.937972,40.405890,0.028321,-0.106813,0.986221
1485,-605.783169,-149.965667,65.796902,0.402838,-1.234394,1.999969
1486,-504.524300,-80.811780,120.241093,-0.743908,0.431403,1.999969
1487,3.845274,-31.860838,-7.324331,-0.010010,-0.322148,1.999969
1488,306.828412,32.776379,-31.921874,-0.564462,0.457160,1.999969
1489,227.176318,46.570535,-39.063096,-0.316655,0.420050,0.853407
1490,77.943084,8.850233,20.080873,-0.395514,0.207034,0.193362
1491,65.491722,0.000000,33.386740,-0.140505,-0.088869,0.247074
1492,144.899672,15.747311,9.277485,-0.104738,-0.069459,0.261723
1493,133.913176,14.526589,2.685588,0.048219,0.131716,0.326909
1494,101.869230,15.747311,-2.380407,0.016968,0.073854,0.679210
1495,133.302815,21.972992,-14.099336,-0.017823,0.063355,0.976089
1496,163.027390,25.024796,-22.888533,-0.065553,0.093751,0.971572
1497,172.304875,22.278172,-24.963760,-0.109743,0.023316,1.010391
1498,190.127413,21.850919,-26.916915,-0.130617,-0.080079,1.167010
1499,213.138018,26.245518,-27.100023,-0.148562,-0.218753,1.104265
1500,234.256504,38.147555,-26.245518,-0.124880,-0.291875,0.931044
1501,238.101778,52.796216,-24.231327,-0.042725,-0.378546,0.725475
1502,234.317540,71.229114,-22.095064,0.038209,-0.414801,0.691905
1503,226.260777,84.290837,-18.249790,0.063600,-0.459724,0.760754
1504,223.514153,85.633631,-11.474784,-0.004028,-0.507088,0.928603
1505,225.772488,74.341955,0.000000,-0.085695,-0.543221,1.166400
1506,238.956283,60.059510,13.855192,-0.094972,-0.584726,1.265278
1507,255.252918,52.124819,26.245518,-0.055177,-0.596078,1.255390
1508,259.830625,50.537881,36.133364,-0.013550,-0.634775,1.217060
1509,260.440986,53.650721,42.847333,0.032227,-0.695933,1.167498
1510,256.046387,58.045319,47.852293,0.040284,-0.789197,1.146746
1511,245.853361,60.242618,53.345541,0.067140,-0.910414,1.166522
1512,234.134432,61.707485,58.472572,0.129274,-1.036271,1.187152
1513,222.537575,62.134737,61.951629,0.249027,-1.135149,1.151507
1514,211.917296,58.106355,61.951629,0.469368,-1.182391,0.812146
1515,194.216831,38.757916,55.054551,0.742687,-1.090471,0.467903
1516,157.228962,10.925460,40.344854,0.909438,-0.954238,0.421027
1517,117.921721,-10.742351,19.470512,0.790661,-0.906630,0.667979
1518,87.891966,-26.062409,1.770047,0.472908,-0.929458,0.869886
1519,73.853666,-34.485389,-12.878614,0.138796,-1.017350,0.768811
1520,50.598917,-36.255436,-20.080873,-0.209964,-1.079118,0.558968
1521,-6.958114,-19.653620,-23.376822,-0.753063,-2.000031,-1.554833
1522,-187.991150,12.024109,12.634470,-1.158465,-2.000031,-1.265888
1523,-491.889830,-267.154955,79.346914,-1.649439,-2.000031,1.999969
1524,-529.671168,-122.499428,-3.601129,1.999969,-2.000031,1.999969
1525,369.207294,54.627298,17.883574,0.088746,-0.745495,1.565332
1526,668.589303,118.776226,-128.847181,0.485237,-1.083024,-2.000031
1527,83.009079,47.058824,-47.364004,-0.852796,1.271138,-1.098039
1528,-296.818494,-71.534295,83.375296,0.392462,-0.249027,-0.949966
1529,-382.879377,-46.265354,84.046693,0.619150,-1.093156,1.920806
1530,-41.870756,10.803388,-19.104295,-0.337285,-1.165667,1.999969
1531,163.149462,2.868696,-11.718929,0.338384,0.314092,0.034546
1532,-26.367590,-7.202258,2.929732,0.239139,0.510018,0.887953
1533,-73.060197,-6.103609,8.728161,-0.309087,-0.085939,0.974624
1534,-5.127031,-11.108568,-0.671397,0.010742,0.041138,0.926650
1535,-40.344854,-15.564202,-1.770047,0.031617,-0.026856,1.083635
1536,-26.855879,-13.000687,-1.709010,-0.013062,-0.068605,1.007584
1537,-24.292363,-11.535821,-1.342794,0.083375,-0.048341,1.113664
1538,-24.353399,-7.751583,0.305180,0.040162,-0.114626,1.135027
1539,-5.310140,-2.258335,0.732433,0.066773,-0.015259,0.961929
1540,-15.991455,-2.624552,1.342794,0.002930,-0.016724,0.998428
1541,-16.968032,-3.295949,1.342794,0.030030,-0.076783,1.045548
1542,-9.643702,-2.197299,1.037613,0.040406,-0.029541,1.018570
1543,-11.169604,-1.709010,1.342794,0.019287,-0.064820,1.006729
1544,-9.033341,-2.075227,0.976577,0.000855,-0.051270,0.997330
1545,-7.324331,-2.990768,0.366217,0.011475,-0.038209,1.009049
1546,-9.704738,-3.234913,0.244144,0.002686,-0.048585,1.031632
1547,-6.408789,-3.234913,0.122072,0.011841,-0.052613,1.005142
1548,-7.507439,-3.418021,0.122072,0.012940,-0.043458,0.971817
1549,-9.338521,-3.540093,0.427253,0.023926,-0.055055,1.018570
1550,-7.446403,-3.356985,0.427253,0.020142,-0.051514,1.010025
1551,-7.507439,-3.295949,0.366217,0.029664,-0.052491,1.010025
1552,-7.507439,-2.929732,0.061036,0.027344,-0.071412,1.026383
1553,-4.882887,-1.953155,0.061036,0.044190,-0.073243,1.036515
1554,-3.295949,-0.549325,0.244144,0.034302,-0.070802,1.034073
1555,-0.976577,0.488289,0.244144,0.029786,-0.077516,1.030045
1556,1.770047,1.342794,0.366217,0.025391,-0.065309,1.004166
1557,1.403830,0.915541,0.549325,0.010376,-0.041627,0.963027
1558,-1.892119,0.000000,0.854505,0.018189,-0.036011,0.978531
1559,-4.028382,-0.244144,0.732433,0.020264,-0.049805,0.996597
1560,-3.051804,-0.366217,0.671397,0.025391,-0.053956,1.006119
1561,-3.601129,-0.061036,0.671397,0.018799,-0.064942,1.012100
1562,-1.403830,0.305180,0.671397,0.026001,-0.059937,1.012833
1563,-1.159686,0.610361,0.549325,0.021118,-0.059205,1.014176
1564,-0.854505,0.732433,0.183108,0.022583,-0.069581,1.022843
1565,0.915541,1.159686,0.183108,0.032959,-0.071290,1.029679
1566,3.356985,1.892119,0.061036,0.022461,-0.065309,1.020523
1567,4.943923,1.892119,0.000000,0.007691,-0.039185,0.971328
1568,1.403830,0.671397,-0.122072,0.003662,-0.035279,0.964981
1569,-1.037613,-0.671397,-0.427253,0.010010,-0.039063,0.973892
1570,-3.173877,-1.281758,-0.610361,-0.001343,-0.057252,0.999283
1571,-2.441444,-1.953155,-0.427253,0.026123,-0.065675,1.010391
1572,-0.305180,-1.831083,-0.427253,0.008911,-0.047974,0.993179
1573,-1.831083,-2.014191,-0.610361,0.031128,-0.050782,1.016495
1574,-1.220722,-1.464866,-0.732433,0.038819,-0.062501,1.024308
1575,0.122072,-0.183108,-0.549325,0.040528,-0.066896,1.023819
1576,1.403830,1.037613,-0.488289,0.036011,-0.064698,1.025284
1577,3.051804,2.197299,-0.183108,0.025391,-0.066163,1.012955
1578,4.272526,2.685588,-0.122072,0.019165,-0.058350,1.010636
1579,4.028382,2.746624,-0.305180,0.011231,-0.052613,1.002945
1580,4.211490,2.380407,-0.610361,0.020020,-0.052491,1.006363
1581,4.150454,2.441444,-0.732433,0.018555,-0.052369,1.018570
1582,4.577707,2.685588,-0.793469,0.016480,-0.064820,1.020523
1583,7.141222,3.051804,-0.732433,0.018799,-0.055055,1.012711
1584,7.141222,3.051804,-0.549325,0.025025,-0.055787,1.016007
1585,8.361944,3.784237,-0.732433,0.020752,-0.055909,1.028092
1586,9.948882,4.211490,-0.915541,0.024170,-0.063722,1.035416
1587,11.718929,5.065995,-0.671397,0.021607,-0.063600,1.035782
1588,14.526589,5.615320,-0.610361,0.013672,-0.056764,1.045792
1589,17.578393,6.225681,-1.037613,0.015015,-0.045777,1.017472
1590,18.799115,6.469825,-0.976577,0.014771,-0.042237,1.021500
1591,20.019837,6.469825,-0.793469,0.010376,-0.032471,1.020645
1592,22.583352,6.225681,-0.793469,-0.002197,0.005615,0.955215
1593,15.991455,4.821851,-0.549325,-0.002319,0.005982,0.940078
1594,13.061723,3.723201,-0.549325,-0.026246,0.008179,0.956435
1595,9.033341,1.892119,-0.427253,-0.008301,0.006104,0.964981
1596,5.676356,0.976577,-0.549325,-0.004028,-0.013916,0.985733
1597,6.713970,0.915541,-0.488289,0.002686,-0.018555,1.009049
1598,6.836042,0.671397,-0.549325,-0.005859,-0.007691,0.978775
1599,5.432212,-0.305180,-0.915541,-0.005371,-0.001343,0.980484
1600,4.211490,-1.037613,-0.915541,0.012940,-0.018677,1.013565
1601,5.737392,-0.488289,-0.671397,-0.000244,-0.028931,1.015885
1602,7.873655,-0.732433,-0.488289,-0.011109,-0.031006,1.005020
1603,9.887846,-1.098650,-0.427253,-0.005737,0.002075,0.974746
1604,7.873655,-1.403830,-0.244144,-0.032105,0.048219,0.866468
1605,-2.563516,-3.906310,0.549325,-0.005615,0.074586,0.915908
1606,-12.268254,-4.760815,0.488289,0.011597,0.008545,1.003922
1607,-10.803388,-4.577707,-0.122072,-0.003662,-0.030762,1.014420
1608,-8.422980,-4.638743,0.366217,0.018555,-0.039063,1.027237
1609,-5.127031,-4.028382,0.671397,0.025635,-0.061280,1.050187
1610,0.793469,-3.112840,0.976577,0.006836,-0.061036,1.059831
1611,7.568475,-3.112840,0.976577,-0.006226,0.006958,0.980850
1612,3.173877,-4.699779,0.854505,-0.004517,0.030152,0.927504
1613,-2.563516,-6.591897,0.366217,0.001221,0.025513,0.930190
1614,-7.446403,-8.850233,-0.549325,-0.004761,-0.020142,0.990372
1615,-5.432212,-9.704738,-1.220722,0.016602,-0.028077,1.039567
1616,-0.732433,-7.934691,-1.464866,0.066041,-0.007324,1.012833
1617,-5.004959,-5.004959,-1.098650,0.048341,-0.023438,1.038834
1618,-2.075227,-2.075227,-0.732433,0.031983,-0.021607,1.047379
1619,-0.122072,-0.671397,-0.244144,0.019409,-0.006226,0.996597
1620,-3.356985,-0.610361,-0.183108,0.031373,-0.032105,1.038834
1621,1.159686,1.525902,0.244144,0.044068,-0.020142,1.030167
1622,1.525902,4.028382,0.671397,0.026612,0.037720,0.941054
1623,-8.239872,2.502480,0.732433,-0.024659,-0.023072,0.991836
1624,-3.234913,1.098650,0.000000,0.026246,-0.028321,1.019547
1625,-0.732433,1.586938,-0.793469,0.031861,-0.000855,0.992325
1626,-5.371176,2.136263,-0.366217,0.036133,-0.022705,1.038346
1627,-1.342794,4.821851,-0.183108,0.040894,-0.027710,1.030900
1628,-0.793469,7.080186,0.671397,0.030762,-0.012329,0.994644
1629,-2.075227,7.995727,0.854505,-0.001953,-0.003662,0.983047
1630,-4.333562,7.202258,0.793469,-0.009155,-0.013428,0.993668
1631,-4.455634,6.103609,0.671397,-0.026612,-0.015503,0.981338
1632,-3.906310,3.967346,0.366217,-0.028809,-0.002808,0.957656
1633,-6.713970,0.976577,0.000000,-0.017212,-0.026734,0.988052
1634,-3.662165,-1.098650,-0.671397,-0.030640,-0.009400,0.967666
1635,-4.943923,-4.150454,-1.342794,-0.021118,0.003174,0.951675
1636,-10.803388,-5.798428,-1.098650,0.024903,-0.043336,1.032242
1637,-5.310140,-3.418021,-0.488289,0.031983,-0.033326,1.037003
1638,-5.981537,-1.037613,0.427253,0.031617,-0.034302,1.038956
1639,-4.333562,1.281758,1.037613,0.036866,-0.042115,1.033951
1640,-1.770047,3.540093,1.220722,0.015991,-0.011719,1.002579
1641,-5.615320,3.418021,1.586938,-0.008667,-0.038697,1.006119
1642,-1.098650,2.624552,1.159686,-0.011109,-0.038331,1.000748
1643,-0.732433,0.854505,0.671397,-0.024292,-0.017334,0.989761
1644,-0.915541,-1.709010,-0.244144,-0.024048,-0.011963,0.971084
1645,-2.685588,-4.272526,-1.098650,-0.015015,-0.033814,1.003555
1646,-0.732433,-5.004959,-1.342794,0.022217,-0.043458,1.017350
1647,0.915541,-4.150454,-0.915541,0.005371,-0.009277,0.987442
1648,-4.150454,-3.967346,-0.183108,0.014771,-0.021363,0.992081
1649,-3.173877,-2.807660,0.183108,0.013672,-0.018555,0.989029
1650,-6.469825,-2.197299,0.671397,0.018433,-0.030518,1.015396
1651,-5.432212,-1.525902,0.671397,0.011963,-0.033692,1.021500
1652,-4.028382,-0.732433,0.549325,0.016358,-0.023438,0.994278
1653,-5.676356,-0.793469,0.427253,0.010498,-0.029908,1.005631
1654,-4.089418,-0.976577,0.183108,0.000732,-0.017578,0.984268
1655,-6.042573,-2.075227,-0.488289,0.005737,-0.025391,1.007950
1656,-5.004959,-2.746624,-1.159686,0.014527,-0.043336,1.022965
1657,-3.479057,-1.770047,-1.159686,0.027344,-0.043580,1.016739
1658,-3.295949,-0.488289,-0.427253,0.021363,-0.038453,1.021500
1659,-2.441444,0.488289,0.000000,0.010620,-0.036378,1.009049
1660,-2.441444,0.610361,0.061036,0.007446,-0.035401,0.995987
1661,-2.929732,0.427253,0.061036,0.003052,-0.036011,0.994400
1662,-2.258335,0.183108,0.000000,0.006958,-0.035889,1.007706
1663,-2.075227,0.244144,-0.122072,0.008057,-0.041749,1.001236
1664,-1.770047,0.000000,-0.366217,-0.001587,-0.034546,1.005875
1665,-0.915541,-0.671397,-0.671397,0.010132,-0.040650,1.008927
1666,0.610361,-0.488289,-0.915541,0.009888,-0.046143,1.017838
1667,1.953155,-0.305180,-1.159686,0.016602,-0.048341,1.029923
1668,4.455634,0.427253,-1.281758,0.022461,-0.045289,1.029557
1669,4.150454,1.586938,-1.037613,0.022827,-0.059327,1.031144
1670,7.568475,2.807660,-1.037613,0.011963,-0.033570,1.010147
1671,9.582666,2.929732,-1.342794,-0.021729,0.006592,0.901869
1672,1.220722,0.671397,-0.976577,-0.000732,0.030518,0.921157
1673,-6.713970,-0.549325,-0.854505,-0.015625,-0.034668,1.010025
1674,-2.502480,-0.549325,-1.098650,0.021485,-0.052247,1.026871
1675,-0.183108,0.488289,-0.915541,0.007202,-0.034180,0.999893
1676,-0.488289,0.732433,-0.366217,0.006836,-0.033326,1.005142
1677,0.000000,0.549325,-0.244144,-0.004883,-0.021363,0.997208
1678,-0.061036,-0.122072,-0.305180,-0.003174,-0.030274,1.006973
1679,0.671397,-0.854505,-0.793469,0.000366,-0.034302,1.000137
1680,1.831083,-0.854505,-0.915541,0.005615,-0.037354,1.014420
1681,2.746624,-0.427253,-0.610361,0.004395,-0.023194,0.999283
1682,1.953155,-0.610361,-0.427253,0.002319,-0.035645,1.007462
1683,4.821851,-0.488289,-0.610361,-0.000610,-0.028931,1.008560
1684,4.638743,-0.488289,-0.854505,0.001465,-0.015137,0.992203
1685,0.610361,-1.159686,-0.366217,-0.000610,-0.028443,1.010025
1686,3.845274,-1.037613,-0.427253,0.007446,-0.027710,1.000015
1687,3.356985,-1.281758,-0.366217,0.000732,-0.026856,0.997086
1688,2.624552,-1.647974,-0.122072,0.000488,-0.026368,1.007706
1689,3.356985,-1.709010,0.000000,0.008179,-0.029297,1.008072
1690,4.333562,-1.403830,0.061036,0.007324,-0.018311,1.011368
1691,4.516670,-1.159686,0.305180,0.008911,-0.020020,1.004776
1692,4.943923,-0.793469,-0.122072,0.014282,-0.016846,0.993301
1693,2.502480,-0.915541,0.000000,0.005737,-0.008301,0.995254
1694,3.173877,-1.403830,-0.366217,0.012573,-0.039551,0.980606
1695,3.967346,-1.220722,-0.427253,-0.035889,0.024292,0.974136
1696,-0.183108,-2.868696,0.000000,0.006470,0.003052,0.976944
1697,-0.915541,-2.624552,0.122072,0.012207,-0.029786,0.991104
1698,-0.549325,-1.831083,0.305180,0.017212,-0.009644,1.015396
1699,-1.770047,-1.159686,0.488289,0.009766,-0.026123,1.024918
1700,0.061036,-0.427253,0.366217,0.009888,-0.025147,1.003433
1701,0.122072,0.061036,0.061036,0.015747,-0.019409,1.002213
1702,-0.122072,0.122072,0.000000,-0.001099,-0.018799,1.007462
1703,0.976577,-0.305180,-0.122072,0.002075,-0.013062,0.992569
1704,0.427253,-0.854505,-0.305180,0.003418,-0.025879,1.015152
1705,2.502480,-0.915541,0.183108,0.000732,-0.031861,1.006607
1706,4.699779,-0.854505,0.793469,0.017334,-0.008545,0.999283
1707,1.586938,-0.671397,0.671397,0.006714,-0.014160,1.001358
1708,2.624552,-0.244144,0.366217,0.011231,-0.009400,1.006241
1709,0.488289,-0.183108,0.061036,0.012451,-0.005249,0.994888
1710,-0.183108,-0.061036,-0.183108,-0.001709,-0.009155,0.995865
1711,-0.732433,-0.305180,-0.366217,0.008423,-0.015625,1.001724
1712,-0.183108,-0.488289,-0.305180,0.007080,-0.017578,1.006485
1713,0.915541,-0.366217,-0.244144,0.003662,-0.020752,1.005753
1714,2.441444,-0.549325,0.183108,0.003418,-0.038209,1.016739
1715,3.967346,-0.244144,0.427253,0.008667,-0.011963,1.010269
1716,3.662165,-0.183108,0.549325,0.024170,-0.011353,1.016251
1717,4.150454,0.305180,0.305180,0.003662,-0.007935,0.994522
1718,1.709010,-0.122072,0.183108,0.002808,-0.009888,0.991348
1719,1.342794,-0.427253,0.183108,0.010864,-0.010864,0.990738
1720,1.281758,-0.915541,0.122072,-0.000244,-0.006348,0.985855
1721,0.915541,-1.220722,-0.122072,-0.001831,-0.037842,1.002701
1722,3.356985,-1.342794,0.366217,0.000366,-0.010254,0.994034
1723,3.173877,-1.220722,1.647974,-0.000244,-0.010620,0.993668
1724,3.479057,-1.037613,2.746624,0.014771,-0.008057,1.005631
1725,2.380407,-0.732433,1.831083,0.024414,0.001221,0.980728
1726,-0.061036,-0.610361,0.976577,0.007080,-0.004395,0.994766
1727,-0.915541,-0.732433,0.427253,0.008667,-0.006226,1.004166
1728,-0.915541,-0.610361,-0.183108,0.009644,-0.006958,0.994278
1729,-1.403830,-0.793469,-0.122072,0.004028,-0.014893,0.995132
1730,1.098650,-0.854505,0.061036,-0.002808,-0.014405,1.006729
1731,2.380407,-1.342794,0.854505,0.007324,-0.013794,1.005020
1732,2.258335,-1.281758,1.525902,-0.002441,-0.011841,1.000626
1733,2.441444,-1.647974,2.441444,0.013184,0.004028,0.998672
1734,0.732433,-1.586938,1.831083,0.018677,-0.007324,0.997208
1735,0.183108,-1.159686,1.403830,0.007324,0.003418,0.983291
1736,-1.525902,-1.403830,0.793469,0.012207,0.004273,0.985611
1737,-3.051804,-1.220722,0.488289,0.004395,-0.013916,1.009293
1738,-1.037613,-1.403830,0.549325,0.008789,-0.011963,0.998672
1739,0.061036,-1.342794,0.976577,0.001099,-0.011719,1.004166
1740,0.000000,-1.342794,1.586938,0.012696,-0.008545,1.010513
1741,0.427253,-1.037613,1.586938,0.011109,-0.001465,1.002945
1742,-0.061036,-1.098650,1.342794,0.007202,-0.005615,1.003555
1743,0.000000,-1.037613,0.549325,0.005982,-0.013550,0.999893
1744,-0.061036,-1.342794,0.549325,0.000366,-0.004517,0.994522
1745,-0.305180,-1.586938,0.671397,0.009888,-0.005005,0.998550
1746,-0.610361,-1.586938,1.037613,0.002441,-0.021485,1.002335
1747,3.295949,-1.342794,2.685588,0.007935,-0.010742,0.998672
1748,1.831083,-1.342794,2.563516,0.061646,0.023438,1.003433
1749,1.525902,0.061036,1.037613,-0.032837,0.003784,0.985000
1750,-1.831083,-1.525902,2.136263,0.011475,-0.010620,0.982193
1751,0.122072,-0.671397,2.441444,0.004883,0.004150,1.011246
1752,-1.586938,-0.793469,1.770047,0.020264,0.006836,0.990372
1753,-2.868696,-0.549325,0.671397,0.013916,-0.003540,1.012222
1754,-1.403830,-0.305180,0.000000,0.013062,-0.013184,1.008072
1755,-1.098650,-0.305180,0.000000,0.014038,-0.005982,0.997818
1756,-0.549325,-0.305180,0.000000,0.000244,-0.012573,0.997574
1757,-0.183108,-1.037613,0.183108,0.006226,-0.001831,1.002579
1758,0.305180,-1.220722,0.488289,0.011841,-0.007568,1.000137
1759,0.122072,-1.037613,0.732433,0.012207,-0.006592,0.994156
1760,-0.061036,-0.732433,0.793469,0.010376,0.005493,0.987930
1761,-2.075227,-0.854505,0.366217,0.010498,0.005371,0.985489
1762,-2.868696,-0.671397,0.122072,0.016602,-0.000732,0.988907
1763,-4.089418,-0.427253,-0.366217,0.009522,-0.004273,1.002823
1764,-3.845274,-0.183108,-0.488289,0.010376,-0.008179,0.994400
1765,-4.028382,-0.183108,-0.610361,0.015991,-0.005615,0.994034
1766,-4.028382,-0.061036,-0.732433,0.006104,-0.011719,1.007340
1767,-2.502480,0.000000,-0.793469,0.005615,-0.011109,1.003799
1768,-1.159686,-0.061036,-0.976577,0.013062,-0.006714,1.009659
1769,-1.037613,0.122072,-1.586938,0.012696,-0.006836,1.007095
1770,-1.892119,0.244144,-2.563516,0.017578,-0.004273,1.005020
1771,-1.892119,0.427253,-3.906310,0.024659,0.001343,0.998306
1772,-3.173877,0.915541,-6.408789,0.005493,-0.010010,0.995499
1773,-1.709010,0.183108,-4.943923,0.001831,-0.003174,0.995010
1774,-1.770047,0.061036,-3.234913,0.005615,0.000488,1.010025
1775,-0.305180,0.366217,-3.540093,0.016968,-0.008667,1.009659
1776,-0.976577,0.610361,-3.784237,0.003540,-0.011597,0.994156
1777,-1.220722,0.366217,-2.685588,0.011963,-0.004273,0.997574
1778,-0.671397,0.976577,-3.601129,0.008789,-0.007568,1.009781
1779,1.037613,1.342794,-4.638743,0.006226,-0.009644,1.004898
1780,2.685588,1.464866,-5.188067,0.005859,-0.016846,1.001114
1781,2.441444,1.342794,-4.821851,-0.000610,-0.016480,0.997452
1782,1.403830,0.854505,-4.272526,0.003784,-0.007691,1.015396
1783,0.122072,0.488289,-2.746624,-0.001709,-0.002197,0.997940
1784,-2.258335,-0.183108,-2.258335,0.003784,-0.004028,0.991348
1785,-2.563516,-0.366217,-1.770047,-0.000488,-0.005249,0.985611
1786,-3.051804,-0.732433,-1.342794,0.006714,-0.001831,0.994888
1787,-2.136263,-0.488289,-1.037613,-0.003662,-0.006104,0.997818
1788,-2.136263,-0.732433,-0.976577,0.008179,-0.005982,0.992447
1789,-3.418021,-0.793469,-0.976577,-0.001831,-0.007446,0.993301
1790,-3.601129,-0.854505,-0.854505,0.008057,-0.001831,0.994156
1791,-4.638743,-0.610361,-0.793469,0.003174,-0.011109,1.005386
1792,-4.760815,-0.610361,-0.793469,0.009033,-0.015259,1.002945
1793,-3.906310,-0.061036,-0.976577,0.004761,-0.015869,1.015274
1794,-2.441444,0.244144,-1.525902,0.011841,-0.011231,1.011734
1795,-2.014191,0.305180,-2.929732,0.003662,-0.016114,1.011124
1796,-0.488289,0.427253,-3.601129,0.005249,-0.002319,1.004898
1797,-0.976577,0.305180,-3.723201,-0.001831,-0.004395,1.004654
1798,-1.770047,-0.061036,-2.929732,-0.006470,-0.013306,0.997940
1799,-2.685588,-0.061036,-2.441444,0.004028,-0.016480,0.997818
