Packet number,Gyroscope X (deg/s),Gyroscope Y (deg/s),Gyroscope Z (deg/s),Accelerometer X (g),Accelerometer Y (g),Accelerometer Z (g)
0,0.30518,0.0,0.0,0.002441,-0.000977,0.9994049999999999
4,-0.122072,-0.061036,0.0,0.006836,-0.003662,0.9976959999999999
8,-0.427253,-0.244144,0.0,-0.00293,0.001343,0.997086
12,-0.183108,-0.244144,-0.122072,0.004517,0.001343,1.001724
16,0.0,0.0,0.0,0.0063479999999999995,0.0058590000000000005,1.000992
20,0.0,-0.244144,0.0,0.005249,-0.001465,0.999283
24,-0.427253,-0.427253,0.0,0.001953,-0.00061,1.006363
28,-0.671397,-0.061036,-0.183108,-0.004761,0.004028,0.99379
32,-0.244144,-0.061036,-0.244144,0.006836,-0.00061,0.993423
36,0.366217,0.122072,0.0,0.003052,0.001953,1.001846
40,-0.061036,-0.122072,-0.122072,0.0023190000000000003,-0.000366,1.002579
44,-0.061036,0.061036,-0.183108,0.005005,-0.0008550000000000001,0.995499
48,0.0,0.061036,0.0,-0.002564,0.0,0.996475
52,0.0,0.122072,0.0,0.000977,-0.000122,0.997086
56,-0.061036,0.0,0.0,0.001221,0.005249,0.998917
60,0.0,0.061036,0.0,0.004517,0.0015869999999999999,0.993057
64,-0.30518,0.0,-0.122072,0.003052,0.004639,1.000259
68,-0.122072,0.061036,-0.122072,-0.000732,-0.003296,0.9973299999999999
72,-0.244144,-0.061036,0.0,0.007568000000000001,-0.0028079999999999997,1.005509
76,-0.122072,0.244144,0.0,-0.000122,-0.003296,1.000748
80,0.244144,0.30518,-0.183108,-0.001343,0.004883,0.9869540000000001
84,-0.183108,0.244144,0.0,0.005005,-0.00415,1.005509
88,0.30518,0.48828900000000003,-0.122072,0.002075,0.001709,0.998917
92,0.183108,0.671397,-0.183108,-0.003052,-0.001465,1.002335
96,-0.061036,0.48828900000000003,0.0,-0.001221,-0.002075,0.988785
100,-0.30518,0.0,-0.183108,-0.001709,0.000488,1.0036770000000002
104,-0.366217,0.183108,-0.183108,0.0008550000000000001,0.0021969999999999997,0.996475
108,-0.122072,-0.061036,-0.183108,0.001343,0.001953,0.991714
112,-0.183108,-0.427253,-0.183108,-0.0021969999999999997,0.001343,0.9946440000000001
116,-0.244144,-0.061036,0.0,-0.005249,-0.0021969999999999997,0.9946440000000001
120,-0.061036,-0.549325,0.244144,-0.0051270000000000005,-0.0051270000000000005,0.9945219999999999
124,-0.122072,-1.159686,0.0,-0.011597,0.0,0.9901270000000001
128,2.624552,-1.281758,-0.183108,0.033448,0.022461000000000002,0.9830469999999999
132,0.122072,0.061036,0.0,-0.00293,-0.001709,0.9987950000000001
136,0.30518,-0.671397,0.30518,-0.001953,-0.005982,1.000381
140,10.681315,-1.525902,-0.9155409999999999,0.007812999999999999,-0.0058590000000000005,0.91725
144,2.929732,-0.48828900000000003,0.183108,0.002564,0.004883,0.968643
148,0.6103609999999999,-1.09865,0.122072,0.011231,0.004761,1.010025
152,11.047532,0.976577,-0.732433,0.005737,0.007568000000000001,1.024674
156,2.319371,-0.549325,-0.671397,-0.015625,0.05712999999999999,0.9037
160,1.037613,-0.366217,-0.183108,0.00293,0.020386,1.015274
164,2.075227,-0.549325,-0.366217,0.0058590000000000005,0.00415,1.018326
168,-2.746624,-4.089418,0.976577,0.0070799999999999995,0.009033,0.996719
172,6.042573,1.159686,1.342794,0.008423,0.011840999999999999,0.985977
176,-1.037613,2.319371,1.159686,0.010986,0.014649,1.008194
180,2.4414439999999997,2.685588,0.671397,0.0021969999999999997,0.023926,0.995499
184,0.061036,-2.197299,0.48828900000000003,-0.009888,0.020142,0.985733
188,3.784237,1.09865,0.854505,0.064454,0.020874,1.0628819999999999
192,-2.868696,16.84596,0.671397,0.005005,0.02295,1.003555
196,0.0,11.718929,0.366217,-0.034058,0.025513,0.958633
200,-0.427253,4.150454,-0.366217,-0.011109,0.007201999999999999,1.0251620000000001
204,-2.50248,4.699779,0.244144,-0.025391,0.029297000000000004,0.9867090000000001
208,-7.812619000000001,2.075227,0.427253,-0.031006,0.020752,0.987808
212,-8.667124000000001,-1.40383,-0.30518,-0.038819,0.011475,1.000259
216,-10.620279,-3.967346,-0.549325,-0.025879000000000003,0.0023190000000000003,0.9834129999999999
220,-12.207218,-10.742351,0.244144,-0.04004,-0.0008550000000000001,0.9782860000000001
224,-14.099336,-16.296635000000002,0.366217,-0.024413999999999998,-0.017212,0.9871979999999999
228,-13.305867000000001,-13.794156,1.09865,0.014405000000000001,-0.022095,0.964736
232,-22.217136,-20.386053,0.732433,0.021118,-0.05505499999999999,1.036759
236,-18.24979,-14.404517000000002,2.319371,0.048707,-0.039063,1.011002
240,-22.217136,-6.958114,2.319371,0.039063,-0.041016000000000004,1.028946
244,-20.386053,-7.01915,0.427253,0.052979,-0.023681999999999998,1.022232
248,-44.61738,-0.793469,2.2583349999999998,0.017334,-0.07910299999999999,1.101823
252,-37.354085999999995,10.681315,-3.723201,0.019532,-0.142824,0.9792629999999999
256,-26.67277,19.165332,-0.6103609999999999,0.060303999999999996,-0.07434199999999999,1.225116
260,-115.175097,12.817578,12.756542,-0.061646000000000006,-0.005737,0.8886850000000001
264,-369.939727,30.029754999999998,48.950942,0.326299,0.07715,1.739528
268,-524.727245,231.998169,96.986343,-0.96791,-0.599374,1.9999689999999999
272,-6.469825,11.535821,40.772107,-0.23267,0.7048449999999999,0.925063
276,2.075227,7.568475,-10.193027,0.455451,0.544442,0.7371939999999999
280,93.080034,-54.566262,-57.862211,0.167605,0.453376,0.9959870000000001
284,186.58732,-41.138323,-72.327764,-0.221561,0.238529,1.324727
288,217.410544,-26.733806,-40.650034000000005,-0.229496,0.009888,0.933364
292,179.018845,14.282444,-44.983596999999996,-0.002686,-0.042115,1.230365
296,241.21461800000003,28.870069,-42.847333,-0.044433999999999994,-0.269413,1.7861599999999997
300,214.9691,27.832456,-42.725260999999996,0.14648699999999998,-0.501595,1.459861
304,187.50286100000002,-4.028382,-39.00206,-0.007935,-0.559945,1.451804
308,190.676738,28.503853000000003,-28.198672,-0.034546,-0.6953229999999999,1.8298619999999999
312,161.501488,35.523003,-29.236286,0.06652899999999999,-0.916884,1.033951
316,94.056611,22.46128,-5.249104,0.05285700000000001,-1.556176,0.45386400000000005
320,-101.808194,-16.662851999999997,32.349126,0.26392,-1.537987,-0.453376
324,-118.95933500000001,-33.38674,-25.391012,-0.29443800000000003,1.0601969999999998,1.9999689999999999
328,-205.996796,-43.457694000000004,49.011978000000006,0.713268,-0.165408,1.9999689999999999
332,-89.051652,5.493248,12.207218,-0.911391,-0.069215,1.162615
336,-40.833143,-20.019837,1.342794,0.327276,-0.229129,1.333516
340,-21.423667000000002,-16.540779999999998,0.0,-0.07715,0.056031,0.946426
344,-20.386053,-17.94461,-0.183108,0.061402,-0.059204999999999994,1.088518
348,-7.873655,-4.577707,3.479057,0.064576,0.028076999999999998,1.076677
352,-0.9155409999999999,-2.319371,0.9155409999999999,0.028564999999999997,0.034424,0.950332
356,-5.7984279999999995,-0.732433,1.8921189999999999,0.053101,0.050172,1.02443
360,-2.319371,0.48828900000000003,2.075227,0.009155,0.014893,1.0036770000000002
364,0.061036,-5.9205,0.061036,0.006836,0.053956,0.909071
368,-8.728161,-3.356985,1.40383,0.039429,0.011963,0.9820709999999999
372,-10.620279,-4.943923000000001,1.40383,0.011840999999999999,0.023316,0.917006
376,-18.371862,-9.948882000000001,0.793469,0.07422000000000001,-0.01709,1.008194
380,-23.498894,-3.479057,2.563516,0.067628,-0.031861,1.008316
384,-26.916915000000003,-4.089418,4.394598,0.054810000000000005,-0.053467999999999995,0.984024
388,-27.405203000000004,-2.929732,1.8921189999999999,0.029907999999999997,-0.046876,0.966567
392,-52.796216,0.6103609999999999,-5.676356,-0.002441,0.0271,1.0404209999999998
396,-90.150301,8.178836,-37.170977,-0.037476,-0.019165,0.973037
400,-81.177996,23.437858,6.836042,0.083986,0.16968,0.956802
404,-254.03219700000002,-15.991454999999998,6.469825,0.21252800000000002,1.190814,0.581918
408,-755.504692,-157.534142,84.473945,0.306035,-0.243412,0.805188
412,210.208286,66.77348,-77.57686700000001,-0.315679,0.909316,1.9999689999999999
416,147.89043999999998,-10.376135000000001,-18.371862,-0.105348,0.342046,0.866224
420,126.95506200000001,29.297321999999998,-27.038987,-0.041505,0.27869099999999997,0.551766
424,185.061418,17.090104999999998,-26.184482,-0.006592,0.271122,1.671534
428,281.92568900000003,44.068055,-25.635157,0.00061,-0.140627,1.095109
432,283.329519,25.329976000000002,-27.405203000000004,0.312627,-0.181765,1.188251
436,229.80087000000003,74.708171,-73.548486,0.348394,-0.367681,1.096452
440,229.190509,71.229114,-70.435645,-0.044923000000000005,-0.7913939999999999,1.9999689999999999
444,265.323873,74.586099,-17.639429,-0.018433,-1.0247959999999998,1.9999689999999999
448,237.18623599999998,59.449149,4.272526,0.13305899999999998,-1.088518,1.2724799999999998
452,160.83009099999998,60.975052000000005,12.756542,0.49353800000000003,-2.0000310000000003,0.645884
456,-10.559242999999999,56.153201,17.883574,-0.20056500000000002,-1.9016400000000002,-0.016968
460,-182.37583,-74.158846,58.838788,0.26758200000000004,-0.431403,0.865614
464,-270.695048,-69.88632,51.087205,0.7384149999999999,-0.396246,1.270405
468,-80.445563,51.758602,-16.235599,-0.660655,-0.035401,1.331685
472,-63.294422999999995,-69.03181500000001,26.550697999999997,0.8847790000000001,0.06958099999999999,1.7491720000000002
476,-44.007019,-17.700464999999998,3.234913,0.26306599999999997,-0.055177,1.265888
480,-19.592584,-8.972305,0.48828900000000003,0.0043950000000000005,-0.00415,1.059709
484,-14.587625,-0.976577,2.380407,0.0051270000000000005,0.0063479999999999995,1.036271
488,-10.681315,-6.897078,2.4414439999999997,0.0023190000000000003,0.105226,1.003433
492,-8.606088,-2.80766,1.525902,0.014771000000000001,0.014159999999999999,1.0085600000000001
496,-10.315099,-0.6103609999999999,2.50248,-0.049317,0.163699,1.263325
500,-10.131991000000001,-4.028382,2.014191,-0.028443,-0.012695999999999999,0.942031
504,-21.789883,-9.155413000000001,2.685588,0.031983,-0.036988,1.016251
508,-9.155413000000001,-3.051804,1.8921189999999999,0.034791,-0.083009,0.973281
512,-22.827497,-10.193027,2.563516,0.018799,-0.039307,0.985367
516,-23.071641,-3.173877,2.929732,0.035157,-0.064698,1.0396889999999999
520,-22.46128,-3.784237,3.6621650000000003,0.022705,-0.080568,1.012589
524,-28.686961,2.014191,9.155413000000001,0.014405000000000001,-0.093019,1.023331
528,-49.439231,0.366217,1.09865,-0.00061,-0.053223,0.9945219999999999
532,-50.110628000000005,5.0049589999999995,-23.804074,-0.13806400000000002,0.06225700000000001,1.137713
536,-41.748684000000004,-5.0049589999999995,-12.756542,0.054444000000000006,0.05005,0.9793850000000001
540,-151.491569,-5.249104,10.620279,0.038575,0.999649,1.120989
544,-778.1490809999999,-46.753643,83.55840400000001,0.365118,0.052125,1.168841
548,255.130846,-21.911955,-36.926833,-0.41358100000000003,0.7581899999999999,1.9999689999999999
552,75.806821,-16.968032,-7.2022580000000005,0.010986,0.376226,0.989395
556,146.059358,-8.911269,-39.612421000000005,-0.177859,0.393317,1.081559
560,198.977646,-15.075914000000001,-28.381781,-0.261357,0.194217,0.9544819999999999
564,247.68444300000002,9.399557000000001,-9.582666,-0.133303,0.056275,1.252705
568,298.40543199999996,34.485389,-26.977951,0.147341,-0.250492,1.1122
572,217.959869,41.077287,-48.889905999999996,0.14111500000000002,-0.25390999999999997,1.624292
576,256.16846,73.914702,-62.867169999999994,-0.033326,-0.478523,1.9999689999999999
580,231.87609700000002,89.53994,-57.007706000000006,-0.124392,-0.838148,1.990387
584,245.426108,92.835889,-19.592584,0.124758,-0.940688,1.7077900000000001
588,183.230335,55.664912,15.991454999999998,0.321294,-1.7557639999999999,0.911025
592,56.702525,99.732967,-28.809033000000003,0.24560900000000002,-2.0000310000000003,-0.235721
596,-197.146563,-135.500114,82.70389899999999,0.23328000000000002,-1.061906,-0.511604
600,-288.76173,-141.237507,89.17372399999999,0.9480129999999999,0.244144,0.020386
604,-128.969253,19.775692000000003,-22.522316,0.272099,-0.13000699999999998,1.966705
608,-57.129778,-88.258183,40.894179,0.835584,0.474128,1.9999689999999999
612,-32.776379,-52.368963,4.699779,0.488533,0.123171,1.339132
616,-22.400244,-23.620966,0.0,0.12842,0.039185000000000005,0.9835360000000001
620,-25.391012,-10.437171000000001,4.760815,0.007812999999999999,0.030274000000000002,1.122576
624,-23.86511,-6.897078,2.929732,0.040772,-0.008179,0.9519190000000001
628,-19.043259,-9.460594,1.342794,0.046876,-0.023926,1.0251620000000001
632,-14.770732999999998,-5.065995,1.40383,0.083497,-0.10547000000000001,1.005142
636,-15.381094000000001,-4.455634,0.30518,0.064088,-0.064698,1.017594
640,-9.216449,-3.967346,0.793469,0.043458,-0.048829000000000004,0.973404
644,-14.404517000000002,-6.2867169999999994,0.244144,0.059327,-0.049317,0.9973299999999999
648,-7.568475,-1.8310830000000002,2.746624,0.043213999999999995,-0.03418,0.969741
652,-15.930419,-7.9957270000000005,0.732433,0.06225700000000001,-0.044677999999999995,0.9950100000000001
656,-25.635157,-2.563516,1.8921189999999999,0.086427,-0.037232,1.0046540000000002
660,-26.184482,1.7700470000000001,7.812619000000001,0.056031,-0.052490999999999996,0.966934
664,-58.3505,1.647974,-8.1178,0.054932,-0.064942,1.009903
668,-58.533607999999994,9.52163,-38.69688,0.07470800000000001,-0.167605,0.993423
672,-75.44060400000001,24.658579,3.1128400000000003,0.043336,0.31555700000000003,0.932753
676,-315.12932,-46.448463000000004,-35.034714,-0.143679,0.413703,1.3355920000000001
680,-846.6926070000001,-213.809415,115.54131399999999,0.729259,-0.610849,1.641627
684,227.96978700000003,87.098497,-83.009079,-0.303471,1.375509,1.609522
688,178.225376,-18.982223,23.804074,-0.123537,0.364019,0.760143
692,188.41840200000001,32.104982,-21.423667000000002,0.23559899999999998,0.284184,0.626108
696,204.53193000000002,29.17525,-56.397344999999994,0.051148,0.100832,1.051041
700,266.422522,52.67414399999999,-48.82887,-0.022216999999999997,-0.11621300000000001,1.456809
704,256.35156800000004,86.4271,-49.561303,0.204715,-0.521492,0.641733
708,176.882582,78.553445,-53.284504000000005,0.24365599999999998,-0.3075,1.9999689999999999
712,239.261463,93.385214,-62.806134,0.239139,-0.6655369999999999,1.9999689999999999
716,266.483558,76.173037,-66.22415500000001,0.39014299999999996,-0.714488,1.495506
720,207.888914,70.618753,-83.863584,0.15149200000000002,-0.8379030000000001,1.136492
724,113.03883400000001,83.863584,-53.223468000000004,-0.083497,-1.455589,0.832166
728,21.606775,29.358358000000003,35.217822999999996,0.279423,-1.825711,0.12842
732,-52.124819,-37.781338,111.024643,0.039796,-0.901991,1.014542
736,-103.212024,-82.52079,60.364691,0.488167,1.3927209999999999,0.944961
740,-237.064164,-47.119859999999996,43.152514000000004,1.065202,-0.11877599999999999,1.9999689999999999
744,-96.55909100000001,-25.940337,34.668498,-0.806531,-0.45301,1.572168
748,-45.777066,-40.588998,17.395285,-0.317144,0.024781,1.299825
752,-30.090790999999996,-32.593271,2.014191,0.031495,-0.006104,1.217914
756,-24.597542999999998,-6.897078,2.563516,0.091554,0.060548000000000005,1.009049
760,-21.179522,7.873655,4.882887,0.088014,0.063966,1.02211
764,-22.888533,10.437171000000001,4.028382,0.029297000000000004,-0.016602000000000002,0.9969629999999999
768,-19.470512,7.2022580000000005,3.90631,-0.008911,-0.010131999999999999,1.033951
772,-17.029068,-0.732433,2.685588,-0.006714,-0.038331,0.995865
776,-16.84596,-5.554284,2.319371,0.006836,-0.044923000000000005,0.9973299999999999
780,-12.32929,-9.094377,1.40383,0.0177,-0.078126,0.9747459999999999
784,-17.94461,-16.84596,-0.671397,0.037598,-0.09777999999999999,1.0047760000000001
788,-23.254749,-16.174563,-1.09865,0.034058,-0.060792,1.024063
792,-25.26894,-14.221407999999998,2.746624,0.03418,-0.07470800000000001,0.981949
796,-26.245518,-5.371176,3.90631,0.07910299999999999,-0.098756,1.002701
800,-30.823224,1.7700470000000001,11.413748,0.051026,-0.130251,1.009293
804,-37.720302000000004,-3.540093,-2.990768,0.0008550000000000001,-0.100954,0.987808
808,-53.955901000000004,6.408789,-46.32639,0.143069,-0.271122,1.014786
812,-43.945983,5.859464,-3.418021,0.080201,0.106813,0.9867090000000001
816,-180.361639,-23.682002,5.554284,-0.14111500000000002,0.8802620000000001,1.1393
820,-770.641642,-216.433967,23.254749,-0.161135,-0.194949,0.9710840000000001
824,277.958343,16.662851999999997,-37.781338,-0.44568599999999997,0.5785,1.9999689999999999
828,25.940337,-8.361944,49.683375,-0.11413699999999999,0.151858,1.214374
832,140.32196499999998,7.263294,1.037613,0.296757,0.46424,1.058732
836,219.54680699999997,1.464866,-36.621653,-0.0008550000000000001,0.166506,0.878309
840,254.70359399999998,15.869383,-19.34844,-0.2981,-0.199466,1.131975
844,298.771649,47.547112,-2.136263,-0.093141,-0.4701,1.298116
848,207.522698,75.684749,3.540093,0.122927,-0.617197,1.040909
852,219.302663,53.528649,-36.49958,0.50135,-0.530404,1.9999689999999999
856,244.693675,49.439231,-66.22415500000001,0.035157,-0.692515,1.900298
860,223.025864,69.764248,-72.449836,0.06225700000000001,-0.712413,1.4060270000000001
864,178.896773,81.605249,-68.726635,0.042725,-0.8531620000000001,1.2201110000000002
868,110.29221000000001,65.125505,-27.588312,0.2262,-1.594263,0.802014
872,-0.9155409999999999,17.029068,21.972992,0.255253,-1.716091,0.037110000000000004
876,-115.968566,-112.062257,62.012665000000005,0.00415,-0.7048449999999999,0.622324
880,-299.25993700000004,-138.673991,61.097124,0.530037,0.281254,-0.9668120000000001
884,-150.331884,26.428626,-11.718929,0.316899,-0.038819,1.340352
888,-52.552071,-65.980011,31.616692999999998,1.307027,0.46997799999999995,1.9466849999999998
892,-32.898451,-35.950256,2.50248,0.44812700000000005,0.188479,1.404685
896,-21.850919,-14.526589000000001,2.4414439999999997,-0.06384400000000001,-0.0094,1.00734
900,-16.906996,-9.033341,2.990768,0.080079,0.0035399999999999997,1.077775
904,-20.325017000000003,-5.737392,3.723201,-0.024291999999999998,-0.000732,0.984878
908,-16.968032,-4.760815,2.80766,0.015991,-0.030762,1.078019
912,-20.019837,3.723201,2.685588,0.011353,-0.033936,1.017227
916,-16.601816,7.080186,4.028382,-0.016968,-0.041260000000000005,0.999283
920,-16.662851999999997,1.525902,2.014191,-0.019409,-0.072389,1.06215
924,-7.9957270000000005,-1.70901,0.976577,-0.019409,-0.04712,0.967666
928,-17.822538,-4.577707,0.976577,-0.013672,-0.066285,0.993423
932,-22.278172,-8.300908,0.549325,-0.00061,-0.076173,0.9907379999999999
936,-30.457008000000002,-8.484016,0.366217,0.013793999999999999,-0.07324299999999999,0.9950100000000001
940,-33.813992999999996,-3.051804,6.103609,0.033692,-0.116823,1.010025
944,-32.471199,-5.737392,5.0049589999999995,-0.004517,-0.130617,0.977798
948,-40.283818,-10.376135000000001,-4.699779,-0.006226,-0.1626,0.980606
952,-56.641489,3.6011290000000002,-48.218509000000005,0.091066,-0.30518,1.046281
956,-45.777066,-5.493248,-8.789197,0.033692,-0.075563,0.965591
960,-111.329824,-4.5166699999999995,-14.160372,0.042115,0.30518,0.885634
964,-680.674449,-43.457694000000004,26.67277,-0.070069,-0.281621,1.308858
968,-335.149157,-119.26451499999999,6.591897,-0.666392,-1.569116,1.9999689999999999
972,-41.565576,-37.659265999999995,10.254063,-0.11645699999999999,0.401129,1.489036
976,115.84649399999999,-6.591897,-5.3101400000000005,-0.154543,0.187503,0.803113
980,189.944305,-26.855878999999998,-3.173877,-0.032349,0.24805100000000002,1.102678
984,255.55809900000003,12.939651,-22.644388,-0.17615,-0.016846,1.088273
988,302.372778,24.780652,-11.108568,-0.10693499999999999,-0.239017,1.4850079999999999
992,262.516213,64.820325,-18.982223,0.024048,-0.5212479999999999,0.8556040000000001
996,235.47722599999997,51.63653,-45.105669,0.330083,-0.280034,1.9999689999999999
1000,293.461509,60.364691,-69.703212,0.102052,-0.669322,1.9999689999999999
1004,245.731289,89.112688,-69.275959,0.103029,-0.705455,1.5494620000000001
1008,146.913863,153.749905,-64.69825300000001,-0.038209,-1.398947,1.210468
1012,133.363851,127.13817,9.948882000000001,0.49695600000000006,-2.0000310000000003,0.029053
1016,-228.946365,-198.367285,85.63363100000001,0.46387399999999995,-1.739773,0.04773
1020,-219.302663,-79.285878,76.539254,0.34375500000000003,0.677867,0.62916
1024,-193.667506,-0.366217,0.30518,0.086427,-0.5257649999999999,1.9999689999999999
1028,-84.290837,-88.075074,24.048219,1.9999689999999999,0.106447,1.9999689999999999
1032,-38.391698999999996,-23.376822,-3.295949,0.376349,-0.042115,1.371359
1036,-31.494621000000002,-15.930419,0.854505,-0.034058,-0.062989,1.0954760000000001
1040,-9.948882000000001,-7.568475,5.127031,0.091432,-0.01648,1.0359040000000002
1044,-14.770732999999998,-4.089418,3.784237,0.008789,0.043946,0.996597
1048,-11.779964999999999,-6.103609,2.563516,0.041627,-0.032837,1.036759
1052,-8.789197,-3.6011290000000002,2.2583349999999998,0.035523,0.036133,1.043839
1056,-13.611048,-6.591897,1.2207219999999999,0.031006,-0.03772,0.9862209999999999
1060,-11.23064,-5.554284,0.732433,0.034302,-0.009888,1.037736
1064,-11.779964999999999,-6.775005999999999,0.30518,0.066773,-0.055542999999999995,1.003922
1068,-10.376135000000001,-6.347753,2.868696,0.053834,-0.015747,0.9873200000000001
1072,-22.583351999999998,-1.7700470000000001,1.647974,0.066651,-0.074586,1.033097
1076,-24.597542999999998,-2.4414439999999997,1.464866,0.043213999999999995,-0.070314,0.9593649999999999
1080,-36.49958,1.7700470000000001,6.958114,0.172,-0.036255,0.999893
1084,-47.241932,4.333562000000001,-2.563516,0.055787,-0.136355,0.948257
1088,-53.894865,3.295949,-43.640803000000005,0.083253,-0.240116,1.0116120000000002
1092,-60.730906999999995,24.048219,-2.2583349999999998,0.091066,0.24756199999999998,0.9673
1096,-218.997482,-34.912642,-3.540093,-0.08923500000000001,0.966201,1.368917
1100,-811.108568,-268.253605,84.534981,-0.18493900000000002,-0.376349,1.0648360000000001
1104,227.29838999999998,61.46334,-28.259709,-0.816785,1.119402,1.9999689999999999
1108,126.95506200000001,-36.804761,73.12123299999999,-0.061036,0.43286800000000003,1.2841989999999999
1112,198.12313999999998,11.841001,5.432212,0.362921,0.40222800000000003,0.802502
1116,213.01594599999999,13.611048,-43.51873,0.07727200000000001,0.153811,0.82826
1120,262.149996,28.381781,-43.884947,-0.080812,-0.069337,1.5154040000000002
1124,293.33943700000003,51.697565999999995,-46.387427,0.202762,-0.46814700000000004,0.795666
1128,216.92225499999998,61.585412,-61.585412,0.198734,-0.383673,1.652491
1132,253.48287200000001,89.417868,-49.561303,0.10498199999999999,-0.63563,1.9999689999999999
1136,247.867552,72.999161,-35.523003,0.394781,-0.7682,1.8711220000000002
1140,209.964141,63.050278000000006,-30.457008000000002,-0.098634,-1.096208,1.410056
1144,117.18928799999999,63.53856700000001,32.166018,0.32300300000000004,-2.0000310000000003,0.8281379999999999
1148,15.991454999999998,53.71175699999999,27.710384,0.17322,-1.8005650000000002,0.015137000000000001
1152,-239.200427,-107.057298,51.514458000000005,0.278325,-1.015763,0.324712
1156,-299.931334,-75.074388,72.755016,0.354864,-0.6878770000000001,1.262593
1160,-106.446937,-17.517357,15.442129999999999,-0.552377,0.000488,1.9999689999999999
1164,-58.10635500000001,-7.507439,15.869383,-0.075929,0.058595,1.209003
1168,-54.505226,-24.96376,2.075227,0.008667,-0.120119,1.237934
1172,-9.460594,-20.080873,-0.976577,0.078981,-0.018311,1.042618
1176,-19.65362,-6.225681,3.6011290000000002,0.07434199999999999,0.010131999999999999,1.0150299999999999
1180,-15.991454999999998,-2.319371,1.7700470000000001,0.047363999999999996,-0.028443,1.036637
1184,-19.165332,3.479057,1.159686,0.055177,-0.125002,1.041276
1188,-14.892805,5.3101400000000005,2.685588,0.025757,-0.057862000000000004,0.9906159999999999
1192,-14.770732999999998,-1.09865,1.586938,0.003418,-0.046632,0.969619
1196,-13.183795000000002,-4.638743,0.549325,0.055177,-0.082399,1.03151
1200,-10.315099,-4.394598,-0.48828900000000003,0.050172,-0.088624,0.98024
1204,-14.404517000000002,-4.760815,1.8921189999999999,0.041505,-0.069337,0.996353
1208,-19.043259,-6.958114,3.356985,0.06482,-0.053956,0.983658
1212,-26.916915000000003,-3.845274,1.8921189999999999,0.059083000000000004,-0.11645699999999999,1.000137
1216,-36.621653,1.525902,8.239872,0.048096,-0.042237000000000004,0.950576
1220,-56.702525,-4.028382,-2.685588,0.017212,-0.152224,1.1068280000000001
1224,-61.280232,2.990768,-40.955215,0.11108599999999999,-0.35584,0.9239639999999999
1228,-87.52575,17.822538,-8.606088,0.125368,0.177493,0.984512
1232,-259.159228,-41.992828,9.82681,-0.157229,0.9122450000000001,1.768948
1236,-808.361944,-177.920195,96.131838,0.169192,-0.098146,0.9315329999999999
1240,243.22880899999998,53.04036,-58.838788,-0.533455,1.082414,1.9999689999999999
1244,135.927367,-16.418708,32.471199,-0.11902,0.292363,0.9555809999999999
1248,161.867704,16.662851999999997,-9.216449,0.190921,0.34766199999999997,0.905165
1252,233.218891,8.056764,-25.452049,-0.10241900000000001,0.138918,1.289204
1256,281.559472,26.67277,-13.244831,-0.177859,-0.288945,1.396628
1260,322.270542,43.457694000000004,-0.30518,0.21069699999999997,-0.48828900000000003,1.417014
1264,255.55809900000003,61.280232,-56.763560999999996,0.455451,-0.656504,0.932143
1268,194.216831,48.889905999999996,-94.11764699999999,0.18555,-0.48072,1.9999689999999999
1272,243.167773,84.962234,-94.605936,0.088869,-0.792493,1.629664
1276,195.74273300000002,102.96788000000001,-69.275959,0.177371,-0.862928,1.250385
1280,123.90325800000001,59.021896999999996,-22.278172,0.36841399999999996,-1.655543,1.675807
1284,79.89623900000001,111.45189599999999,-31.067369,0.195193,-2.0000310000000003,-0.9831690000000001
1288,-181.643397,-164.370184,66.407263,0.216678,-1.338643,0.050172
1292,-192.385748,-89.84512099999999,66.77348,0.087282,0.5101399999999999,0.094972
1296,-243.35088100000002,-30.884259999999998,28.625925,-0.105348,-0.985489,1.9999689999999999
1300,-49.134051,-29.602502,5.065995,0.918593,-0.058473000000000004,1.545556
1304,-37.29305,-11.047532,-1.8310830000000002,-0.014038,-0.107912,1.240375
1308,-18.127717999999998,0.244144,-2.136263,0.000366,-0.105104,1.1175709999999999
1312,-0.732433,12.024109,4.028382,0.04065,-0.008301000000000001,1.002335
1316,-5.493248,5.3101400000000005,3.6011290000000002,-0.031495,0.008667,0.977432
1320,-5.249104,-3.479057,2.563516,-0.009276999999999999,0.0070799999999999995,0.993668
1324,-9.887846000000001,-8.361944,4.21149,0.029786,0.038941,0.952407
1328,-27.100022999999997,-16.052491,2.685588,0.014159999999999999,-0.034791,1.048966
1332,-23.743038000000002,-15.930419,1.8921189999999999,0.020630000000000003,-0.0365,1.024063
1336,-15.014878,-11.474784,0.549325,0.042359,-0.056397,0.999283
1340,-21.05745,-10.070953999999999,1.70901,0.048951,-0.042847,1.001968
1344,-26.001373,-8.42298,2.014191,0.046265,-0.06347799999999999,1.008316
1348,-30.762188000000002,0.366217,4.577707,0.059449,-0.04773,0.992813
1352,-29.907683000000002,5.493248,11.413748,0.099489,-0.017578,0.928725
1356,-50.904097,1.7700470000000001,1.525902,0.043336,-0.157473,1.064714
1360,-59.20500500000001,10.131991000000001,-37.537194,0.061524,-0.15967,1.071305
1364,-35.034714,8.42298,-6.347753,0.07531900000000001,0.28320700000000004,0.816541
1368,-185.18348999999998,-19.65362,9.82681,0.14721900000000002,1.147723,0.942153
1372,-819.775692,-216.73914700000003,84.107729,0.12231600000000001,-0.22266,0.7092390000000001
1376,348.882277,23.010604999999998,-42.603189,-0.44776099999999996,1.032975,1.9999689999999999
1380,53.101395999999994,-17.029068,49.622339000000004,-0.173465,0.07531900000000001,0.708629
1384,140.688182,-13.366903,15.869383,0.154788,0.39588,1.050065
1388,206.485084,13.061722999999999,-29.48043,0.038819,0.223514,1.181781
1392,286.99168399999996,21.423667000000002,-26.733806,-0.094606,-0.176028,1.222309
1396,292.48493199999996,33.447776,-24.109254999999997,0.157351,-0.275029,1.391501
1400,238.467994,78.370336,-49.744411,0.18493900000000002,-0.5042800000000001,1.035416
1404,266.971847,75.684749,-48.706798,0.059571000000000006,-0.71339,1.9999689999999999
1408,303.349355,56.397344999999994,-26.184482,0.23083800000000002,-0.835462,1.9999689999999999
1412,253.3608,56.824597999999995,-26.611734000000002,0.025757,-1.2925,1.484764
1416,127.62645900000001,94.911116,-12.756542,0.704967,-2.0000310000000003,0.531258
1420,-44.861523999999996,-23.437858,30.884259999999998,0.072511,-1.7645529999999998,-0.039429
1424,-146.547646,-82.948043,24.048219,-0.46973400000000004,0.593515,1.6224610000000002
1428,-273.746853,-77.271687,75.44060400000001,1.00209,-0.26819299999999996,1.9999689999999999
1432,-127.748531,38.513771000000006,0.30518,-0.608042,-0.036744,1.943877
1436,-57.129778,-41.504540000000006,16.662851999999997,0.728405,-0.016846,1.786648
1440,-35.950256,-29.785611,1.40383,0.19531500000000002,-0.002441,1.176287
1444,-36.560615999999996,-21.606775,-0.671397,-0.023072,-0.011719,1.1416190000000002
1448,-14.770732999999998,-5.188067,4.943923000000001,0.069825,0.040406,1.093645
1452,-15.259022,-3.967346,2.136263,0.00293,0.024048,0.999283
1456,-11.963073,-3.784237,2.685588,0.046632,-0.011109,1.0196690000000002
1460,-11.169604,-2.197299,2.685588,0.029053,-0.031617,0.991348
1464,-21.423667000000002,-10.009917999999999,0.427253,0.008545,-0.029175,0.98146
1468,-16.540779999999998,-6.408789,0.122072,0.053956,-0.049928,1.010025
1472,-18.493935,-6.652933999999999,1.342794,0.049683,-0.069825,1.0188139999999999
1476,-22.46128,-2.4414439999999997,3.234913,0.064942,-0.058961,0.99855
1480,-23.254749,2.685588,4.699779,0.051637,-0.061036,1.001968
1484,-30.884259999999998,0.122072,5.7984279999999995,0.08838,-0.037232,0.969741
1488,-53.04036,5.3101400000000005,6.591897,0.0365,-0.135988,1.040665
1492,-31.006332,2.197299,-12.695506,-0.008179,-0.17236600000000002,0.960464
1496,-20.630198,13.672084,-15.869383,0.151614,-0.28186500000000003,1.099992
1500,-129.823758,14.953841,-11.413748,0.042847,0.28101,0.8256959999999999
1504,-655.832761,-9.094377,-9.399557000000001,-0.47974399999999995,0.47718,1.9999689999999999
1508,-672.556649,-15.320058,150.39292,-1.6400400000000002,-0.8589,1.9999689999999999
1512,-20.508125,-54.627297999999996,54.749371,-0.406256,0.502937,-0.064332
1516,17.456321,-18.005646,-3.418021,0.032715,0.481941,0.8535290000000001
1520,144.045167,-20.141909,-29.17525,-0.11071900000000001,0.424079,1.3668420000000001
1524,257.267109,-1.647974,-28.442816999999998,-0.207279,0.024413999999999998,1.0424959999999999
1528,297.18471,15.075914000000001,-26.489662,0.010131999999999999,-0.159426,1.06215
1532,222.293431,62.623026,-47.42504,0.08484,-0.417487,0.804334
1536,247.80651600000002,86.30502800000001,-39.734493,-0.099855,-0.568612,1.9999689999999999
1540,257.206073,74.586099,-21.362631,0.135744,-0.74757,1.9999689999999999
1544,275.089647,75.257496,-34.79057,0.362921,-0.695811,1.7342790000000001
1548,238.712139,59.510185,-38.452735,0.184695,-1.3237510000000001,1.192523
1552,69.275959,84.596017,-22.278172,0.692515,-2.0000310000000003,0.27747
1556,-67.566949,-83.802548,50.598917,0.127932,-1.5876709999999998,0.712413
1560,-100.83161700000001,-53.284504000000005,26.367590000000003,-0.806287,0.5985199999999999,0.33655300000000005
1564,-176.272221,-25.391012,37.232013,1.784329,0.013062,1.9999689999999999
1568,-124.33051,-47.608148,42.603189,-1.589136,-0.630137,1.192279
1572,-48.889905999999996,-26.367590000000003,3.723201,-0.966934,0.135988,1.1277030000000001
1576,-21.362631,-24.536507,2.380407,0.010864,-0.009644,1.1311209999999998
1580,-19.897765,0.366217,6.042573,0.174197,0.1084,1.020157
1584,-27.344167,1.159686,4.272526,0.047242,-0.095338,0.985
1588,-26.428626,1.525902,3.234913,0.039429,-0.038697,1.028946
1592,-20.691233999999998,-0.732433,3.356985,0.028321,-0.093019,0.9470360000000001
1596,-20.202945,-6.103609,0.48828900000000003,0.021241,-0.044433999999999994,1.012589
1600,-18.554971,-7.507439,-1.159686,0.050904000000000005,-0.06994700000000001,1.024186
1604,-9.338521,-5.371176,-0.549325,0.035767,-0.075441,0.9956209999999999
1608,-11.657893,-5.0049589999999995,-1.037613,0.055299,-0.077882,1.001358
1612,-19.836728,-4.638743,0.366217,0.05359,-0.06421,0.980728
1616,-20.874342000000002,-2.624552,-0.183108,0.034791,-0.093019,0.973159
1620,-29.968719,-3.6621650000000003,-2.2583349999999998,0.068605,-0.11914200000000001,1.016373
1624,-33.813992999999996,5.981537,9.52163,0.010498,-0.107668,0.972915
1628,-31.311513,1.40383,-5.859464,-0.00647,-0.09485,0.992935
1632,-38.452735,0.732433,-33.264668,0.147463,-0.27771399999999996,1.017594
1636,-90.699626,22.522316,-14.770732999999998,0.06640700000000001,0.186893,0.913832
1640,-285.587854,-45.166705,-57.129778,-0.31238299999999997,0.562875,1.60647
1644,-800.549325,-299.32097400000004,106.99626200000002,0.511482,-0.5084310000000001,1.111833
1648,323.430228,80.5066,-106.56900900000001,0.10071000000000001,1.423239,1.362814
1652,74.83024300000001,12.390326,35.950256,-0.330205,0.007691,0.749401
1656,136.171511,45.349813,28.747996999999998,0.235843,0.42847299999999994,0.901259
1660,216.06775,49.134051,-23.437858,0.38464899999999996,0.10547000000000001,1.2491649999999999
1664,250.24795899999998,58.10635500000001,-55.176623,0.054077999999999994,-0.56202,1.078019
1668,236.087587,53.650721,-27.527276,-0.10815599999999999,-0.813611,1.2766309999999998
1672,211.18486299999998,58.167391,19.043259,0.055421000000000005,-0.7306020000000001,1.465965
1676,204.959182,54.871443000000006,16.540779999999998,0.332525,-0.527718,1.526757
1680,194.33890300000002,48.218509000000005,-17.151141,0.353887,-0.48072,1.361227
1684,160.402838,45.166705,-43.457694000000004,0.16589600000000002,-0.529305,1.3200889999999998
1688,134.462501,71.229114,-56.519417000000004,0.11487,-0.770764,1.612207
1692,136.53772800000002,94.97215200000001,-40.527962,0.189822,-1.83267,0.9344629999999999
1696,-7.9957270000000005,27.405203000000004,18.310826000000002,-0.17468499999999998,-2.0000310000000003,-2.0000310000000003
1700,-149.78255900000002,-106.263828,0.671397,-1.130144,1.084855,1.6604259999999997
1704,-266.544595,-94.17868299999999,72.14465600000001,1.787381,0.038941,1.9999689999999999
1708,-41.748684000000004,-65.918975,27.466239,0.22693200000000002,-0.246098,1.9999689999999999
1712,-38.025483,-26.550697999999997,11.169604,-0.024048,0.08191,1.016129
1716,-28.503853000000003,-23.926146,-7.446403,0.225345,-0.025391,1.196185
1720,-17.822538,-1.953155,2.563516,0.011719,-0.039185000000000005,1.046525
1724,-13.122759,-1.342794,2.929732,0.033082,-0.04358,1.026017
1728,-11.169604,-8.545052,1.342794,0.020263999999999997,-0.06994700000000001,1.029801
1732,-4.882887,-8.361944,-0.122072,0.013428,-0.023681999999999998,1.0047760000000001
1736,-11.474784,-8.056764,-0.244144,0.02417,-0.056764,1.024063
1740,-6.775005999999999,-2.014191,0.671397,0.034913,-0.05651900000000001,1.01442
1744,-9.704738,-4.394598,-0.671397,0.000488,-0.036378,0.929824
1748,-16.296635000000002,-7.6905470000000005,-1.647974,0.056397,-0.08777,1.0466469999999999
1752,-9.765774,0.061036,0.0,0.052369000000000006,-0.097414,1.042008
1756,-9.643702000000001,3.295949,1.09865,0.046387,-0.09131,0.9907379999999999
1760,-11.291675999999999,3.173877,0.9155409999999999,0.032958999999999995,-0.10425,1.011124
1764,-3.90631,3.967346,0.732433,0.048829000000000004,-0.121584,1.019425
1768,-3.234913,2.80766,0.366217,0.027587999999999998,-0.099489,0.997818
1772,-11.23064,-0.366217,-1.342794,0.034546,-0.118654,1.008194
1776,-8.850233,0.366217,-1.70901,-0.002441,-0.113283,0.965957
1780,-15.13695,4.760815,2.990768,0.044433999999999994,-0.11194000000000001,0.992447
1784,-16.662851999999997,6.897078,5.493248,0.022095,-0.133547,1.007218
1788,-19.34844,7.873655,2.50248,0.0015869999999999999,-0.10669100000000001,0.969986
1792,-25.024796,3.6011290000000002,-8.728161,-0.053101,-0.027344,0.9474020000000001
1796,-68.726635,-10.070953999999999,-17.517357,0.041138,-0.126833,0.93666
1800,-125.673304,5.493248,-6.2867169999999994,0.033326,-0.163333,1.055924
1804,-191.042954,29.846646999999997,-16.84596,0.126101,0.149172,1.4997790000000002
1808,120.60730900000001,-17.334249,-22.705425,-0.166751,0.35046900000000003,1.9089650000000002
1812,145.998322,-10.742351,6.591897,-0.24988200000000002,0.10071000000000001,1.162615
1816,187.747005,11.963073,24.231327,-0.218509,-0.204715,0.705943
1820,149.66048700000002,33.630884,54.13901,-0.22790900000000003,-0.384283,0.715831
1824,140.56611,31.677729,57.25185,0.206058,-0.286992,1.207294
1828,122.98771599999999,9.82681,26.245518,0.149783,-0.170657,0.9205459999999999
1832,-362.127108,-61.524376000000004,58.3505,1.266621,-0.9713280000000001,1.9999689999999999
1836,-85.32845,2.624552,-19.104295,-0.393561,0.565682,0.629526
1840,59.510185,9.582666,-24.353399,0.029786,0.06543099999999999,0.722545
1844,-15.13695,2.014191,1.09865,-0.039429,0.024291999999999998,0.9423969999999999
1848,4.028382,1.09865,-0.671397,-0.001343,-0.006714,1.010758
1852,-10.376135000000001,-5.981537,-0.48828900000000003,-0.008179,0.000244,0.985367
1856,-1.7700470000000001,-4.577707,-1.037613,0.015015,-0.011353,1.0129549999999998
1860,1.8310830000000002,0.244144,-0.183108,0.014405000000000001,-0.012818000000000001,0.9973299999999999
1864,0.9155409999999999,0.854505,-0.30518,-0.00293,-0.007935,0.985489
1868,1.342794,0.0,-0.427253,0.008423,-0.016602000000000002,1.0208899999999999
1872,4.089418,0.732433,0.061036,0.004273,-0.0021969999999999997,0.9911040000000001
1876,-0.671397,-0.366217,0.0,0.004517,-0.010254000000000001,1.008438
1880,5.432212,2.685588,0.732433,0.001099,-0.026123,1.0316319999999999
1884,-0.427253,-1.281758,0.244144,-0.022705,0.043702,0.928847
1888,-4.272526,0.244144,0.061036,0.00647,-0.019287000000000002,1.008804
1892,0.732433,0.244144,1.40383,-0.015137000000000001,-0.011963,0.981216
1896,-6.836042,-6.042573,-0.9155409999999999,0.039550999999999996,-0.025391,1.056291
1900,-10.681315,-3.356985,-0.183108,0.017823,0.006226,1.027115
1904,0.6103609999999999,-3.540093,-1.525902,0.013672,0.00415,0.985367
1908,-3.6011290000000002,2.2583349999999998,-0.244144,0.024413999999999998,-0.025635,1.0268709999999999
1912,0.30518,0.244144,-0.549325,0.0023190000000000003,-0.023316,1.0150299999999999
1916,0.122072,0.0,-0.244144,0.021363,-0.003296,1.002457
1920,-1.464866,-0.854505,-0.48828900000000003,-0.008179,0.0058590000000000005,0.973281
1924,3.6011290000000002,-2.4414439999999997,-1.159686,0.01648,-0.03003,1.0363930000000001
1928,3.784237,0.183108,-0.30518,0.015503,0.01294,0.9643700000000001
1932,-3.418021,-2.2583349999999998,-0.854505,0.007935,-0.008423,1.009659
1936,0.732433,1.8310830000000002,-0.122072,0.004517,0.002686,0.980606
1940,-1.09865,0.671397,-0.366217,0.015503,-0.00647,1.003067
1944,-0.122072,2.075227,-0.976577,0.010864,-0.005982,1.00795
1948,-1.953155,-0.061036,-1.342794,-0.000366,-0.014893,1.0089270000000001
1952,2.075227,0.244144,-0.366217,0.015747,-0.017823,1.031144
1956,3.356985,-1.037613,1.2207219999999999,0.009033,0.000488,0.978775
1960,-0.549325,-0.671397,-1.037613,0.0031739999999999997,-0.006226,0.988663
1964,0.793469,0.549325,0.0,-0.005615,0.015137000000000001,0.995743
1968,-0.732433,-0.854505,-0.854505,0.00061,-0.030639999999999997,1.01088
1972,-2.868696,-1.2207219999999999,0.427253,0.004273,0.000244,0.9952540000000001
1976,-1.8310830000000002,1.037613,1.342794,0.020263999999999997,-0.006836,1.0278479999999999
1980,0.671397,0.122072,-0.30518,0.010131999999999999,-0.007691,1.017594
1984,1.09865,-0.122072,0.0,-0.008301000000000001,-0.004883,0.9871979999999999
1988,2.746624,-0.244144,0.427253,0.012573,0.007812999999999999,0.9909819999999999
1992,0.549325,0.0,0.244144,0.0051270000000000005,-0.002564,0.9979399999999999
1996,-1.037613,-0.427253,0.366217,0.0,-0.009033,0.999771
2000,-0.9155409999999999,1.525902,-0.793469,0.032227,0.031738999999999996,1.013077
2004,-0.854505,-0.30518,0.061036,0.002075,0.009276999999999999,0.977554
2008,-0.671397,-1.40383,0.0,-0.004761,0.009522,0.995499
2012,0.48828900000000003,-2.380407,0.183108,0.026612,-0.000977,1.008682
2016,-0.061036,-0.48828900000000003,-0.30518,0.018921,0.001221,1.000381
2020,-1.953155,0.061036,-0.732433,0.008911,0.0023190000000000003,0.992325
2024,3.356985,-0.48828900000000003,0.427253,0.021118,-0.034546,1.056535
2028,-1.70901,-0.366217,0.0,0.006836,-0.003906,1.005875
2032,4.882887,-0.244144,-0.732433,0.021851,0.006226,0.9792629999999999
2036,0.854505,-0.244144,-0.854505,0.008057,0.002686,0.9946440000000001
2040,4.089418,0.549325,-2.746624,0.008057,0.01355,0.983291
2044,2.4414439999999997,0.671397,-1.647974,0.016114,0.0031739999999999997,1.00795
2048,0.732433,0.793469,-1.647974,0.008667,0.010254000000000001,0.9953770000000001
