Packet number,Gyroscope X (deg/s),Gyroscope Y (deg/s),Gyroscope Z (deg/s),Accelerometer X (g),Accelerometer Y (g),Accelerometer Z (g)
0,-0.488289,-0.488289,0.000000,-0.009522,0.006592,1.004532
1,-0.549325,-0.488289,0.000000,0.005982,0.007813,1.001114
2,-0.305180,-0.488289,-0.183108,-0.003540,0.005982,0.994278
3,-0.671397,-0.610361,-0.122072,-0.005737,0.005737,1.001114
4,-0.427253,-0.549325,-0.183108,0.001221,0.008179,0.994522
5,-0.854505,-0.488289,0.000000,-0.011841,0.007202,0.996841
6,-0.671397,-0.366217,0.000000,-0.001709,0.002075,1.007340
7,-0.793469,-0.305180,0.000000,-0.006104,0.008179,1.001602
8,-0.732433,-0.244144,0.000000,-0.002686,0.007080,1.004410
9,-0.732433,-0.061036,0.000000,-0.000488,0.004273,1.006607
10,-0.305180,-0.061036,-0.122072,-0.006104,0.008545,1.001114
11,-0.488289,-0.183108,0.061036,-0.009522,-0.001709,1.003922
12,0.061036,0.061036,-0.122072,-0.011963,0.006348,0.995010
13,-0.488289,-0.366217,0.000000,-0.008179,0.004761,0.990005
14,-0.122072,-0.366217,-0.183108,-0.007568,0.005615,0.999161
15,-0.427253,-0.549325,0.000000,-0.000855,0.010620,0.994034
16,-0.732433,-0.549325,-0.183108,-0.004395,0.006958,1.001846
17,-0.549325,-0.610361,0.000000,0.002441,0.009888,0.992691
18,-0.854505,-0.488289,-0.122072,-0.000366,0.010864,0.997086
19,-0.732433,-0.427253,0.000000,-0.006592,0.005982,1.003189
20,-0.732433,-0.427253,0.000000,-0.005493,0.005371,0.996109
21,-0.610361,-0.305180,0.000000,-0.010254,0.002930,1.004288
22,-0.671397,-0.305180,0.000000,-0.003906,0.000244,1.002579
23,-0.427253,-0.183108,0.061036,0.000610,0.004273,1.003189
24,-0.610361,-0.061036,-0.122072,-0.008545,0.000122,0.998795
25,-0.366217,-0.183108,0.000000,-0.005982,0.007813,1.003799
26,-0.244144,-0.183108,0.000000,-0.002930,0.004639,1.003555
27,-0.366217,-0.427253,-0.122072,-0.006470,0.008545,0.994888
28,-0.427253,-0.427253,-0.122072,-0.001343,0.003540,0.995987
29,-0.183108,-0.427253,-0.183108,-0.003174,0.011353,0.996231
30,-0.549325,-0.427253,-0.183108,-0.007080,0.003174,0.998306
31,-0.427253,-0.427253,0.000000,-0.005615,0.000610,0.998917
32,-0.122072,-0.427253,-0.122072,-0.004395,0.008911,0.990982
33,-0.549325,-0.244144,0.000000,-0.001465,0.004273,0.994766
34,-0.305180,-0.305180,0.000000,-0.002564,0.005982,1.000381
35,-0.793469,-0.366217,0.000000,-0.000732,0.008667,0.993057
36,-0.305180,-0.305180,0.000000,-0.005737,0.002441,0.996353
37,-0.854505,-0.305180,0.000000,-0.005249,0.001587,1.006119
38,-0.244144,-0.305180,0.000000,-0.000732,0.006836,1.003189
39,-0.488289,-0.366217,-0.122072,-0.006226,0.006104,1.002335
40,-0.061036,-0.244144,-0.122072,-0.007813,0.005859,0.996109
41,-0.183108,-0.305180,0.000000,-0.005371,0.006714,0.991104
42,-0.061036,-0.244144,0.000000,-0.002930,0.003662,1.006729
43,-0.061036,-0.305180,0.000000,-0.008423,0.006592,1.000259
44,0.244144,-0.305180,0.000000,-0.008179,0.013184,0.997940
45,-0.061036,-0.183108,0.000000,-0.005615,0.005982,0.997086
46,0.305180,-0.122072,0.000000,-0.009277,0.007813,0.994278
47,-0.061036,-0.122072,0.061036,-0.008301,0.003174,1.003677
48,0.244144,-0.183108,0.000000,-0.010254,0.007691,0.998917
49,-0.183108,-0.305180,0.000000,-0.002441,0.004761,0.994400
50,-0.061036,-0.244144,0.000000,-0.004150,0.006104,0.994278
51,0.000000,-0.305180,0.000000,-0.003906,0.009033,1.000870
52,-0.061036,-0.305180,0.000000,-0.006714,0.005371,0.987320
53,-0.122072,-0.610361,0.000000,-0.005371,-0.000977,1.008682
54,0.610361,-0.610361,0.061036,0.003906,0.004639,1.004532
55,1.037613,-0.183108,0.000000,-0.007691,0.000610,1.014786
56,1.586938,-0.244144,0.122072,-0.001831,-0.003662,1.010880
57,3.234913,0.183108,0.061036,-0.012207,0.006104,1.002823
58,3.356985,-0.427253,0.061036,0.011109,0.010376,1.013321
59,2.685588,0.244144,0.000000,-0.005737,0.004761,1.029313
60,5.676356,0.122072,0.122072,0.013794,0.019043,1.003189
61,3.540093,0.671397,0.122072,-0.026734,-0.000122,0.990127
62,5.004959,0.244144,0.244144,-0.002197,-0.000244,1.014420
63,5.554284,0.244144,0.000000,-0.009155,0.014160,0.995499
64,4.821851,-0.305180,0.000000,-0.003418,0.018311,0.996841
65,4.821851,-0.488289,-0.183108,-0.011841,0.013672,1.003677
66,4.394598,-0.915541,0.061036,-0.000732,0.011719,1.004166
67,5.493248,-0.427253,0.000000,-0.004273,0.015015,0.990860
68,4.882887,-0.671397,0.122072,-0.006958,0.018311,0.995865
69,5.065995,-0.793469,0.061036,-0.007935,0.018433,0.995865
70,4.882887,-0.976577,0.000000,-0.003540,0.025513,0.985855
71,4.211490,-1.159686,-0.122072,-0.009033,0.022095,0.990738
72,3.662165,-1.831083,-0.183108,-0.003418,0.026490,0.982925
73,2.746624,-1.770047,-0.427253,-0.002197,0.025025,0.987076
74,2.380407,-1.770047,-0.366217,-0.007324,0.022217,1.002701
75,2.319371,-1.709010,-0.244144,0.000122,0.026368,0.991470
76,1.342794,-1.525902,-0.122072,0.001221,0.011597,0.998917
77,2.014191,-1.037613,0.000000,0.002564,0.018433,1.000748
78,2.441444,-0.549325,0.183108,0.001343,0.018799,1.002335
79,2.990768,-0.488289,0.244144,-0.002564,0.024537,0.989273
80,2.624552,-0.549325,0.427253,-0.005127,0.023682,0.999649
81,2.746624,-0.793469,0.244144,-0.001099,0.029053,1.000259
82,2.624552,-0.671397,0.244144,-0.009155,0.031495,0.985611
83,1.831083,-0.915541,0.183108,-0.008789,0.026612,0.988418
84,1.281758,-0.976577,0.122072,0.003052,0.026368,1.007095
85,1.647974,-0.549325,0.061036,-0.002441,0.017212,1.004776
86,2.624552,-0.488289,-0.122072,-0.009277,0.029786,0.986709
87,1.098650,-0.793469,0.061036,0.005127,0.018799,1.004044
88,2.380407,0.000000,0.244144,-0.000610,0.026612,0.993423
89,1.831083,-0.183108,0.427253,0.002319,0.024048,1.002457
90,2.075227,0.000000,0.488289,-0.003784,0.023072,0.997696
91,2.685588,0.000000,0.427253,-0.017090,0.027222,0.986099
92,1.770047,-0.854505,0.427253,-0.003418,0.035645,0.979507
93,1.525902,-1.159686,0.244144,-0.009400,0.031739,0.989151
94,1.281758,-1.525902,0.183108,0.004883,0.033936,0.982071
95,0.732433,-1.159686,0.366217,0.002808,0.026978,0.993668
96,1.037613,-0.793469,0.305180,-0.006104,0.026001,0.997330
97,1.342794,-2.136263,0.427253,-0.007446,0.029541,0.992081
98,1.281758,-2.441444,0.183108,0.003662,0.040528,0.978408
99,0.488289,-2.502480,0.122072,0.001465,0.060548,0.958999
100,-4.516670,-2.502480,0.488289,-0.004395,0.034302,0.983169
101,-3.540093,-2.014191,0.427253,-0.006470,0.019776,1.017716
102,-1.647974,-2.380407,0.732433,0.000977,0.019654,1.001602
103,-2.014191,-2.075227,0.793469,0.017090,0.023560,1.021012
104,-0.305180,-1.281758,0.732433,-0.006226,0.024170,1.004776
105,0.122072,-1.342794,0.671397,0.010376,0.029053,0.987686
106,-0.427253,-0.915541,0.671397,0.010498,0.015015,1.008560
107,2.136263,-0.610361,0.305180,-0.004761,0.024659,0.981949
108,0.061036,-0.793469,0.488289,0.016114,0.038819,1.005753
109,0.244144,-0.183108,0.671397,-0.007691,0.036500,1.004776
110,1.342794,0.000000,0.671397,0.007813,0.039551,1.003677
111,-0.427253,0.183108,0.671397,-0.001465,0.032959,0.998184
112,0.122072,-0.488289,0.488289,-0.006836,0.041138,0.983780
113,-1.098650,-1.403830,0.061036,0.006104,0.032593,1.008560
114,-0.183108,-1.159686,-0.122072,0.005493,0.028687,1.001968
115,-0.366217,-1.159686,-0.183108,0.001465,0.027832,1.002701
116,0.061036,-1.403830,-0.305180,-0.004639,0.025147,1.005875
117,0.183108,-1.892119,-0.488289,0.000122,0.033326,0.997086
118,0.122072,-2.380407,-0.549325,0.005371,0.029053,1.007462
119,1.159686,-2.563516,-0.671397,0.000977,0.027222,0.993668
120,1.647974,-2.319371,-0.793469,0.015137,0.037598,0.985855
121,-0.122072,-2.136263,-0.732433,0.017334,0.030152,1.010025
122,1.464866,-0.671397,-0.732433,0.023194,0.036988,0.998062
123,-0.427253,0.610361,-0.244144,0.017945,0.039918,0.998306
124,-0.671397,1.525902,-0.183108,0.014771,0.038697,0.995132
125,-1.342794,1.709010,-0.244144,0.012818,0.034668,0.995132
126,-1.586938,2.624552,-0.244144,0.026490,0.022583,1.011490
127,-0.366217,3.845274,-0.122072,0.022339,0.025391,1.008927
128,0.061036,4.760815,0.122072,0.005982,0.042359,0.984634
129,-1.525902,5.188067,0.183108,0.000366,0.049317,0.973770
130,-4.089418,4.943923,0.488289,-0.001343,0.032715,0.986343
131,-2.990768,4.943923,0.305180,-0.011231,0.040040,0.975235
132,-5.004959,3.967346,0.488289,-0.009766,0.026368,0.991958
133,-4.028382,3.356985,0.183108,-0.011475,0.017945,1.004532
134,-2.685588,2.441444,0.000000,-0.012451,0.027832,0.995743
135,-2.624552,1.525902,-0.122072,-0.015747,0.025635,0.996353
136,-1.342794,1.037613,-0.244144,-0.011109,0.025757,0.991592
137,-1.342794,0.610361,-0.305180,-0.016236,0.025269,0.988540
138,-1.403830,-0.061036,-0.427253,-0.013062,0.040284,0.977676
139,-3.112840,-0.732433,-0.366217,-0.010254,0.025513,0.982803
140,-3.051804,-0.854505,-0.366217,-0.008667,0.041382,0.974990
141,-5.065995,-1.281758,-0.244144,-0.011841,0.049195,0.959731
142,-7.995727,-1.586938,-0.244144,-0.000610,0.038331,0.993301
143,-8.117800,-1.525902,-0.244144,-0.003906,0.021973,0.997208
144,-8.361944,-1.525902,-0.183108,0.003662,0.012329,1.000015
145,-7.385367,-1.647974,0.000000,-0.010498,0.015259,1.000137
146,-6.591897,-1.892119,-0.244144,0.000732,0.018433,1.001236
147,-7.324331,-2.441444,-0.244144,-0.006348,0.014649,0.992081
148,-5.981537,-2.807660,-0.305180,-0.004395,0.026368,0.974136
149,-8.484016,-3.845274,-0.305180,-0.012940,0.044800,0.958999
150,-12.146181,-5.249104,-0.244144,0.004639,0.023194,0.982803
151,-12.268254,-4.760815,-0.244144,0.015747,0.003418,1.020768
152,-11.657893,-3.723201,0.244144,0.016846,0.006714,1.017472
153,-10.742351,-2.563516,0.671397,0.005737,0.006226,1.003433
154,-10.803388,-2.380407,0.671397,-0.000366,0.010864,0.997574
155,-10.803388,-2.563516,0.671397,0.005127,-0.004273,1.015030
156,-9.582666,-2.258335,0.732433,0.013306,-0.007324,1.017960
157,-7.873655,-1.464866,0.915541,0.001953,0.002930,1.006485
158,-8.239872,-1.159686,1.342794,0.010498,-0.001099,0.981460
159,-7.263294,-1.403830,1.586938,-0.005493,0.022827,0.956802
160,-11.291676,-2.807660,2.075227,-0.009400,0.036988,0.926162
161,-17.395285,-4.821851,2.502480,-0.008667,0.017212,0.950942
162,-18.249790,-6.713970,1.709010,-0.015869,0.007935,0.928237
163,-23.682002,-8.484016,2.136263,0.018311,-0.002564,0.989273
164,-25.696193,-6.897078,2.197299,0.044678,-0.026490,1.068498
165,-23.010605,-4.089418,2.258335,0.015015,-0.037110,1.051896
166,-19.836728,-2.014191,2.685588,0.001221,-0.031617,1.058366
167,-17.273213,-1.709010,2.868696,0.025269,-0.046265,1.008072
168,-15.136950,-1.403830,2.014191,-0.001221,0.009277,0.999405
169,-18.616007,-3.112840,0.793469,0.014038,0.025635,0.925307
170,-22.095064,-1.709010,-1.281758,-0.003784,0.037354,0.972305
171,-30.823224,-3.662165,-1.281758,-0.013306,0.048341,0.964004
172,-33.997101,-3.662165,-1.953155,-0.057252,0.021729,0.901625
173,-41.626612,-5.859464,-1.098650,0.080079,-0.024537,1.065324
174,-40.894179,-1.464866,0.854505,0.014282,-0.135866,1.022965
175,-27.832456,0.854505,-2.258335,-0.027466,-0.048585,1.002823
176,-35.584039,-2.136263,-3.540093,0.004761,-0.034424,1.023819
177,-45.471885,-5.615320,-5.493248,-0.040284,-0.084718,0.969619
178,-47.241932,-8.972305,-14.038300,0.011841,-0.006104,0.982437
179,-53.467613,-11.963073,-15.930419,0.069703,-0.151858,0.981827
180,-53.223468,-6.836042,-5.004959,0.050660,-0.097658,1.021744
181,-52.918288,-5.188067,-2.502480,0.018433,-0.132692,1.042618
182,-51.880674,-5.004959,-4.943923,0.037720,-0.147097,1.038834
183,-44.312200,-1.403830,-5.798428,0.042847,-0.046387,0.944961
184,-56.946670,-1.281758,-6.042573,0.044923,-0.068238,0.963027
185,-69.520104,1.831083,-4.150454,0.044312,-0.106813,0.971817
186,-67.017624,5.310140,-4.821851,-0.027710,0.065919,0.913344
187,-95.399405,5.310140,-0.366217,-0.145510,0.233280,1.322652
188,-85.877775,7.202258,6.042573,-0.004395,0.593027,0.729381
189,-156.557565,-1.647974,-3.418021,-0.009155,-0.146242,1.011002
190,-161.196307,0.427253,12.756542,0.163333,0.357794,1.013443
191,-205.813687,2.807660,-25.818265,0.010010,0.258427,1.053483
192,-335.332265,-2.868696,0.671397,-0.088258,0.370855,0.819593
193,-418.768597,3.662165,-13.122759,0.081300,0.196902,1.970611
194,-512.825208,-16.052491,-7.263294,-0.249516,-0.007568,1.258320
195,-601.815824,-16.845960,8.606088,0.296757,-0.331548,1.227314
196,-629.892424,-6.408789,32.776379,-0.070314,-0.679454,1.269306
197,-683.115892,-15.930419,129.945830,-1.401633,-1.311788,1.999969
198,-333.379110,-27.161059,41.199359,-1.113542,-1.075456,1.999969
199,208.621347,-14.465553,6.347753,-0.388800,0.573129,1.999969
200,167.971313,20.996414,-23.071641,-0.026856,1.011490,1.451316
201,3.723201,-18.188754,44.922560,-0.072877,0.768933,0.543221
202,-55.054551,-52.674144,47.425040,0.229252,0.444343,0.641978
203,52.918288,-30.579080,8.911269,0.320073,0.312749,0.710826
204,62.928206,-25.268940,-13.488975,0.365240,0.580087,0.669932
205,24.841688,-22.217136,-25.391012,0.257572,0.439094,0.999405
206,68.360418,-13.916228,-41.321431,0.107424,0.370489,1.073625
207,99.244678,-17.090105,-48.340581,-0.046143,0.425422,0.928725
208,100.099184,-30.640116,-45.349813,-0.157351,0.320195,0.930312
209,123.231861,-34.302281,-41.687648,-0.225467,0.256352,0.948989
210,140.993362,-31.128405,-36.804761,-0.274418,0.260990,0.979507
211,147.463188,-23.498894,-29.907683,-0.301152,0.212894,1.166522
212,166.994736,-11.413748,-23.743038,-0.323980,0.152712,1.276265
213,189.700160,-0.305180,-16.845960,-0.317266,0.102907,1.231952
214,203.677424,6.347753,-8.789197,-0.291508,0.034058,1.144305
215,215.884642,9.704738,-1.342794,-0.242924,-0.032593,1.021622
216,223.208972,9.704738,4.760815,-0.165774,-0.049928,0.968154
217,225.406271,8.728161,8.056764,-0.078859,-0.041016,1.058610
218,229.495689,11.047532,7.385367,-0.033326,-0.042359,1.191791
219,235.355154,15.991455,4.577707,-0.002075,-0.080323,1.278950
220,240.482185,22.400244,1.098650,-0.003296,-0.121462,1.290303
221,242.435340,27.161059,-1.586938,-0.026856,-0.199954,1.184344
222,236.942092,32.227054,-3.723201,-0.026612,-0.296391,1.068376
223,223.758297,40.833143,-4.943923,-0.026368,-0.351690,1.051530
224,206.607156,49.622339,-5.249104,-0.025513,-0.330205,1.282490
225,194.766155,54.749371,-5.493248,0.005493,-0.303593,1.583276
226,195.864805,57.495995,-6.469825,0.070069,-0.287968,1.800198
227,202.944991,55.481804,-9.277485,0.159915,-0.277348,1.878813
228,210.269322,51.392386,-15.442130,0.227176,-0.303593,1.853910
229,214.663920,48.035401,-23.376822,0.220951,-0.344854,1.850126
230,216.372931,44.678416,-29.724575,0.131350,-0.397101,1.976837
231,223.819333,42.664225,-32.166018,0.009277,-0.459480,1.999969
232,238.101778,40.833143,-30.762188,-0.085206,-0.530892,1.975006
233,246.402686,39.246204,-26.245518,-0.100221,-0.568978,1.721096
234,241.214618,37.232013,-21.667811,-0.088136,-0.596933,1.535668
235,230.777447,38.696880,-19.531548,-0.024903,-0.622934,1.481224
236,218.997482,44.129091,-20.874342,0.018311,-0.663096,1.461570
237,207.827878,50.354772,-23.620966,0.044678,-0.735485,1.318013
238,195.071336,54.261082,-27.038987,0.082887,-0.820325,1.101457
239,171.633478,57.434958,-31.250477,0.132204,-0.947768,0.952895
240,143.129625,64.759289,-36.438544,0.208255,-1.161395,0.870375
241,110.048066,77.576867,-43.762875,0.314214,-1.476341,1.149065
242,79.041733,90.943771,-46.204318,0.435431,-1.904814,1.425437
243,76.417182,99.549859,-44.190127,0.474983,-2.000031,1.092790
244,96.314946,97.596704,-42.114900,0.401251,-2.000031,0.183597
245,69.092851,64.087892,-22.400244,0.232059,-1.992096,-0.553231
246,-7.324331,1.831083,3.540093,-0.027710,-2.000031,-2.000031
247,-106.691081,-113.771267,42.298009,0.199588,-1.379171,-0.439948
248,-159.060044,-160.341802,42.725261,0.700450,-1.294331,0.542367
249,-167.910277,-104.982071,22.522316,0.278202,-0.489509,1.489525
250,-78.431373,-60.914015,10.925460,-0.229618,0.411017,1.585107
251,-78.675517,-54.322118,17.761501,-0.266850,1.096941,1.098772
252,-171.633478,-69.886320,26.062409,-0.124758,0.541146,0.077516
253,-252.262150,-79.346914,32.227054,0.012451,-0.133303,0.458015
254,-242.740520,-64.759289,35.950256,0.082765,-0.199466,1.895903
255,-211.001755,-35.950256,36.194400,0.510750,-0.051514,1.999969
256,-157.839323,-29.541466,17.395285,0.737072,-0.123659,1.999969
257,-112.062257,-2.929732,-1.525902,0.304814,-0.058473,1.604028
258,-114.137484,5.981537,2.441444,-0.526864,-0.124392,1.598657
259,-119.264515,-26.245518,28.137636,-0.972305,-0.288457,1.999969
260,-58.838788,-55.420768,39.307240,-0.335088,-0.296635,1.315572
261,-24.048219,-67.872129,31.799802,0.854627,0.434577,1.999969
262,-40.039673,-36.438544,16.174563,0.868177,0.093019,1.490501
263,-22.644388,0.610361,5.065995,-0.247440,0.118532,1.014542
264,-38.025483,-23.010605,10.925460,-0.458869,0.014893,0.914321
265,-37.170977,-45.288777,10.925460,0.195926,0.112062,1.256489
266,-26.367590,-31.494621,4.577707,0.252567,0.083009,1.171771
267,-30.151827,-21.301595,3.601129,-0.047120,0.045899,1.059464
268,-26.672770,-24.963760,4.211490,-0.004883,0.043580,1.038224
269,-22.095064,-25.268940,2.441444,0.082643,0.067506,1.049210
270,-22.949569,-20.935378,0.976577,0.060548,0.043580,1.141009
271,-18.677043,-15.503166,0.854505,0.020020,-0.007691,1.098283
272,-9.887846,-11.718929,0.549325,0.060548,0.069215,1.044450
273,-12.939651,-9.094377,1.159686,0.036988,0.056031,1.009415
274,-14.831769,-7.019150,1.525902,0.036133,0.018433,0.968032
275,-10.009918,-6.713970,1.647974,0.057862,0.067872,1.021012
276,-9.704738,-6.469825,0.976577,0.009522,0.039429,1.019059
277,-8.911269,-6.225681,0.732433,0.015381,0.016724,0.987442
278,-5.432212,-6.775006,0.488289,-0.006714,0.015259,1.018326
279,-6.775006,-7.751583,0.976577,0.024659,-0.014527,0.992691
280,-7.202258,-7.141222,0.366217,0.015747,0.032593,0.993545
281,-7.690547,-7.751583,1.220722,0.023560,0.086061,1.048722
282,-5.188067,-6.225681,1.098650,0.030762,0.042969,0.906874
283,-8.850233,-5.371176,0.671397,0.026246,0.012451,0.899672
284,-17.273213,-5.554284,1.647974,0.041260,0.022705,1.005264
285,-14.038300,-4.455634,1.220722,0.037598,0.015625,1.011856
286,-14.648661,-3.784237,0.854505,0.023438,0.024048,1.020035
287,-11.718929,-4.272526,1.037613,0.038941,0.078492,1.055192
288,-10.315099,-4.821851,1.403830,0.030884,0.020752,1.039567
289,-7.446403,-4.150454,0.732433,0.018311,0.062745,1.045060
290,-5.615320,-4.333562,0.549325,0.024659,0.001099,1.025284
291,-4.638743,-4.211490,0.000000,0.026978,0.053834,1.012222
292,-5.004959,-4.089418,0.000000,0.027222,0.066896,1.004044
293,-5.981537,-4.211490,0.000000,0.020874,0.037598,0.961318
294,-8.300908,-5.249104,0.122072,0.014160,0.049683,0.991226
295,-10.498207,-5.737392,0.000000,0.028077,0.040162,0.994766
296,-8.422980,-5.127031,-0.549325,0.039429,0.028077,0.974136
297,-11.718929,-4.394598,-0.427253,0.050050,0.009033,0.997208
298,-10.559243,-3.173877,-0.305180,0.046754,0.011597,0.985245
299,-11.779965,-2.624552,0.000000,0.044068,0.005982,0.995377
300,-11.657893,-3.051804,0.000000,0.042847,0.007080,0.985367
301,-12.634470,-3.051804,-0.122072,0.045411,0.012573,0.976944
302,-14.221408,-2.746624,0.061036,0.052003,0.024048,0.974868
303,-17.944610,-2.258335,-0.183108,0.045167,-0.009888,0.996597
304,-17.517357,-1.647974,0.183108,0.035035,-0.000732,0.993179
305,-18.616007,-1.892119,0.366217,0.037842,-0.005371,1.024186
306,-17.395285,-1.647974,0.305180,0.042481,-0.018921,1.001236
307,-16.113527,-2.136263,0.488289,0.038941,-0.008057,0.978164
308,-18.066682,-2.929732,0.793469,0.025513,-0.012329,0.976211
309,-18.432898,-4.272526,0.976577,0.031128,0.000977,0.976211
310,-21.118486,-5.065995,1.159686,0.052979,0.001099,0.959487
311,-24.292363,-5.371176,1.159686,0.040772,-0.016236,0.982681
312,-24.536507,-4.882887,1.525902,0.053101,-0.016114,0.971084
313,-27.893492,-4.821851,2.197299,0.053101,-0.015503,0.938613
314,-33.508812,-4.333562,3.479057,0.059815,-0.031983,0.993545
315,-32.166018,-1.709010,4.028382,0.111330,-0.043580,1.097063
316,-32.959487,1.709010,4.089418,-0.021851,-0.042847,1.020768
317,-32.959487,-0.732433,4.821851,0.083375,-0.029297,1.047745
318,-31.189441,0.183108,2.685588,0.083497,0.083375,0.913222
319,-43.701839,5.981537,-0.549325,-0.025269,0.043091,0.942519
320,-61.829557,-1.281758,-1.281758,0.067628,-0.096803,0.980850
321,-46.875715,2.868696,-6.164645,0.005615,-0.039796,1.009049
322,-52.674144,1.953155,-11.902037,0.023194,-0.058106,0.939101
323,-52.246891,6.164645,-15.014878,0.030884,-0.136599,1.113054
324,-41.565576,-1.525902,-21.301595,-0.036744,-0.349737,0.949111
325,-54.139010,2.441444,-29.114214,0.124514,-0.241703,0.993301
326,-57.068742,2.624552,-13.244831,0.273198,-0.188846,1.084123
327,-55.237659,10.437171,3.356985,0.160403,-0.128664,1.039689
328,-64.087892,17.029068,8.239872,0.112673,0.055543,1.039933
329,-87.830930,27.283131,-4.333562,0.104494,0.192874,0.939712
330,-130.861372,31.860838,-6.164645,0.036011,0.340459,0.827405
331,-182.009613,21.362631,-9.643702,-0.323247,0.531746,0.409674
332,-233.890288,-16.235599,-9.643702,-0.317998,0.306645,0.821302
333,-314.641032,-33.081559,-10.131991,-0.080201,0.483406,1.602319
334,-502.388037,-98.084993,-3.601129,-0.877577,0.048707,1.260151
335,-647.348745,-192.996109,22.644388,0.095583,0.080446,1.404562
336,-734.019989,-202.700847,28.076600,0.333623,-0.191043,1.092058
337,-783.459220,-173.647669,54.749371,0.599496,-1.655421,1.900175
338,-876.356146,-125.307088,198.855573,-1.162249,-0.782971,1.999969
339,-215.213245,-16.968032,-8.667124,-0.457404,-1.183246,1.999969
340,209.536889,57.801175,-49.927520,-0.840345,0.420905,1.999969
341,39.856565,80.689708,-58.716716,-0.594247,0.853651,1.558007
342,-135.683223,-3.540093,31.067369,-0.802258,0.705943,1.472923
343,-112.306401,-46.448463,57.434958,-0.475227,0.260258,1.613672
344,56.641489,-35.339895,47.364004,-0.364874,0.343023,1.550805
345,91.432059,-39.429313,53.650721,-0.209110,0.610727,1.362081
346,68.055238,-41.931792,58.716716,-0.114260,0.501839,1.548363
347,123.170825,-26.733806,49.500267,0.025513,0.395392,1.512230
348,171.633478,-14.770733,35.523003,0.130007,0.451179,1.201678
349,177.798123,-13.183795,23.376822,0.239994,0.394049,0.962783
350,190.493629,-6.286717,6.469825,0.301396,0.312627,0.825574
351,204.531930,8.178836,-13.244831,0.274907,0.270146,0.726940
352,204.287785,21.911955,-27.100023,0.174441,0.193729,0.688975
353,204.531930,32.532235,-33.752956,0.036622,0.091920,0.772595
354,212.710765,35.156786,-32.471199,-0.055665,0.036866,0.800549
355,219.058518,26.977951,-24.963760,-0.087037,0.034546,0.922499
356,224.368658,16.662852,-15.808347,-0.051637,0.036866,1.202655
357,237.491417,12.634470,-8.911269,0.011109,0.050782,1.573022
358,260.318914,15.991455,-5.981537,0.092409,0.041749,1.891020
359,288.944839,23.682002,-7.568475,0.176028,-0.025513,1.901274
360,317.265583,31.189441,-12.390326,0.260990,-0.162478,1.576684
361,334.416724,35.706111,-20.080873,0.358648,-0.295659,1.006851
362,324.345769,38.330663,-31.372549,0.421637,-0.479622,0.303716
363,281.437400,47.486076,-42.236973,0.476204,-0.484993,0.170901
364,223.941405,53.589685,-51.026169,0.326421,-0.402716,0.751965
365,194.766155,53.406577,-57.862211,0.209110,-0.321172,1.535668
366,200.137331,57.984283,-62.195773,0.066041,-0.260014,1.999969
367,207.644770,65.064469,-60.791943,-0.042115,-0.374151,1.999969
368,236.881056,76.539254,-54.505226,-0.127321,-0.633555,1.999969
369,266.056306,84.046693,-47.974365,-0.073854,-0.729015,1.939727
370,245.853361,85.755703,-39.307240,0.015137,-0.706065,1.999969
371,227.786679,82.642863,-33.203632,0.105104,-0.764782,1.999969
372,257.450217,83.436332,-32.227054,0.273075,-0.843397,1.999969
373,298.039216,89.539940,-36.987869,0.470954,-0.894423,1.999969
374,298.527504,88.746471,-42.664225,0.607187,-0.903822,1.382467
375,268.558785,80.262455,-49.988556,0.614511,-0.926284,1.220478
376,239.444572,72.755016,-56.763561,0.401862,-0.996719,1.537255
377,229.373617,67.994202,-57.801175,0.148440,-1.162371,1.736477
378,229.312581,61.097124,-52.674144,-0.049439,-1.427146,1.527245
379,218.570230,57.129778,-43.396658,-0.059083,-1.813626,1.124529
380,187.502861,65.491722,-32.043946,0.170291,-2.000031,0.723522
381,136.171511,86.671244,-26.611734,0.425299,-2.000031,0.322271
382,97.596704,108.400092,-11.596857,0.510262,-2.000031,-0.421027
383,57.679103,99.000534,-16.479744,0.277714,-2.000031,-0.690074
384,-3.784237,35.706111,14.648661,0.070436,-2.000031,-0.607919
385,-69.153887,-45.654994,51.026169,-0.030152,-1.688380,0.296635
386,-97.901884,-99.732967,62.867170,0.247440,-1.930449,-1.670680
387,-223.086900,-156.435492,70.191501,0.318730,-0.209232,1.097429
388,-149.721523,-88.868544,49.988556,-0.148074,-0.124880,1.895903
389,-81.361105,-44.617380,49.744411,-0.554574,0.995621,1.684474
390,-147.158007,-84.107729,62.928206,-0.147951,0.743542,0.419928
391,-241.947051,-98.939498,68.909743,0.490974,-0.080934,0.010132
392,-246.280613,-68.726635,63.050278,0.842420,-0.116945,0.690440
393,-268.070497,-50.415808,52.735180,1.382467,0.155032,1.999969
394,-240.054932,-19.958801,22.827497,1.405783,-0.183474,1.999969
395,-129.030289,22.583352,-14.343481,0.532967,-0.186404,1.952544
396,-130.006867,35.461967,-18.005646,-0.424811,0.023560,1.756252
397,-142.641337,30.518044,9.826810,-1.371603,-0.306157,1.999969
398,-100.160220,-24.353399,27.832456,-1.076677,-0.662119,1.323751
399,-35.584039,-58.106355,36.743725,-0.034302,-0.011597,1.062272
400,-59.449149,-78.858625,33.752956,0.888441,0.417121,1.999969
401,-50.598917,-43.335622,12.878614,0.404059,-0.116579,1.504051
402,-21.057450,-31.738766,6.713970,-0.363775,0.065187,1.253803
403,-28.931106,-54.810407,10.193027,-0.019654,0.046021,0.962295
404,-30.334936,-51.819638,6.042573,0.352789,0.091920,1.398459
405,-31.494621,-38.635843,4.821851,0.080812,0.016114,1.292866
406,-14.770733,-31.677729,1.342794,-0.010864,0.064698,1.063005
407,-17.944610,-32.288090,2.014191,0.040894,0.063478,1.000015
408,-21.057450,-28.931106,3.051804,0.100221,0.078248,1.042130
409,-22.095064,-23.010605,1.892119,0.047730,0.087282,1.006851
410,-26.550698,-18.249790,1.525902,0.055299,0.065309,1.044816
411,-30.029755,-13.183795,2.380407,0.117556,0.076295,1.027726
412,-30.823224,-8.911269,1.403830,0.039673,0.015381,1.033707
413,-29.846647,-6.591897,2.746624,0.049683,0.052369,1.043107
414,-28.198672,-7.263294,3.356985,-0.010376,0.000000,1.037125
415,-22.278172,-7.263294,2.014191,0.047974,0.024048,1.050187
416,-23.132677,-5.981537,1.220722,0.022095,0.014405,1.018814
417,-21.301595,-5.615320,0.427253,0.016602,-0.001099,1.024674
418,-17.517357,-5.249104,0.061036,0.035889,0.022217,1.002701
419,-17.578393,-3.540093,-0.549325,0.038575,0.043091,0.988663
420,-22.827497,-2.441444,0.427253,0.030518,0.010376,1.010025
421,-20.141909,-1.220722,0.061036,0.029786,0.008545,1.005997
422,-21.606775,-0.671397,0.244144,0.025269,-0.002319,1.018570
423,-20.447089,-0.549325,0.061036,0.027955,-0.019654,1.056291
424,-15.564202,0.061036,-0.366217,0.030396,-0.023316,1.035294
425,-13.061723,0.305180,-1.159686,0.024903,-0.007202,1.001236
426,-14.465553,0.000000,-1.037613,0.031006,-0.009033,1.015396
427,-13.427939,0.732433,-0.976577,0.028321,-0.006226,0.987686
428,-15.686275,1.403830,-0.915541,0.023194,-0.002686,0.995132
429,-18.371862,1.709010,-0.183108,0.038209,-0.036011,1.015152
430,-15.686275,2.990768,0.488289,0.041505,-0.033570,1.002090
431,-15.686275,2.319371,1.647974,0.015991,-0.018067,0.996231
432,-14.465553,0.915541,1.342794,0.015137,-0.028931,0.987442
433,-13.916228,-0.366217,1.037613,0.018433,-0.042481,1.015396
434,-11.108568,-0.305180,0.793469,0.030152,-0.055177,1.036027
435,-8.361944,0.000000,0.854505,0.030640,-0.050294,1.039933
436,-5.371176,0.732433,0.488289,0.025513,-0.037110,1.001480
437,-5.920500,0.732433,0.671397,0.023438,-0.029908,0.994400
438,-6.103609,0.671397,0.671397,0.015625,-0.023682,0.986954
439,-7.446403,0.183108,0.427253,0.023194,-0.020996,0.979019
440,-10.681315,-0.488289,0.671397,0.017334,-0.016602,0.977554
441,-13.672084,-1.098650,0.671397,0.015991,-0.013794,0.958145
442,-16.723888,-1.709010,0.671397,0.008545,-0.010010,0.943740
443,-22.217136,-3.112840,0.793469,0.030274,-0.000366,0.963394
444,-27.527276,-3.356985,1.464866,0.026978,-0.051392,0.988174
445,-24.841688,-2.258335,1.770047,0.041138,-0.053223,1.006485
446,-25.635157,-1.342794,2.075227,0.017090,-0.031617,0.968399
447,-29.419394,-2.380407,3.234913,0.026246,-0.056153,0.984878
448,-28.992142,-2.075227,3.540093,0.021607,-0.054200,0.995621
449,-29.785611,-1.770047,4.577707,0.032837,-0.060060,0.997818
450,-32.654307,-1.098650,5.798428,0.037110,-0.082399,0.982681
451,-29.663539,0.488289,6.042573,0.053712,-0.030030,0.997330
452,-34.119173,2.929732,6.042573,-0.068605,-0.064576,1.003555
453,-43.945983,0.976577,5.249104,0.022583,-0.032227,0.942275
454,-48.767834,0.305180,3.051804,-0.004395,-0.035889,0.981216
455,-56.092164,-1.159686,1.831083,0.008911,-0.123537,1.042374
456,-57.679103,0.183108,0.915541,-0.010376,-0.084230,1.014786
457,-54.566262,0.610361,-2.197299,-0.018921,-0.085695,1.057755
458,-52.063783,3.356985,-5.676356,-0.040040,-0.113405,0.969375
459,-50.232700,2.319371,-12.329290,-0.017700,-0.240360,1.039078
460,-51.392386,3.356985,-18.921187,-0.026246,-0.173587,1.073381
461,-41.016251,0.427253,-19.226368,0.051148,-0.341802,1.117815
462,-19.226368,0.915541,-7.629511,0.063478,-0.221561,1.018082
463,-22.034028,-3.967346,-4.455634,0.076783,-0.130007,1.059464
464,-38.879988,0.000000,-5.249104,0.017090,0.024170,0.959731
465,-61.341268,4.028382,-14.282444,0.073854,0.187259,0.980972
466,-112.916762,11.230640,-24.109255,0.058595,0.273686,0.799451
467,-147.646296,16.968032,-25.391012,-0.045289,0.461921,0.748547
468,-199.404898,-12.329290,-28.259709,-0.362676,0.135256,0.665293
469,-286.137179,-27.038987,-27.466239,-0.093263,0.656016,1.576196
470,-501.228351,-64.393072,-30.395972,-0.333989,0.540291,1.027848
471,-669.016556,-173.525597,19.714656,-0.317876,-0.062501,1.404440
472,-797.985809,-231.937133,52.735180,0.146242,-0.164431,1.111955
473,-885.389487,-199.099718,100.038148,0.540536,-2.000031,1.999969
474,-932.509346,-107.057298,283.817807,-0.735485,-0.569955,1.999969
475,-44.678416,-33.447776,-4.638743,-0.076661,-1.284443,1.999969
476,344.975967,47.791257,-3.967346,-0.712169,0.545418,1.999969
477,128.786145,56.031128,-8.056764,-0.090211,0.906508,1.076432
478,-87.769894,-19.409476,60.425727,-0.229496,0.629770,0.625742
479,-88.685435,-38.147555,65.918975,0.068849,0.261357,0.822156
480,62.745098,3.418021,29.602502,0.059205,0.370001,0.735485
481,86.549172,15.197986,15.197986,0.211429,0.661265,0.377203
482,30.273899,8.178836,9.826810,0.213748,0.615976,0.641245
483,53.894865,-1.098650,-1.464866,0.169802,0.517098,0.977798
484,114.015412,-13.855192,-14.465553,0.126955,0.588022,1.042863
485,129.884794,-32.227054,-19.348440,-0.011353,0.536995,1.129900
486,149.843595,-43.762875,-22.461280,-0.020264,0.408087,1.215106
487,191.775387,-31.494621,-28.931106,-0.033082,0.355596,1.181292
488,206.607156,-15.136950,-32.166018,-0.118532,0.250858,1.079484
489,214.908064,-1.770047,-30.273899,-0.243900,0.089357,1.023087
490,230.838483,4.455634,-23.376822,-0.333623,0.003540,0.970840
491,238.406958,5.249104,-12.756542,-0.349859,-0.045533,0.992325
492,244.205386,5.432212,-1.464866,-0.325200,-0.072755,1.099626
493,255.985351,9.399557,7.019150,-0.239017,-0.078737,1.188861
494,265.262837,16.174563,12.268254,-0.132815,-0.073365,1.294209
495,270.878157,23.071641,14.282444,-0.025391,-0.096437,1.434958
496,283.756771,28.320745,11.291676,0.057130,-0.152834,1.453391
497,296.879530,33.630884,4.760815,0.134401,-0.187137,1.415183
498,296.879530,41.260395,-3.723201,0.188479,-0.297124,1.271870
499,288.761730,52.368963,-11.779965,0.267338,-0.393561,1.170062
500,273.075456,61.097124,-19.836728,0.286870,-0.451545,1.146258
501,258.487831,60.242618,-29.114214,0.339849,-0.490120,1.111101
502,239.200427,57.557031,-37.415122,0.340703,-0.431647,1.254292
503,212.710765,51.697566,-44.922560,0.358404,-0.379156,1.691920
504,196.963455,43.396658,-53.772793,0.351934,-0.386358,1.999969
505,213.260090,38.574807,-66.163119,0.329961,-0.518441,1.999969
506,242.923629,43.152514,-81.483177,0.234867,-0.604379,1.999969
507,247.806516,52.857252,-90.882734,0.089479,-0.674205,1.999969
508,240.787366,60.425727,-93.263142,-0.076295,-0.794934,1.999969
509,251.102464,68.421454,-91.004807,-0.163455,-0.880507,1.999969
510,257.206073,78.431373,-85.023270,-0.106081,-0.901991,1.831937
511,243.045701,87.830930,-77.698940,0.000244,-0.929580,1.625513
512,233.157855,95.765621,-72.510872,0.123415,-0.939345,1.524681
513,222.171359,96.986343,-68.177310,0.234501,-0.933486,1.478904
514,210.879683,90.638590,-65.247578,0.280034,-1.010147,1.435325
515,206.118868,83.802548,-63.172351,0.250004,-1.163226,1.268208
516,191.714351,78.980697,-60.181582,0.173342,-1.404440,1.009415
517,165.468833,78.126192,-55.237659,0.131350,-1.723415,0.875868
518,130.495155,86.732280,-49.073014,0.117433,-2.000031,0.778088
519,99.916075,104.982071,-41.260395,0.079591,-2.000031,0.501717
520,87.708858,120.485237,-23.804074,-0.047852,-2.000031,0.011231
521,48.889906,101.197833,3.906310,-0.176272,-2.000031,-0.440436
522,-7.751583,45.105669,40.161746,-0.217655,-1.705104,-0.368536
523,-49.378195,-14.343481,71.717403,-0.079103,-1.331930,0.222416
524,-69.703212,-43.762875,89.356832,0.026612,-1.017838,0.937758
525,-86.121920,-48.584726,92.408637,0.120974,-1.741238,-2.000031
526,-206.973373,-147.585260,123.903258,0.349004,0.354742,0.451423
527,-146.547646,-152.285039,82.459754,0.699840,0.043946,1.600610
528,-63.233387,-54.444190,76.905470,0.325689,1.333150,1.042374
529,-202.212558,-100.770581,74.464027,0.665049,0.661997,-0.666270
530,-319.401846,-124.391547,67.383841,1.434714,-0.186770,0.155520
531,-330.205234,-79.163806,50.293736,1.358297,-0.264164,1.999969
532,-287.724117,-55.115587,25.452049,1.302510,-0.313725,1.999969
533,-155.825132,-5.004959,-9.399557,0.585824,-0.279667,1.999969
534,-117.250324,21.362631,-15.503166,-0.512093,-0.066041,1.626001
535,-151.430533,20.935378,15.503166,-1.310445,-0.266484,1.797635
536,-139.223316,-31.860838,43.213550,-0.865736,-0.554086,1.670314
537,-61.463340,-60.425727,45.410849,0.211673,-0.038087,1.368429
538,-65.186542,-63.050278,29.663539,1.007218,0.281498,1.751858
539,-51.148241,-30.701152,10.925460,0.263676,0.072023,1.614771
540,-41.748684,-29.175250,5.920500,-0.447761,-0.077150,1.329122
541,-26.855879,-52.613108,6.042573,0.130739,0.027222,1.238911
542,-23.926146,-39.978637,-0.854505,0.425666,0.077150,1.486107
543,-18.310826,-17.212177,-1.770047,0.031250,-0.013550,1.046403
544,-13.366903,-16.845960,-1.342794,-0.167605,0.096437,0.995499
545,-20.141909,-21.179522,-1.159686,0.168948,0.084352,1.054459
546,-19.592584,-7.446403,0.488289,0.078370,0.019532,1.142596
547,-13.916228,1.953155,1.586938,0.103883,0.058717,1.052995
548,-16.968032,10.986496,2.990768,0.082033,0.066407,1.044938
549,-18.188754,16.723888,3.418021,0.016236,0.028199,1.051041
550,-16.968032,17.273213,4.394598,0.006958,0.017212,1.033341
551,-13.855192,17.151141,4.211490,-0.003052,0.029297,1.004532
552,-13.183795,13.916228,4.028382,-0.076417,0.030884,0.988174
553,-11.535821,6.408789,3.234913,-0.086549,0.035401,0.939834
554,-11.352712,1.586938,2.014191,-0.033936,0.048096,0.986099
555,-12.878614,-0.854505,2.014191,-0.047730,0.033326,1.001968
556,-11.047532,-2.319371,1.342794,-0.023560,0.024048,1.003799
557,-10.131991,-2.746624,1.464866,-0.021973,0.029541,0.990738
558,-10.009918,-3.234913,2.014191,-0.030152,0.034424,0.952407
559,-12.085145,-5.432212,2.929732,-0.021729,0.041627,0.945327
560,-15.381094,-7.934691,3.356985,-0.038697,0.034546,0.981216
561,-17.151141,-10.009918,2.929732,0.003784,0.016968,0.981094
562,-16.601816,-10.009918,2.685588,-0.011963,0.009277,0.998550
563,-15.503166,-10.742351,1.709010,-0.082033,0.075685,1.041886
564,-18.493935,-13.672084,1.892119,-0.011109,0.070680,0.930312
565,-28.137636,-14.648661,1.709010,-0.020630,0.014649,0.975845
566,-26.245518,-14.160372,1.098650,-0.001221,0.009277,1.009781
567,-26.428626,-13.061723,1.159686,0.002075,0.003052,1.008560
568,-24.414435,-13.366903,1.647974,-0.001465,0.038697,1.052018
569,-21.057450,-12.024109,1.586938,-0.000610,-0.021851,1.026627
570,-18.188754,-12.207218,1.342794,-0.000977,-0.019532,1.038712
571,-17.700465,-12.451362,0.976577,0.020142,-0.053590,1.020035
572,-13.061723,-11.535821,1.037613,0.017334,-0.008545,1.022599
573,-13.550011,-12.268254,0.915541,0.004883,0.001953,0.976089
574,-15.564202,-13.305867,0.732433,0.003174,0.001953,0.982071
575,-16.174563,-13.794156,0.854505,0.017334,0.013916,1.006119
576,-16.906996,-13.366903,0.671397,0.029541,0.003784,1.006485
577,-19.226368,-12.817578,0.183108,0.009522,-0.019287,1.002823
578,-21.850919,-12.512398,0.244144,0.026490,-0.041871,0.983413
579,-22.217136,-11.413748,0.549325,0.022095,-0.019898,0.977432
580,-26.001373,-10.498207,0.854505,0.027710,-0.020142,0.993668
581,-29.785611,-9.643702,0.976577,0.012573,-0.035767,0.994034
582,-31.250477,-9.338521,0.671397,0.031495,-0.034546,1.003189
583,-33.508812,-8.361944,1.342794,0.045533,-0.067262,1.021622
584,-32.104982,-6.897078,1.647974,0.031128,-0.078370,0.999649
585,-29.846647,-5.798428,1.770047,0.015747,-0.046754,1.019669
586,-34.302281,-7.019150,2.441444,0.031006,-0.062013,0.990005
587,-34.302281,-7.141222,2.563516,0.024048,-0.073487,0.982193
588,-34.729534,-5.371176,3.234913,0.050782,-0.062257,0.985977
589,-33.142596,-1.098650,7.507439,0.078614,-0.035401,1.043107
590,-45.471885,1.342794,9.399557,0.045289,-0.100099,0.996597
591,-39.917601,2.197299,9.155413,0.036622,-0.054810,0.980728
592,-46.387427,2.624552,7.141222,0.020752,-0.030518,0.978897
593,-54.932479,0.305180,4.394598,-0.004395,-0.057984,1.007095
594,-56.031128,-0.976577,0.732433,0.000977,-0.088746,1.068132
595,-51.575494,0.732433,-5.859464,-0.082277,-0.111452,0.996841
596,-49.439231,-2.502480,-11.596857,-0.036744,-0.154299,1.032731
597,-43.823911,-3.112840,-21.362631,0.012085,-0.234623,1.011246
598,-42.481117,-3.234913,-28.198672,0.061280,-0.297002,1.055436
599,-30.334936,-6.164645,-12.024109,0.129030,-0.230350,1.016495
600,-23.987182,-0.488289,-6.347753,0.140261,-0.221073,1.109270
601,-20.325017,2.136263,1.464866,0.065309,-0.166262,1.082414
602,-33.020523,7.202258,-3.967346,0.005493,0.055177,0.980240
603,-49.866484,5.432212,-11.963073,0.169436,0.118166,0.989639
604,-88.563363,22.827497,-14.770733,0.034424,0.397589,0.854994
605,-155.336843,26.855879,-21.728847,-0.042237,0.363409,0.599741
606,-186.892500,2.624552,-10.193027,-0.018677,0.557137,0.535653
607,-287.663081,-16.113527,-25.635157,-0.227787,0.728649,1.469993
608,-500.617990,-32.898451,1.892119,0.047852,0.377081,1.377951
609,-680.430304,-86.060884,48.828870,-0.243046,0.144778,1.655421
610,-753.978790,-108.155947,58.960861,0.174197,-0.375494,1.376486
611,-794.689860,-91.859312,72.022583,0.207889,-0.332647,0.887953
612,-874.830243,-94.544900,79.407950,0.366949,-2.000031,1.065934
613,-1094.254978,-121.828031,196.475166,-0.301518,-1.430564,1.999969
614,-193.789578,-73.243305,-10.315099,0.061036,-1.431052,1.999969
615,200.686656,-32.471199,-55.359731,-0.277348,0.635386,1.999969
616,50.171664,-4.577707,-54.322118,-0.014527,1.076310,1.999969
617,-98.390173,-45.532921,-1.525902,-0.315312,0.620859,1.999969
618,53.162432,-26.245518,-1.159686,-0.222049,0.224857,1.999969
619,233.218891,7.568475,-15.381094,-0.232303,0.413092,1.217426
620,198.550393,7.629511,-9.521630,-0.101442,0.378790,0.511604
621,150.148775,6.897078,-1.647974,-0.108522,0.191287,0.451545
622,176.943618,11.718929,-3.723201,-0.077638,0.107057,0.403204
623,194.338903,7.263294,-4.577707,-0.062623,0.173465,0.310063
624,174.929427,-13.916228,-0.915541,-0.007324,0.162234,0.539193
625,186.160067,-32.776379,-3.418021,0.110597,0.185794,0.847913
626,214.480812,-41.565576,-15.075914,0.222416,0.264652,1.089616
627,228.946365,-35.950256,-30.457008,0.281621,0.272709,1.337911
628,248.661021,-15.747311,-47.058824,0.229740,0.194705,1.504173
629,277.286946,7.934691,-61.768521,0.106325,0.039063,1.481102
630,300.114443,21.667811,-67.017624,-0.008545,-0.087160,1.357931
631,321.293965,25.574121,-65.918975,-0.080323,-0.219608,1.243305
632,333.867399,20.996414,-59.876402,-0.085573,-0.289311,1.102312
633,339.421683,14.404517,-54.077974,-0.005371,-0.332525,0.997818
634,335.027085,13.672084,-51.697566,0.109499,-0.332403,0.971206
635,326.176852,21.850919,-56.702525,0.149416,-0.456184,0.787610
636,304.814221,45.349813,-63.111315,0.118654,-0.606821,0.410040
637,267.154955,76.783398,-65.003433,0.173465,-0.626841,0.358160
638,218.387121,85.511559,-63.904784,0.196536,-0.471931,0.769421
639,194.094759,75.196460,-66.773480,0.228275,-0.355474,1.531151
640,182.436866,72.755016,-67.627985,0.248051,-0.259892,1.999969
641,197.817960,79.102770,-69.947356,0.182010,-0.447028,1.999969
642,251.346609,93.263142,-74.219883,0.022583,-0.825940,1.999969
643,274.723430,114.564736,-67.383841,-0.072999,-0.959976,1.747219
644,227.115282,113.038834,-49.256123,-0.119020,-0.977554,1.952422
645,212.100404,101.136797,-33.386740,-0.058595,-1.013931,1.999969
646,250.003815,101.747158,-26.489662,0.168215,-1.043595,1.999969
647,283.268483,120.546273,-27.100023,0.407599,-0.982437,1.919219
648,263.370718,130.006867,-30.945296,0.526986,-0.940444,1.500755
649,239.017319,130.739300,-37.781338,0.505135,-0.957290,1.444968
650,226.077668,129.579614,-45.410849,0.414191,-0.965347,1.572656
651,206.668193,121.766995,-46.265354,0.228519,-1.034562,1.923125
652,209.536889,102.967880,-42.298009,0.101198,-1.278584,1.999969
653,233.829252,83.070115,-36.804761,0.158938,-1.600122,1.674830
654,226.565957,75.318532,-31.494621,0.373419,-2.000031,1.183124
655,188.052186,83.497368,-26.672770,0.583139,-2.000031,0.601205
656,160.646983,103.273060,-31.982910,0.681529,-2.000031,-0.413703
657,134.279393,96.803235,-39.002060,0.519539,-2.000031,-1.335714
658,35.889220,31.555657,-16.479744,0.240604,-2.000031,-1.402853
659,-59.632258,-58.533608,13.550011,0.001343,-1.803983,-0.397345
660,-83.802548,-114.259556,37.964446,-0.126101,-1.371115,0.689097
661,-89.784085,-130.251011,55.237659,-0.174685,-0.999405,1.349264
662,-102.784772,-136.781872,48.523690,0.319707,-1.082414,-1.165057
663,-134.645609,-109.437705,67.261769,-0.354986,1.094743,1.804593
664,-136.110475,-87.098497,48.950942,-0.366217,0.543465,1.631495
665,-80.323491,-48.828870,55.359731,-0.330083,0.884779,0.238163
666,-226.565957,-90.333410,59.449149,0.123049,0.183597,-0.334478
667,-291.752499,-80.384527,71.778439,0.596811,-0.289433,0.592905
668,-277.042802,-56.702525,64.637217,1.365621,-0.045167,1.999969
669,-241.458763,-28.442817,28.320745,1.663355,0.057862,1.999969
670,-179.507134,13.794156,-8.789197,0.908095,-0.342168,1.999969
671,-101.991302,36.682689,-23.804074,-0.691173,-0.245609,1.999969
672,-126.588846,1.953155,13.305867,-1.959625,-0.584848,1.879789
673,-54.261082,-69.275959,38.879988,-0.712413,-0.364508,0.595346
674,-61.646448,-105.287251,40.405890,1.128191,0.568856,1.999969
675,-71.473259,-58.838788,22.034028,1.134417,0.011475,1.977813
676,-23.620966,-10.559243,4.882887,-0.677012,-0.004761,1.183001
677,-34.973678,-49.683375,10.620279,-0.317021,0.147707,0.918471
678,-39.368276,-56.031128,-0.305180,0.636851,0.165774,1.430808
679,-37.048905,-22.217136,-2.319371,0.053346,-0.034424,1.172869
680,-28.503853,-22.583352,-0.854505,-0.181643,0.019776,1.147845
681,-18.493935,-26.306554,-5.065995,0.303105,0.106081,1.198749
682,-21.545739,-5.859464,-1.525902,0.058228,-0.009766,1.176898
683,-10.009918,-1.403830,0.427253,0.002319,0.074586,1.038346
684,-12.695506,2.746624,0.793469,0.100343,0.078126,0.998184
685,-17.639429,8.545052,2.929732,-0.004395,0.026490,1.030289
686,-15.259022,8.117800,3.479057,0.024903,0.020508,1.049821
687,-12.817578,9.521630,3.356985,0.018311,0.029175,1.012100
688,-13.488975,9.521630,3.906310,0.005005,0.028443,1.025772
689,-11.596857,9.216449,3.418021,-0.010986,0.036500,0.986954
690,-13.000687,7.080186,3.234913,-0.042359,0.051881,0.953872
691,-16.540780,5.004959,3.051804,-0.024170,0.026612,0.998184
692,-14.404517,4.150454,2.685588,-0.001343,0.020996,1.010147
693,-12.451362,4.394598,2.807660,-0.006592,0.026368,0.996841
694,-12.756542,3.723201,3.234913,-0.026612,0.015625,0.999527
695,-11.230640,2.319371,3.234913,-0.014038,0.015625,0.971695
696,-12.024109,2.197299,1.892119,-0.033692,0.178592,1.263569
697,-8.850233,0.915541,2.319371,-0.006226,-0.009888,0.991226
698,-13.244831,-1.159686,2.197299,-0.033082,-0.002441,0.947036
699,-11.963073,-2.441444,1.525902,-0.019654,0.015259,0.991470
700,-13.122759,-3.295949,1.464866,-0.012085,0.018067,0.979629
701,-14.343481,-4.150454,1.464866,-0.022339,0.010742,0.969009
702,-14.709697,-5.065995,1.586938,-0.025879,0.018189,0.986587
703,-14.160372,-4.394598,-1.464866,-0.038209,-0.130739,0.907607
704,-13.122759,-5.676356,0.427253,-0.024903,0.005737,1.040543
705,-15.197986,-6.897078,1.403830,-0.030640,-0.000244,1.026993
706,-12.695506,-8.056764,0.366217,-0.022095,0.002075,0.974014
707,-13.427939,-9.399557,0.000000,-0.006104,-0.005859,0.987564
708,-12.939651,-10.070954,-0.244144,-0.005493,-0.024903,0.996963
709,-12.573434,-9.338521,-1.281758,-0.037598,0.102052,1.231342
710,-9.704738,-9.521630,-0.671397,-0.029419,-0.016114,1.126482
711,-13.244831,-11.779965,0.000000,-0.004273,-0.031373,0.967178
712,-10.681315,-11.596857,-0.610361,0.012696,-0.022950,1.048478
713,-8.728161,-9.887846,-0.305180,0.026612,-0.026368,1.038590
714,-7.080186,-7.568475,-0.366217,0.022827,-0.049073,0.982071
715,-5.737392,-6.225681,0.549325,0.032105,-0.062623,1.026993
716,-6.103609,-4.516670,1.098650,-0.000610,-0.044678,1.002213
717,-6.408789,-4.272526,0.976577,0.015991,-0.047974,0.942275
718,-9.094377,-5.371176,0.244144,-0.005127,-0.010254,0.911513
719,-13.244831,-6.530861,-0.366217,0.006714,-0.014527,0.951431
720,-16.357671,-5.188067,-1.647974,0.113039,-0.127932,0.741100
721,-14.038300,-4.211490,-0.793469,0.055421,-0.072023,1.023941
722,-18.249790,-3.234913,0.366217,0.019287,-0.044068,1.034684
723,-16.845960,-2.197299,0.915541,0.024903,-0.058106,0.997208
724,-15.869383,-1.281758,0.793469,0.020386,-0.034546,0.970840
725,-19.165332,-1.770047,1.159686,0.013062,-0.026856,0.978775
726,-21.606775,-1.770047,1.464866,0.019287,-0.017090,0.990616
727,-21.301595,0.610361,2.197299,-0.003418,-0.000977,0.940322
728,-31.738766,-0.976577,4.699779,0.033082,-0.003906,0.959976
729,-39.917601,-1.220722,6.469825,-0.024781,-0.017578,0.939834
730,-40.955215,-2.746624,5.371176,0.004395,-0.003662,0.970352
731,-38.696880,-1.647974,8.178836,-0.029664,0.008301,0.949111
732,-43.579767,-5.615320,4.028382,-0.030762,-0.051637,0.989639
733,-48.950942,-10.131991,0.061036,-0.021729,-0.013916,1.081682
734,-50.171664,-7.995727,-8.056764,-0.018311,-0.051759,0.912734
735,-46.936751,-10.864424,-13.855192,-0.026856,-0.078248,1.058854
736,-52.124819,-13.916228,-25.879301,-0.003784,-0.130739,0.990860
737,-57.373922,-9.338521,-16.906996,0.146487,-0.263432,1.103532
738,-50.232700,-2.990768,0.671397,0.097658,-0.211063,1.103777
739,-44.678416,0.305180,4.028382,0.045777,-0.193240,1.080217
740,-32.776379,0.915541,0.061036,0.065431,-0.109743,1.034562
741,-39.185168,8.117800,-2.380407,0.046754,0.104738,0.938125
742,-73.609522,9.765774,-4.516670,-0.018189,0.357671,0.816907
743,-131.776913,11.657893,-13.611048,-0.077028,0.414069,0.600717
744,-200.869764,7.995727,-8.911269,-0.023682,0.439826,0.759777
745,-262.516213,-18.738079,12.939651,-0.316045,0.149783,1.104631
746,-341.924163,-33.691920,4.577707,-0.000244,0.473762,1.404196
747,-547.737850,-52.613108,25.757229,-0.262821,0.008301,1.503075
748,-662.119478,-91.004807,53.162432,-0.109621,0.015869,0.907240
749,-733.592737,-109.071489,64.576181,0.080934,-0.055909,1.251240
750,-822.034028,-122.255283,74.341955,0.114870,-0.247440,0.986343
751,-1019.424735,-169.130999,148.744945,0.094362,-2.000031,1.999969
752,-497.383078,-118.226902,116.212711,-1.075944,-1.804715,1.999969
753,236.087587,-73.182269,-11.352712,-0.110964,0.972671,1.999969
754,316.716259,-9.094377,-18.493935,-0.091188,1.625635,1.999969
755,111.573968,10.620279,-0.976577,-0.399176,0.810559,1.400900
756,2.197299,-25.452049,34.912642,-0.347539,0.453010,0.612802
757,64.576181,-7.507439,30.457008,-0.163088,0.272709,0.259525
758,114.198520,5.432212,19.165332,-0.140627,0.386969,0.031739
759,67.017624,-6.775006,20.019837,-0.032959,0.398688,0.160891
760,57.740139,-9.765774,15.991455,-0.013184,0.304082,0.489509
761,92.530709,-7.995727,6.713970,0.009277,0.391608,0.594003
762,98.573281,-14.892805,1.098650,-0.050660,0.436530,0.786877
763,105.775540,-26.001373,-1.831083,-0.058473,0.408331,1.083879
764,139.223316,-31.616693,-8.545052,-0.030396,0.419684,1.273945
765,169.802396,-28.686961,-17.212177,-0.042237,0.408576,1.383688
766,194.094759,-18.066682,-24.902724,-0.051637,0.337530,1.455589
767,220.645457,-1.098650,-32.654307,-0.086671,0.222660,1.494408
768,246.952010,14.160372,-36.865797,-0.124025,0.082521,1.438254
769,271.244373,25.940337,-38.025483,-0.149660,-0.031861,1.331441
770,286.259251,33.875029,-35.889220,-0.156863,-0.115236,1.286885
771,295.780880,41.931792,-31.677729,-0.132937,-0.190677,1.256123
772,302.433814,49.378195,-26.794842,-0.068727,-0.221927,1.224506
773,300.907912,50.232700,-25.696193,0.234501,-0.262943,1.215229
774,293.095293,49.439231,-38.818952,0.443610,-0.375982,1.336812
775,298.832685,62.378882,-55.909056,0.442756,-0.415656,1.304097
776,292.668040,58.838788,-70.496681,0.440558,-0.447517,1.354635
777,283.024338,51.819638,-80.689708,0.337163,-0.536385,1.445823
778,277.592126,45.777066,-85.694667,0.168338,-0.592172,1.560327
779,274.479286,42.053864,-84.962234,0.002319,-0.599252,1.652613
780,271.427482,41.687648,-80.567636,-0.071046,-0.575082,1.750759
781,267.887388,48.706798,-75.074388,-0.098268,-0.533455,1.814359
782,261.844816,63.843748,-69.214923,-0.096193,-0.505989,1.878325
783,253.971160,81.849393,-62.684062,-0.060548,-0.496590,1.975006
784,246.768902,95.155261,-55.237659,0.011963,-0.528084,1.999969
785,246.463722,101.380941,-48.950942,0.121462,-0.561044,1.999969
786,249.881743,107.484550,-44.678416,0.238285,-0.589975,1.999969
787,247.867552,108.155947,-40.711070,0.278569,-0.625254,1.999969
788,242.801556,98.512245,-35.156786,0.248295,-0.713756,1.999969
789,240.482185,82.032502,-28.259709,0.203372,-0.850843,1.901762
790,237.247272,63.782712,-22.461280,0.199466,-1.025162,1.702296
791,223.880369,52.368963,-19.714656,0.258183,-1.293355,1.522972
792,197.024491,55.176623,-19.958801,0.415900,-1.724636,1.461326
793,154.482338,67.139696,-25.940337,0.756359,-2.000031,1.684962
794,130.739300,107.240406,-40.711070,1.117205,-2.000031,1.469749
795,147.585260,159.670405,-54.688334,1.073625,-2.000031,0.092409
796,143.556878,168.154421,-70.069429,0.678843,-2.000031,-1.186542
797,47.608148,81.177996,-36.621653,0.286137,-2.000031,-1.700465
798,-65.918975,-60.669871,14.526589,0.088136,-1.874540,-0.667979
799,-105.104143,-164.309148,46.387427,0.168826,-1.497337,0.728527
800,-120.485237,-228.946365,28.198672,1.139178,-1.008072,-0.642832
801,-173.464561,-156.984817,17.517357,0.407843,0.703868,1.773587
802,-119.569696,-115.785458,-4.272526,-0.514046,0.432624,1.684352
803,-33.203632,-80.811780,1.586938,-0.876967,0.944839,0.355352
804,-212.771801,-89.234760,33.508812,-0.987808,0.574960,-0.814588
805,-335.027085,-87.037461,59.754330,-0.542733,-0.445075,-0.379767
806,-352.544442,-86.671244,87.830930,0.777722,-0.361700,1.999969
807,-300.907912,-44.556344,59.510185,1.755276,-0.014893,1.999969
808,-193.667506,24.048219,13.733120,1.543847,-0.096437,1.999969
809,-166.506447,30.823224,-5.554284,-0.073732,-0.057252,1.999969
810,-154.360266,10.315099,10.620279,-1.762478,-1.052384,1.999969
811,-18.066682,-49.744411,28.137636,-0.933852,-0.303227,0.791272
812,-66.956588,-87.403677,42.175937,1.222187,0.571908,1.533349
813,-70.801862,-40.222782,19.775692,1.079850,0.133181,1.722805
814,-48.767834,-8.667124,10.193027,-0.794934,-0.142336,1.292622
815,-39.795529,-52.796216,17.029068,-0.152224,-0.023194,1.119890
816,-20.691234,-50.598917,0.915541,0.620859,0.291752,1.314107
817,-47.608148,-22.461280,2.258335,-0.098024,-0.036622,1.028092
818,-34.485389,-30.151827,0.671397,-0.207156,-0.020752,1.188983
819,-26.001373,-31.189441,0.244144,0.286137,0.054566,1.322530
820,-16.723888,-11.841001,-0.976577,0.033326,0.014771,0.999527
821,-19.226368,-10.925460,-0.732433,-0.049805,0.087282,0.931655
822,-27.405203,-9.765774,0.427253,0.129274,0.041993,1.068742
823,-26.672770,-2.441444,1.831083,-0.013306,0.023804,1.042496
824,-26.489662,-2.319371,2.685588,0.032227,0.008423,1.005020
825,-26.428626,-0.305180,3.356985,0.025879,-0.000488,1.060929
826,-24.292363,0.427253,2.136263,-0.001587,-0.008789,0.984512
827,-21.728847,0.488289,3.234913,-0.023926,0.021973,1.011124
828,-22.949569,-0.671397,3.601129,-0.012085,0.023194,1.012833
829,-25.329976,0.976577,3.479057,0.030396,0.006836,1.008804
830,-24.719615,2.502480,3.418021,-0.014771,0.016968,1.015518
831,-25.818265,3.418021,3.906310,0.024414,-0.015747,1.058976
832,-22.583352,5.737392,4.028382,0.013184,-0.026612,1.057267
833,-19.653620,6.775006,4.211490,-0.013306,-0.023316,1.045914
834,-13.977264,4.333562,4.577707,0.056764,0.110231,0.948501
835,-15.686275,6.286717,3.906310,-0.024781,-0.020508,0.945327
836,-15.259022,4.943923,2.685588,-0.015503,-0.023316,1.021256
837,-14.953841,4.272526,2.197299,-0.026123,-0.010986,0.989639
838,-15.747311,3.051804,1.464866,-0.019165,-0.004517,0.973037
839,-18.921187,2.380407,1.464866,-0.013672,-0.019165,0.993912
840,-18.860151,2.441444,1.586938,-0.023438,-0.055055,0.994034
841,-15.808347,2.136263,1.037613,0.005615,-0.028809,0.995499
842,-19.104295,2.136263,1.159686,-0.011597,-0.033448,0.990738
843,-18.799115,2.136263,1.037613,-0.022217,-0.048829,1.013809
844,-16.906996,1.953155,1.037613,0.017578,-0.047364,1.026505
845,-18.432898,2.380407,0.976577,-0.035523,-0.054444,0.982437
846,-17.578393,1.525902,1.342794,-0.027710,-0.070558,1.016983
847,-14.160372,0.671397,1.342794,-0.041505,-0.068116,1.001480
848,-13.427939,-1.220722,1.709010,-0.039185,-0.067628,1.006973
849,-7.385367,-3.662165,2.136263,0.035523,0.036378,0.824475
850,-12.268254,-4.272526,1.770047,-0.027832,-0.034180,0.933242
851,-12.634470,-5.920500,1.037613,-0.026490,-0.034058,1.003799
852,-13.611048,-7.324331,0.000000,-0.041505,-0.017456,0.973770
853,-18.921187,-8.911269,0.000000,-0.012940,-0.045411,0.964248
854,-19.592584,-10.070954,-0.732433,-0.023682,-0.057862,0.988052
855,-19.531548,-10.742351,-0.671397,-0.016846,-0.045289,0.986465
856,-23.193713,-11.352712,-0.366217,-0.004639,-0.045533,0.983169
857,-26.916915,-11.352712,-0.610361,0.028443,-0.044556,1.008438
858,-30.395972,-9.948882,-1.220722,-0.008301,-0.058228,0.984756
859,-33.325704,-9.582666,-0.671397,-0.010498,-0.060426,0.998428
860,-37.659266,-9.155413,0.488289,-0.004883,-0.073365,0.971939
861,-40.588998,-8.728161,2.075227,-0.004639,-0.077882,0.969986
862,-44.251164,-7.324331,3.906310,0.012207,-0.105226,1.017960
863,-43.213550,-5.737392,5.371176,0.032471,-0.138918,1.039811
864,-39.795529,-3.112840,6.286717,-0.010620,-0.139406,1.127947
865,-34.363317,0.305180,6.591897,-0.009033,-0.210697,0.982681
866,-26.306554,3.601129,7.141222,-0.038941,-0.093996,1.015396
867,-27.100023,2.319371,5.249104,-0.013916,-0.127932,0.967910
868,-22.339208,1.953155,8.850233,-0.082643,-0.062013,1.096941
869,-35.339895,-4.516670,-5.371176,-0.184573,0.042603,1.166888
870,-35.645075,-8.789197,-15.320058,-0.067506,-0.049928,0.970596
871,-46.753643,-7.507439,-24.841688,0.020386,-0.220096,0.946792
872,-39.551385,-7.873655,-8.300908,0.057984,-0.220462,1.039078
873,-35.828183,-3.356985,-4.821851,0.067140,-0.185061,0.992935
874,-33.813993,-6.408789,-6.652934,-0.014893,-0.126467,1.006973
875,-47.241932,-6.713970,-11.474784,0.001221,-0.113039,0.998672
876,-56.641489,-7.446403,-18.127718,0.002319,0.094850,0.920912
877,-83.924620,-7.629511,-22.644388,0.036744,0.088869,0.877821
878,-121.217670,-0.793469,-15.625238,0.117433,0.186160,0.836561
879,-126.710918,-5.371176,-21.423667,-0.050294,0.322881,0.847669
880,-173.220417,-16.479744,-44.556344,0.048096,0.829847,1.293477
881,-393.133440,-14.038300,-76.112001,0.206790,1.103777,1.251972
882,-612.375067,-4.882887,-16.540780,-0.311162,0.760876,1.999969
883,-752.086671,-49.011978,17.578393,-0.222782,-0.005859,1.283955
884,-830.457008,-62.195773,42.786297,0.002686,-0.281865,0.899550
885,-911.512932,-119.264515,71.900511,0.604257,-2.000031,1.999969
886,-786.511025,-94.483864,182.986191,-1.310811,-1.130388,1.999969
887,-4.577707,-135.194934,-26.489662,-0.532845,-0.746471,1.999969
888,308.171206,-88.197147,3.784237,-0.797375,0.957900,1.999969
889,121.889067,-57.618067,-6.713970,-0.308232,0.830823,1.934600
890,-29.724575,-67.444877,69.459068,-0.382208,0.752087,0.894423
891,-21.728847,-48.157473,61.951629,-0.099733,0.375006,0.770764
892,79.713130,-2.502480,31.555657,-0.041260,0.353277,0.493050
893,69.886320,-0.244144,23.987182,0.029419,0.475471,0.330938
894,41.138323,-16.418708,21.789883,0.042481,0.406744,0.713390
895,84.107729,-30.457008,12.756542,0.008301,0.412238,0.932387
896,119.569696,-48.645762,5.004959,0.001709,0.508186,1.078752
897,134.340429,-61.463340,-1.281758,0.052247,0.496590,1.219013
898,167.727169,-57.740139,-14.038300,0.059693,0.435554,1.304341
899,196.414130,-44.068055,-27.588312,0.011963,0.386847,1.263203
900,214.724956,-29.907683,-37.415122,-0.080690,0.260502,1.214252
901,234.134432,-19.043259,-43.152514,-0.167239,0.133791,1.167742
902,253.299763,-12.573434,-44.495308,-0.229374,0.040162,1.165667
903,268.436713,-6.225681,-41.931792,-0.305791,-0.040528,1.199115
904,280.277714,0.854505,-37.903410,-0.338872,-0.120241,1.341939
905,298.466468,12.085145,-31.677729,-0.345586,-0.191165,1.354513
906,312.932021,22.339208,-25.085832,-0.323369,-0.234989,1.312764
907,321.355001,33.447776,-19.775692,-0.262577,-0.301518,1.214740
908,320.500496,47.302968,-17.578393,-0.233890,-0.480598,0.857069
909,304.386969,64.698253,-15.503166,-0.111330,-0.650645,0.502937
910,274.174105,80.018311,-11.169604,0.006470,-0.620493,0.493294
911,236.881056,71.900511,-8.667124,0.056275,-0.517464,0.782238
912,222.903792,52.979324,-11.535821,0.164797,-0.347173,1.172137
913,212.100404,45.166705,-17.395285,0.176028,-0.313359,1.661646
914,203.311208,46.387427,-22.278172,0.209842,-0.241947,1.999969
915,218.020905,51.026169,-31.250477,0.157107,-0.317998,1.999969
916,249.210346,55.786984,-37.842374,0.102541,-0.421759,1.999969
917,276.310369,58.533608,-40.466926,0.045777,-0.499519,1.999969
918,294.987411,61.280232,-43.030442,0.083375,-0.649424,1.999969
919,296.269169,69.031815,-44.556344,0.163333,-0.662486,1.849760
920,282.291905,69.031815,-47.730220,0.230228,-0.673838,1.845731
921,282.963302,66.407263,-55.481804,0.326421,-0.649302,1.844511
922,278.873884,65.857939,-66.895552,0.389288,-0.611826,1.827665
923,269.352255,68.177310,-79.957275,0.399176,-0.647349,1.779446
924,263.797971,74.464027,-93.446250,0.369024,-0.729992,1.649683
925,248.844129,82.032502,-103.395132,0.298344,-0.867567,1.495018
926,229.312581,89.723049,-107.911803,0.190555,-1.076188,1.330343
927,207.766842,97.352560,-105.287251,0.085695,-1.324727,1.151385
928,175.844968,104.066529,-95.338369,0.077272,-1.648951,1.085100
929,135.561151,113.466087,-79.224842,0.277348,-2.000031,1.108904
930,91.371023,124.391547,-65.613794,0.470100,-2.000031,1.039689
931,76.600290,141.359579,-46.387427,0.482551,-2.000031,0.495491
932,78.065156,125.551232,-35.278859,0.276738,-2.000031,-0.345708
933,26.428626,57.862211,2.014191,-0.214115,-2.000031,-1.448631
934,-119.142443,-105.470359,57.984283,0.147341,-2.000031,-1.875395
935,-273.441672,-237.003128,96.620127,1.054826,-2.000031,-0.456062
936,-181.338216,-208.194095,81.116960,1.002213,0.084352,1.999969
937,-119.020371,-114.076448,49.500267,0.248417,1.105852,1.999969
938,-125.734340,-82.093538,50.476844,0.003906,0.833387,0.538949
939,-229.556725,-106.080720,54.993515,0.301518,0.205203,-0.583383
940,-293.217365,-100.038148,57.312886,0.670420,-0.039307,1.054704
941,-307.743954,-70.435645,53.345541,1.141131,-0.112673,1.999969
942,-209.903105,-34.058137,19.043259,1.089372,-0.355718,1.999969
943,-132.570382,1.953155,-3.295949,0.157473,-0.156741,1.545068
944,-166.872663,6.286717,8.484016,-0.618540,0.006836,1.648951
945,-166.628519,-15.014878,35.217823,-1.192035,-0.179812,1.999969
946,-127.870604,-70.679789,47.425040,-0.629404,-0.604623,1.581201
947,-72.510872,-100.770581,50.782025,0.308110,0.020630,1.449851
948,-76.478218,-97.718776,38.757916,1.142351,0.329473,1.999969
949,-52.674144,-58.716716,15.991455,0.399420,0.045411,1.696559
950,-36.011292,-42.908370,7.263294,-0.311650,0.042847,1.204608
951,-40.527962,-59.449149,6.347753,0.217777,0.160769,1.358907
952,-35.828183,-42.664225,-3.540093,0.472053,0.039307,1.270527
953,-34.607462,-16.235599,-2.319371,0.027222,0.032593,1.104875
954,-35.645075,-17.212177,1.403830,-0.068360,0.049073,1.078264
955,-31.860838,-10.925460,-2.075227,0.297490,0.009888,1.301045
956,-23.559930,7.202258,1.037613,0.068360,0.032349,1.063371
957,-23.498894,11.230640,2.319371,0.048463,0.030274,1.106828
958,-19.531548,14.221408,1.647974,0.058228,0.003784,1.063127
959,-17.761501,17.029068,2.563516,0.025147,0.049439,0.988907
960,-21.362631,17.151141,3.784237,-0.010864,0.019287,1.016983
961,-17.517357,14.892805,2.685588,-0.013184,0.044434,0.998184
962,-18.554971,11.657893,2.136263,-0.021485,0.051148,0.963272
963,-21.057450,8.422980,1.831083,-0.048829,0.034302,0.972793
964,-21.667811,4.760815,1.647974,-0.019532,0.021851,0.976089
965,-21.301595,3.845274,1.342794,-0.004761,0.023560,1.008927
966,-21.179522,3.418021,1.525902,-0.001709,-0.010132,1.045304
967,-16.601816,3.662165,1.403830,-0.000732,-0.001221,0.999405
968,-15.564202,3.173877,1.647974,-0.005249,0.000732,1.002945
969,-15.075914,2.258335,2.136263,-0.010010,-0.002808,1.019181
970,-12.817578,2.502480,0.488289,0.033936,-0.053223,0.859144
971,-13.061723,0.122072,0.671397,-0.013916,-0.007446,1.030533
972,-15.075914,-1.953155,1.464866,-0.020020,-0.009766,0.976944
973,-12.451362,-2.868696,0.976577,-0.005859,0.005127,0.986587
974,-13.488975,-3.234913,1.098650,-0.011963,-0.001953,0.988296
975,-13.305867,-3.906310,1.098650,-0.004517,-0.006348,0.991104
976,-13.977264,-4.699779,1.342794,-0.005005,-0.012451,1.008316
977,-14.343481,-5.127031,1.770047,0.007568,-0.025025,1.023331
978,-13.733120,-3.845274,1.098650,0.006592,0.006348,1.080583
979,-9.094377,-3.906310,1.342794,-0.029175,-0.010864,1.091691
980,-11.963073,-6.103609,1.647974,-0.012085,-0.007813,0.964981
981,-11.657893,-7.629511,0.732433,-0.013550,0.007324,0.948257
982,-14.648661,-9.338521,-0.183108,-0.000366,0.006592,0.966079
983,-18.738079,-10.559243,0.061036,-0.000122,-0.010986,0.972427
984,-19.043259,-10.681315,0.061036,0.019898,-0.053834,0.975601
985,-19.470512,-9.948882,0.854505,0.027222,-0.048707,1.037491
986,-19.104295,-7.995727,1.159686,0.037720,-0.054688,1.002090
987,-20.019837,-6.652934,1.831083,0.017700,-0.037964,1.018692
988,-20.447089,-6.286717,2.075227,0.014038,-0.035035,1.009293
989,-18.860151,-5.310140,1.586938,0.029541,-0.043214,1.018326
990,-18.921187,-4.699779,1.403830,0.005615,-0.039307,0.996963
991,-19.836728,-5.310140,0.854505,-0.002441,-0.023682,0.972671
992,-22.400244,-6.286717,0.366217,0.001587,-0.023194,0.962661
993,-26.306554,-7.690547,0.000000,0.019043,-0.038453,0.995132
994,-28.015564,-7.812619,-0.305180,0.006592,-0.057984,0.973526
995,-28.015564,-8.484016,-0.183108,0.007446,-0.047120,0.984146
996,-30.273899,-8.911269,-0.366217,0.030396,-0.039796,1.006729
997,-33.386740,-8.850233,-0.366217,0.009888,-0.047486,0.984268
998,-34.058137,-7.934691,0.671397,0.010742,-0.037110,0.945205
999,-45.471885,-8.056764,4.699779,0.060304,-0.085206,1.099260
1000,-41.016251,-1.586938,5.554284,0.037476,-0.105470,0.984146
1001,-36.499580,1.342794,6.225681,0.043336,-0.053223,1.052140
1002,-48.218509,3.295949,5.920500,0.038087,-0.097292,0.994278
1003,-49.866484,3.173877,7.263294,0.003784,-0.101686,0.995254
1004,-44.617380,3.418021,3.906310,0.005127,-0.072511,1.001846
1005,-47.241932,3.295949,-1.709010,-0.040772,-0.054322,0.974136
1006,-51.148241,0.671397,-3.845274,-0.063722,-0.075319,1.033707
1007,-48.218509,0.854505,-8.789197,0.010132,-0.239261,0.955459
1008,-47.119860,-4.211490,-17.395285,-0.093263,-0.161746,1.115618
1009,-58.655680,-9.704738,-19.897765,0.058717,-0.311162,1.076677
1010,-44.190127,-7.019150,-7.629511,0.144533,-0.285893,1.067765
1011,-30.151827,-3.173877,-4.455634,0.061891,-0.144533,0.998184
1012,-43.274586,-1.342794,-10.925460,0.035035,0.177859,1.004898
1013,-92.591745,4.760815,-21.362631,0.115846,0.138674,0.930922
1014,-124.513619,16.113527,-20.080873,0.021607,0.255375,0.749401
1015,-155.153735,-0.366217,-20.996414,-0.065187,0.251957,0.591073
1016,-197.146563,-37.415122,-25.452049,-0.033326,0.744518,0.243412
1017,-338.872358,-45.105669,-30.884260,0.023682,0.622202,1.542016
1018,-468.085756,-92.835889,-26.245518,-0.874037,0.285283,1.228046
1019,-619.699397,-202.761883,-6.836042,-0.217288,-0.187747,1.140032
1020,-759.960327,-271.000229,65.857939,0.053101,-0.170047,0.951919
1021,-840.100710,-273.136492,100.892653,0.432990,-1.221698,1.329976
1022,-1002.334630,-271.000229,246.036469,-0.521248,-1.520653,1.999969
1023,-357.366293,-126.466773,100.892653,-0.441657,-0.484504,1.999969
1024,192.385748,-36.682689,-22.705425,0.296513,0.665171,1.999969
1025,175.417716,60.181582,-53.040360,0.305547,1.294331,1.999969
1026,30.029755,33.691920,-13.244831,-0.492561,0.911879,1.646021
1027,-18.493935,-5.310140,5.004959,-0.264408,0.343145,1.298360
1028,87.464714,22.034028,4.699779,-0.242313,0.235355,0.749035
1029,126.649882,32.166018,3.540093,-0.108766,0.415900,0.296757
1030,80.201419,30.212863,7.263294,0.008423,0.395148,0.342657
1031,71.351186,29.541466,6.103609,0.032959,0.300053,0.576669
1032,105.287251,24.902724,0.122072,0.009644,0.346441,0.730236
1033,116.212711,9.704738,-1.770047,0.002930,0.385870,0.851209
1034,127.626459,-2.929732,-2.990768,0.028565,0.407233,1.134905
1035,157.167926,-2.136263,-9.094377,0.030640,0.406256,1.336812
1036,185.915923,4.699779,-16.418708,0.017823,0.391241,1.397360
1037,210.147250,16.418708,-22.827497,-0.033326,0.301762,1.395651
1038,234.378576,28.931106,-26.733806,-0.106447,0.174929,1.326925
1039,257.206073,40.039673,-26.550698,-0.159060,0.062257,1.212299
1040,270.450904,48.157473,-22.217136,-0.200198,-0.039551,1.187030
1041,280.766003,52.368963,-14.160372,-0.216312,-0.139040,1.221698
1042,292.912184,51.209277,-5.188067,-0.181765,-0.207401,1.247333
1043,304.631113,46.814679,2.990768,-0.100099,-0.239994,1.283589
1044,311.100938,40.833143,7.141222,0.015259,-0.306157,1.200092
1045,310.307469,41.443503,5.004959,0.139528,-0.431647,1.033463
1046,288.578622,56.092164,-1.342794,0.304204,-0.603525,0.882216
1047,273.563745,77.271687,-6.775006,0.311284,-0.588510,0.904555
1048,259.098192,73.853666,-17.395285,0.386603,-0.465461,0.981949
1049,239.566644,61.707485,-27.649348,0.399908,-0.398932,1.098161
1050,219.485771,57.495995,-35.889220,0.415290,-0.353765,1.582300
1051,203.799496,53.284504,-43.579767,0.331426,-0.360113,1.999969
1052,211.001755,44.800488,-52.613108,0.308476,-0.521736,1.999969
1053,239.749752,54.993515,-61.707485,0.206668,-0.726085,1.999969
1054,254.825666,68.177310,-62.317845,0.020020,-0.793469,1.999969
1055,244.144350,67.139696,-55.115587,-0.085328,-0.907729,1.999969
1056,247.562371,66.956588,-44.495308,-0.119753,-0.967300,1.999969
1057,248.783093,67.444877,-33.569848,-0.099123,-0.962539,1.999969
1058,247.867552,68.421454,-24.292363,-0.043336,-0.987808,1.999969
1059,251.163500,71.839475,-19.836728,0.022583,-1.023819,1.830228
1060,243.656062,76.905470,-18.554971,0.080323,-1.051041,1.643946
1061,229.373617,82.093538,-18.921187,0.125734,-1.137469,1.552880
1062,216.983291,89.356832,-19.531548,0.199588,-1.265522,1.520775
1063,200.320439,90.821698,-18.310826,0.327031,-1.516625,1.446677
1064,185.000381,90.821698,-18.249790,0.561166,-1.876738,1.298238
1065,156.130312,95.460441,-26.977951,0.818128,-2.000031,1.144182
1066,139.894713,126.466773,-34.058137,0.899184,-2.000031,0.581430
1067,128.847181,145.998322,-49.073014,0.755261,-2.000031,-0.317998
1068,80.323491,117.372396,-39.246204,0.484993,-2.000031,-1.104021
1069,-2.502480,33.203632,-15.075914,0.253300,-2.000031,-0.979385
1070,-63.111315,-53.772793,7.812619,0.079591,-1.685939,-0.065797
1071,-87.953002,-93.751431,25.329976,-0.342290,-1.719020,-0.600717
1072,-189.761196,-174.563211,38.269627,-0.039796,-0.200565,0.563973
1073,-151.003281,-154.299229,37.964446,-0.078492,0.123537,1.999969
1074,-101.075761,-39.978637,47.180896,-0.649546,1.003677,1.848661
1075,-170.901045,-64.209964,61.524376,-0.693248,0.813977,0.108034
1076,-251.712825,-114.259556,75.989929,0.428840,-0.264775,-0.312261
1077,-282.719158,-89.112688,80.323491,1.131487,-0.209598,1.182391
1078,-278.141451,-64.087892,63.050278,1.717189,0.216190,1.999969
1079,-209.842069,-26.062409,21.301595,1.669581,-0.178225,1.999969
1080,-107.484550,17.578393,-23.254749,0.547250,-0.091554,1.489647
1081,-141.725795,31.006332,-15.808347,-1.078264,-0.179690,1.675685
1082,-163.149462,-8.972305,25.818265,-1.856596,-0.772595,1.832181
1083,-65.674830,-82.887007,45.105669,-0.741222,-0.358404,0.932387
1084,-70.496681,-122.072175,43.457694,1.093400,0.480354,1.999969
1085,-71.839475,-74.586099,16.113527,1.324239,0.121706,1.993805
1086,-42.542153,-24.597543,2.868696,-0.541390,-0.016602,1.121843
1087,-53.162432,-62.073701,8.239872,-0.402228,0.052613,1.152361
1088,-48.279545,-71.168078,-3.723201,0.658213,0.004761,1.331563
1089,-42.114900,-33.813993,-2.380407,0.154543,0.014527,1.150286
1090,-48.462654,-26.977951,0.671397,-0.058717,-0.083375,1.248798
1091,-18.432898,-26.611734,-1.831083,0.130129,0.048829,1.049332
1092,-23.865110,-20.019837,-5.127031,0.068482,0.067262,0.937392
1093,-34.424353,-14.526589,3.051804,0.101442,-0.027588,1.158465
1094,-19.409476,-7.141222,2.807660,0.085206,-0.024659,1.039322
1095,-17.944610,-1.037613,4.577707,0.145876,0.070558,1.040543
1096,-24.231327,3.845274,2.563516,0.006470,-0.060304,1.072404
1097,-19.043259,3.173877,5.065995,0.043336,-0.053468,1.021866
1098,-18.677043,4.516670,4.699779,0.054322,-0.019776,0.970474
1099,-18.432898,5.004959,4.089418,0.033082,-0.045655,0.976089
1100,-13.550011,3.967346,3.112840,0.013794,-0.088380,0.955093
1101,-13.305867,2.014191,3.234913,0.016846,0.012696,0.971450
1102,-17.151141,-0.061036,3.234913,-0.012451,0.007202,1.015396
1103,-13.061723,-0.793469,2.319371,0.006104,-0.022950,0.997208
1104,-12.573434,-1.159686,2.685588,0.010986,-0.012818,1.011124
1105,-11.474784,-2.258335,2.685588,0.005249,0.020752,1.030655
1106,-10.315099,-3.112840,2.929732,0.039673,0.048463,1.033585
1107,-9.033341,-2.685588,2.746624,0.033326,0.073121,1.048966
1108,-7.873655,-2.380407,2.319371,0.024903,0.015747,1.053239
1109,-6.530861,-2.075227,1.586938,0.034180,-0.071412,0.972915
1110,-8.728161,-2.624552,1.342794,0.014771,0.052735,1.015152
1111,-10.070954,-3.845274,1.525902,0.023682,-0.007935,0.997940
1112,-8.178836,-3.845274,0.183108,0.026978,-0.086671,0.960952
1113,-9.704738,-4.638743,0.488289,0.031983,-0.027344,0.992081
1114,-9.765774,-4.821851,0.427253,0.023194,-0.020020,0.995010
1115,-9.582666,-5.310140,-0.305180,0.047242,-0.066285,0.922622
1116,-10.070954,-6.347753,-0.366217,0.023560,-0.009155,0.982071
1117,-13.977264,-7.385367,-0.549325,0.034302,-0.027466,0.993790
1118,-12.512398,-7.080186,-0.793469,0.046998,-0.041627,1.008682
1119,-12.329290,-6.042573,-0.366217,0.056886,-0.037964,1.016983
1120,-11.474784,-4.638743,-0.366217,0.049683,-0.039673,1.023575
1121,-10.498207,-3.356985,0.061036,0.032227,-0.003906,0.982925
1122,-13.794156,-3.906310,-0.488289,0.023560,-0.016846,0.939834
1123,-17.639429,-5.188067,-0.427253,0.031128,0.004883,0.956435
1124,-24.292363,-6.958114,-0.549325,0.035767,-0.011963,0.939467
1125,-29.175250,-7.446403,-0.732433,0.029541,-0.014038,0.943496
1126,-31.860838,-8.545052,-0.183108,0.048585,-0.048096,0.994644
1127,-31.067369,-6.958114,0.549325,0.066651,-0.046876,1.021256
1128,-31.311513,-5.065995,1.342794,0.056031,-0.043091,1.008927
1129,-34.058137,-3.906310,2.197299,0.044678,-0.041993,0.980850
1130,-32.959487,-3.784237,3.051804,0.114748,-0.002564,1.115496
1131,-39.490349,-1.159686,2.441444,0.020630,-0.085817,1.011978
1132,-34.973678,-1.281758,2.685588,0.056031,-0.117678,0.977554
1133,-36.072328,-0.061036,4.577707,0.042969,-0.106447,1.007218
1134,-32.349126,1.831083,6.286717,0.111330,-0.059693,0.985489
1135,-43.335622,5.310140,7.385367,-0.001587,-0.059693,0.948623
1136,-45.899138,3.601129,5.493248,0.026123,-0.072877,1.021256
1137,-45.593957,6.652934,1.831083,0.110597,-0.103029,0.843641
1138,-52.979324,3.540093,-0.366217,-0.013672,-0.081788,1.050675
1139,-50.720989,1.953155,-4.882887,-0.023682,-0.113893,0.974990
1140,-47.486076,-0.732433,-10.620279,-0.001953,-0.132204,1.065202
1141,-43.762875,0.122072,-18.616007,-0.004028,-0.207889,0.996597
1142,-41.077287,-3.051804,-24.170291,-0.024537,-0.246220,1.032975
1143,-39.612421,-4.028382,-17.029068,0.148074,-0.263798,1.050797
1144,-27.527276,-1.037613,-6.713970,0.211917,-0.234745,1.137591
1145,-27.405203,6.530861,3.906310,0.096681,-0.195071,1.045304
1146,-35.034714,9.643702,5.127031,0.038331,0.019532,0.981949
1147,-56.275273,15.014878,-4.028382,0.166018,0.072023,0.995010
1148,-90.150301,27.222095,-5.554284,-0.018311,0.402838,0.810681
1149,-164.003967,27.527276,-22.278172,-0.012818,0.343267,0.667979
1150,-187.869078,-7.690547,0.061036,-0.311772,0.218143,0.658457
1151,-247.318227,-24.658579,-1.220722,0.166384,0.286870,1.227558
1152,-394.903487,-49.134051,-2.075227,-0.194339,0.493294,1.655299
1153,-579.110399,-146.913863,24.597543,-0.538582,-0.106325,1.318990
1154,-716.685740,-205.264363,55.909056,-0.000488,-0.118288,1.071794
1155,-779.003586,-193.240253,79.896239,0.352300,-0.204959,1.084367
1156,-850.598917,-175.234607,94.422828,0.375372,-1.770779,1.796048
1157,-1051.651789,-177.553979,237.796597,-0.611826,-0.858045,1.999969
1158,-188.052186,-72.022583,30.945296,-0.088991,-1.339376,1.999969
1159,329.350729,15.075914,-22.034028,0.195071,0.894789,1.999969
1160,235.904479,58.350500,-42.298009,0.185672,1.206195,1.999969
1161,81.605249,12.756542,3.906310,-0.423713,0.719249,1.116350
1162,35.645075,-12.756542,20.691234,-0.135378,0.246708,0.748058
1163,121.889067,16.968032,12.756542,-0.082643,0.196414,0.341192
1164,144.411383,28.564889,4.699779,0.008423,0.362921,0.037110
1165,90.943771,23.804074,2.929732,0.080812,0.300420,0.211307
1166,83.802548,18.066682,-0.976577,0.063478,0.203983,0.439826
1167,116.151675,4.882887,-9.338521,0.081544,0.314214,0.593271
1168,122.133211,-13.000687,-15.259022,0.083497,0.401129,0.809949
1169,127.687495,-21.667811,-22.644388,0.094728,0.384161,1.084733
1170,155.458915,-15.259022,-33.630884,0.076051,0.393194,1.315206
1171,180.544747,-2.685588,-44.190127,0.065309,0.377081,1.463279
1172,205.081254,11.718929,-52.063783,0.005982,0.272587,1.511620
1173,236.331731,24.963760,-56.702525,-0.059205,0.131960,1.418479
1174,260.379950,35.706111,-56.153201,-0.148806,0.015137,1.377584
1175,273.441672,42.175937,-49.256123,-0.211307,-0.115114,1.411398
1176,288.090333,47.119860,-38.208591,-0.237308,-0.256718,1.415671
1177,302.616922,48.157473,-25.391012,-0.207401,-0.291020,1.459983
1178,317.448692,46.448463,-14.587625,-0.129641,-0.341924,1.455589
1179,325.810636,43.823911,-6.652934,-0.022461,-0.357916,1.449363
1180,329.472801,45.349813,-5.798428,0.124514,-0.430549,1.320455
1181,321.843290,56.275273,-12.451362,0.288579,-0.618418,0.927871
1182,302.861067,78.431373,-20.019837,0.401617,-0.644541,0.613046
1183,267.826352,79.896239,-27.954528,0.435920,-0.532357,0.649546
1184,230.228122,62.928206,-39.246204,0.478889,-0.483040,0.922377
1185,206.179904,56.092164,-48.645762,0.479866,-0.330571,1.659571
1186,185.854887,53.467613,-59.143969,0.449714,-0.314580,1.999969
1187,202.029450,58.289464,-70.191501,0.325078,-0.576547,1.999969
1188,262.699321,76.539254,-80.262455,0.206668,-0.796155,1.999969
1189,268.436713,91.798276,-81.361105,0.131350,-0.864637,1.701320
1190,223.697261,87.586786,-71.412222,0.051270,-0.911879,1.973419
1191,220.462348,76.417182,-62.928206,0.066651,-0.960830,1.999969
1192,254.947738,77.088579,-59.510185,0.157473,-0.994522,1.999969
1193,271.793698,86.915389,-58.289464,0.224369,-1.048844,1.900786
1194,259.342336,92.713817,-56.458381,0.269535,-1.169085,1.483543
1195,242.252232,90.394446,-53.528649,0.244266,-1.259541,1.330587
1196,224.795911,78.919661,-48.462654,0.214359,-1.375753,1.355612
1197,210.513466,70.069429,-40.650034,0.196902,-1.552636,1.301656
1198,196.658274,66.773480,-31.250477,0.229740,-1.821683,1.104997
1199,170.901045,66.590372,-22.644388,0.375494,-2.000031,0.803723
1200,141.054398,70.130465,-17.822538,0.529305,-2.000031,0.522225
1201,111.635004,80.079347,-20.508125,0.544320,-2.000031,0.146120
1202,76.295109,81.483177,-21.423667,0.394659,-2.000031,-0.261112
1203,25.268940,55.054551,-7.385367,0.189456,-2.000031,-0.414923
1204,-28.564889,4.516670,14.892805,0.003906,-1.824979,-0.100221
1205,-60.486763,-42.847333,38.208591,-0.130129,-1.455344,0.461921
1206,-136.964981,-117.067216,45.044633,-0.190677,-1.012955,-0.627939
1207,-132.326238,-143.739986,69.031815,0.272099,0.766735,1.761379
1208,-121.461814,-79.407950,51.758602,-0.064332,1.063981,1.583642
1209,-118.837263,-62.439918,56.824598,-0.293828,1.086809,-0.035645
1210,-283.817807,-110.353246,62.745098,0.159060,-0.100832,-0.397345
1211,-302.983139,-102.540627,74.891279,0.652720,-0.346807,0.825452
1212,-277.531090,-76.783398,60.852979,1.363546,0.079225,1.999969
1213,-246.280613,-39.063096,32.654307,1.328023,-0.138796,1.999969
1214,-123.903258,6.652934,-5.371176,0.893080,-0.187869,1.858183
1215,-120.119020,33.630884,-17.761501,-0.175540,0.070314,1.467308
1216,-162.111849,36.499580,3.051804,-0.978897,-0.395392,1.704616
1217,-130.373083,-5.127031,27.283131,-1.129290,-0.388922,1.801907
1218,-74.464027,-50.049592,39.612421,-0.500130,-0.239261,1.168719
1219,-57.495995,-81.300069,38.818952,0.446540,0.330083,1.534691
1220,-67.566949,-70.435645,19.958801,0.801770,0.015747,1.769680
1221,-35.584039,-38.879988,5.127031,-0.012329,-0.039796,1.537621
1222,-33.447776,-49.622339,7.385367,-0.224735,-0.005249,1.029801
1223,-30.334936,-58.716716,2.685588,0.220218,0.156252,1.311543
1224,-34.241245,-41.687648,-2.258335,0.296757,0.002808,1.325460
1225,-24.475471,-25.268940,-2.502480,-0.049561,-0.020874,1.219135
1226,-14.831769,-26.245518,-0.244144,0.004517,0.038575,1.058122
1227,-14.282444,-23.682002,0.183108,0.131716,0.049805,1.055192
1228,-15.747311,-13.488975,-0.366217,0.097292,0.027710,1.044572
1229,-13.855192,-7.080186,1.831083,0.053956,0.069459,1.012833
1230,-17.151141,-2.136263,2.807660,0.083619,0.072267,1.001358
1231,-21.301595,4.150454,3.662165,0.063111,0.020508,1.024063
1232,-18.432898,6.286717,3.418021,-0.008789,0.012696,1.056413
1233,-18.432898,4.333562,4.821851,0.002075,0.001587,1.032609
1234,-12.878614,2.990768,3.906310,0.005493,0.033936,1.004532
1235,-14.770733,0.976577,2.563516,-0.008667,0.025025,0.972183
1236,-13.061723,-1.098650,1.770047,0.006470,0.046754,0.973281
1237,-15.808347,-0.732433,-0.793469,0.049439,-0.064942,0.889296
1238,-15.197986,-0.793469,0.671397,0.038819,0.007202,1.040299
1239,-13.488975,1.525902,1.342794,0.004395,0.019654,0.981704
1240,-15.320058,2.014191,1.892119,0.020630,0.020508,1.010269
1241,-15.136950,2.868696,2.319371,0.001465,0.007202,1.042130
1242,-11.718929,3.601129,1.892119,0.010864,0.002808,1.012711
1243,-11.291676,3.967346,1.586938,0.008423,0.003784,1.015640
1244,-8.239872,4.943923,-1.037613,-0.016358,-0.100099,0.960830
1245,-5.554284,4.638743,0.915541,-0.003906,0.059571,1.035294
1246,-7.690547,3.662165,1.403830,-0.014282,0.021118,0.981338
1247,-6.591897,2.136263,0.305180,-0.025757,0.031861,0.941909
1248,-11.230640,-1.098650,0.305180,-0.031861,0.039185,0.899794
1249,-16.845960,-4.211490,0.244144,-0.011353,0.027466,0.932998
1250,-20.202945,-7.141222,0.061036,-0.012573,0.022705,0.969619
1251,-21.118486,-9.216449,-0.122072,-0.045899,0.020386,1.048112
1252,-16.601816,-11.657893,0.305180,0.038209,0.012207,0.920790
1253,-19.592584,-12.146181,0.000000,0.017456,-0.041993,0.986709
1254,-15.442130,-11.474784,-0.427253,0.020386,-0.045289,1.052628
1255,-13.000687,-10.925460,0.122072,0.026856,-0.042359,1.055070
1256,-9.643702,-9.643702,0.732433,0.045045,-0.014405,1.045792
1257,-7.873655,-8.850233,1.220722,0.023804,-0.030396,0.986709
1258,-8.911269,-8.667124,0.671397,0.016236,0.013062,0.965103
1259,-14.099336,-9.765774,0.976577,0.024048,-0.002686,0.964614
1260,-15.991455,-9.460594,0.488289,0.030884,-0.025757,0.951186
1261,-20.080873,-8.972305,0.793469,0.045655,-0.021118,0.949722
1262,-23.498894,-8.178836,0.854505,0.028077,-0.012940,0.961440
1263,-29.053178,-8.117800,1.647974,0.048096,-0.014649,0.970352
1264,-33.997101,-7.202258,2.380407,0.027710,-0.046754,1.027115
1265,-31.006332,-5.737392,2.502480,0.061158,-0.070558,1.058854
1266,-25.452049,-2.929732,2.502480,0.043824,-0.067384,1.022599
1267,-24.597543,-1.586938,2.868696,0.035645,-0.065675,1.011246
1268,-24.170291,-0.854505,3.662165,0.029541,-0.045411,0.975723
1269,-25.268940,-1.159686,4.028382,0.018067,-0.024292,0.949477
1270,-32.776379,-1.953155,5.432212,0.027222,-0.055299,0.970352
1271,-33.142596,-2.014191,6.347753,0.021851,-0.080812,1.001846
1272,-32.776379,-1.037613,6.836042,0.051759,0.013794,1.018936
1273,-33.386740,3.723201,5.798428,0.069459,0.027710,1.006607
1274,-52.796216,1.647974,4.821851,-0.000366,-0.065919,0.985367
1275,-45.593957,1.831083,2.441444,0.018555,-0.056275,1.003189
1276,-48.157473,1.464866,-1.281758,0.032105,-0.095583,0.999771
1277,-47.119860,2.624552,-2.319371,-0.022950,-0.090333,0.969497
1278,-41.382467,3.173877,-5.065995,-0.008789,-0.076539,1.034318
1279,-36.926833,3.051804,-8.545052,-0.046754,-0.077882,1.102556
1280,-58.289464,0.000000,-23.376822,-0.045167,-0.147829,1.031144
1281,-60.242618,-2.685588,-14.587625,0.133181,-0.296635,1.109392
1282,-46.753643,2.624552,-1.342794,0.158572,-0.263310,1.125261
1283,-31.982910,6.775006,0.854505,0.089601,-0.189700,1.032975
1284,-28.686961,10.681315,-3.418021,0.016724,0.166018,0.943496
1285,-71.351186,14.160372,-17.029068,0.137453,0.168338,0.909438
1286,-125.429160,24.658579,-16.845960,-0.038331,0.383185,0.729381
1287,-179.568170,18.921187,-20.263981,0.009033,0.439216,0.480232
1288,-230.960555,-10.498207,-6.591897,-0.175906,0.641123,1.071550
1289,-385.564965,-27.038987,-26.062409,0.018311,0.795789,1.947784
1290,-552.559701,-41.931792,-11.535821,-0.493416,0.311772,1.573266
1291,-670.115206,-118.593118,24.780652,-0.515755,-0.083864,0.906264
1292,-752.147707,-166.201267,51.636530,0.014038,-0.572519,0.983169
1293,-788.342107,-177.126726,69.153887,0.196170,-0.638437,0.815076
1294,-982.986191,-213.931487,179.385061,-0.251469,-2.000031,1.999969
1295,-501.045243,-159.792477,124.696727,-0.809583,-1.198871,1.999969
1296,71.900511,-133.363851,3.418021,0.192508,0.585214,1.999969
1297,131.593805,-40.344854,-17.395285,0.444709,1.425437,1.999969
1298,-7.202258,0.610361,-6.958114,-0.024903,1.085710,1.999969
1299,-18.921187,1.953155,-8.056764,-0.116091,0.432258,1.999969
1300,132.814527,39.002060,-22.278172,-0.197757,0.287846,1.202411
1301,171.145190,36.438544,-21.179522,-0.169924,0.400153,0.397833
1302,116.212711,13.427939,-11.047532,-0.149416,0.306889,0.269902
1303,107.606622,2.685588,-6.591897,-0.099611,0.156252,0.428107
1304,136.781872,2.929732,-10.131991,-0.051759,0.209720,0.465949
1305,136.598764,-1.647974,-12.451362,-0.050294,0.267094,0.579232
1306,134.950790,-9.277485,-14.953841,-0.046754,0.248417,0.815564
1307,160.952163,-10.681315,-21.850919,-0.007691,0.266606,0.925551
1308,179.262989,-7.690547,-28.931106,0.004273,0.304326,1.027481
1309,187.808042,-2.990768,-35.339895,-0.009155,0.264408,1.257710
1310,211.245899,5.065995,-41.748684,-0.052613,0.193851,1.486839
1311,241.763943,14.770733,-45.593957,-0.126833,0.147463,1.662135
1312,269.779507,23.620966,-46.387427,-0.166140,0.016724,1.637964
1313,301.029984,36.194400,-44.434272,-0.189212,-0.101442,1.543114
1314,320.012207,45.288777,-39.002060,-0.154665,-0.194095,1.436179
1315,332.646677,48.828870,-33.325704,-0.058106,-0.262821,1.262348
1316,339.421683,46.875715,-31.128405,0.032959,-0.333623,1.023941
1317,332.890822,48.828870,-34.790570,0.073365,-0.518074,0.608652
1318,306.767376,67.505913,-42.664225,0.204227,-0.769299,0.078126
1319,266.605631,100.709545,-42.542153,0.351446,-0.564584,0.127443
1320,200.686656,100.038148,-45.838102,0.306279,-0.403326,0.637217
1321,180.788891,77.393759,-51.331350,0.277348,-0.282597,1.551049
1322,179.751278,63.904784,-55.542840,0.288457,-0.170657,1.999969
1323,199.832151,74.769207,-59.388113,0.235355,-0.379278,1.999969
1324,271.793698,98.329137,-67.994202,0.170657,-0.723644,1.999969
1325,294.071870,120.912490,-64.942397,0.068482,-0.775525,1.900542
1326,241.824979,108.583200,-47.364004,-0.091798,-0.886610,1.999969
1327,251.224537,83.009079,-29.236286,-0.107790,-0.952041,1.999969
1328,306.462196,73.609522,-18.799115,0.023194,-1.011978,1.999969
1329,329.777981,84.718090,-13.061723,0.249393,-1.043961,1.797269
1330,307.438773,97.047379,-12.207218,0.496590,-1.015640,1.225849
1331,268.070497,88.624399,-16.662852,0.575692,-0.879652,1.459495
1332,248.783093,69.520104,-26.428626,0.596323,-0.906142,1.903960
1333,255.130846,64.698253,-38.513771,0.497322,-1.060563,1.951202
1334,258.426795,73.548486,-45.410849,0.310674,-1.370504,1.539574
1335,236.758984,81.727321,-43.762875,0.129763,-1.842679,1.018570
1336,194.644083,87.953002,-34.546426,0.186404,-2.000031,0.713756
1337,140.321965,102.052338,-30.579080,0.414801,-2.000031,0.582284
1338,97.596704,133.730068,-32.043946,0.523079,-2.000031,0.247196
1339,79.285878,155.031662,-30.884260,0.411627,-2.000031,-0.550423
1340,26.001373,108.339055,-6.103609,0.138674,-2.000031,-1.003433
1341,-58.411536,3.967346,33.875029,-0.028077,-1.984527,-0.469978
1342,-98.451209,-86.488136,61.402304,0.298100,-1.676539,-2.000031
1343,-162.844282,-145.143816,62.317845,0.395392,0.345342,1.143694
1344,-132.570382,-121.034562,34.119173,-0.117311,0.344976,1.999969
1345,-67.872129,-69.031815,44.983597,-0.764538,1.143938,0.851209
1346,-172.426947,-110.963607,65.918975,-0.411749,0.343877,-0.896376
1347,-288.578622,-125.185016,89.417868,0.618662,-0.088624,-0.710826
1348,-325.505455,-103.028916,81.055924,1.527977,0.062501,1.691920
1349,-334.721904,-60.608835,56.763561,1.999969,-0.023926,1.999969
1350,-191.348135,-8.484016,-2.319371,1.693141,-0.440681,1.999969
1351,-100.587472,32.471199,-43.518730,-0.085328,0.110231,1.581689
1352,-177.126726,26.306554,-3.662165,-2.000031,-0.259770,1.999969
1353,-131.349660,-44.190127,38.330663,-2.000031,-1.086687,1.417014
1354,-37.232013,-104.859998,56.458381,0.104616,-0.028321,1.292988
1355,-58.045319,-106.141756,50.171664,1.813626,0.549935,1.884794
1356,-48.401617,-42.359045,12.268254,0.807263,0.069337,1.536645
1357,-35.278859,-26.245518,12.085145,-0.932265,-0.110597,1.248798
1358,-25.391012,-67.689021,15.564202,-0.099733,0.073732,1.040909
1359,-21.911955,-66.468299,4.699779,0.770886,0.218997,1.309102
1360,-35.217823,-29.297322,5.249104,0.106447,0.066285,1.238422
1361,-27.954528,-27.527276,5.493248,-0.255375,0.021851,1.013199
1362,-21.545739,-37.598230,2.075227,0.142458,0.169558,1.017105
1363,-35.889220,-24.292363,2.685588,0.272953,0.042359,1.124163
1364,-30.640116,-10.559243,4.577707,0.045899,0.032837,1.142229
1365,-19.714656,-9.704738,6.469825,0.098390,0.126955,1.064836
1366,-27.283131,-3.845274,2.441444,0.086305,-0.044312,0.996841
1367,-23.926146,-2.624552,6.591897,-0.018189,0.014160,0.999039
1368,-20.752270,-5.615320,5.249104,0.014160,0.060548,0.931044
1369,-27.832456,-8.667124,5.920500,0.009522,0.037598,1.009781
1370,-23.926146,-10.498207,3.051804,-0.015625,0.103517,0.999283
1371,-27.405203,-13.977264,2.685588,-0.007446,0.039185,1.008194
1372,-23.193713,-12.390326,1.220722,0.046265,-0.030152,0.998306
1373,-21.789883,-10.925460,1.403830,0.029053,0.032715,1.010269
1374,-20.874342,-9.338521,0.671397,0.056641,-0.017945,0.937881
1375,-23.620966,-6.836042,1.586938,0.061158,0.014405,1.027481
1376,-23.132677,-4.272526,1.647974,0.043580,0.011963,1.030533
1377,-22.461280,-2.563516,1.464866,0.016968,-0.007813,1.001846
1378,-20.447089,-3.173877,1.709010,0.022461,0.009277,1.023575
1379,-20.752270,-3.967346,1.342794,0.029786,-0.007080,1.001358
1380,-19.226368,-4.089418,1.220722,0.025147,-0.014282,1.016007
1381,-17.822538,-4.394598,1.037613,0.032349,-0.010620,1.008682
1382,-18.127718,-4.333562,0.793469,0.027100,0.045655,1.072526
1383,-18.799115,-4.821851,1.342794,0.029664,0.007202,0.998428
1384,-18.860151,-5.249104,-0.610361,0.039673,-0.058106,0.940688
1385,-20.141909,-6.103609,0.061036,0.038941,-0.036866,1.023575
1386,-16.968032,-5.188067,-0.854505,0.047486,-0.056275,1.002945
1387,-15.503166,-4.638743,-0.610361,0.038575,-0.025391,1.025162
1388,-16.357671,-4.638743,-0.488289,0.042603,-0.033448,1.010147
1389,-13.488975,-3.845274,-0.610361,0.054200,-0.066163,0.967178
1390,-14.038300,-4.211490,-0.244144,0.025147,-0.005371,1.023575
1391,-14.465553,-4.516670,0.000000,0.042115,-0.015747,1.016373
1392,-14.892805,-4.333562,0.061036,0.059327,-0.034058,1.012100
1393,-13.427939,-3.051804,0.122072,0.057252,-0.040284,1.000504
1394,-14.038300,-1.586938,0.488289,0.061524,-0.059571,0.984024
1395,-13.977264,-0.427253,1.464866,0.061891,-0.062257,1.001480
1396,-14.465553,0.305180,2.014191,0.056886,-0.049928,0.998672
1397,-15.442130,0.732433,2.136263,0.039673,-0.043336,1.000504
1398,-15.686275,0.305180,2.258335,0.031495,-0.021118,0.982925
1399,-17.273213,-0.549325,2.014191,0.027588,-0.035523,0.954849
1400,-20.996414,-0.732433,0.854505,0.036500,-0.036255,0.982437
1401,-22.888533,-0.793469,0.244144,0.036011,-0.032593,0.980484
1402,-23.865110,-2.807660,1.525902,0.064454,0.000000,1.021622
1403,-27.161059,-0.854505,1.403830,0.051270,-0.064576,0.991226
1404,-25.696193,0.732433,2.685588,0.056275,-0.066529,0.974990
1405,-27.771420,2.502480,4.028382,0.051759,-0.064210,1.028092
1406,-27.222095,4.028382,5.554284,0.106203,-0.025513,0.962417
1407,-35.217823,8.239872,6.042573,0.009766,-0.014527,0.897963
1408,-43.030442,5.981537,4.943923,0.025147,-0.067872,0.987808
1409,-41.138323,5.615320,2.563516,0.013306,-0.024781,1.009781
1410,-49.683375,4.821851,0.000000,0.006592,-0.072999,0.991714
1411,-48.035401,3.356985,-2.929732,-0.028809,-0.084962,0.968765
1412,-44.190127,1.037613,-6.286717,-0.019532,-0.151980,1.063005
1413,-32.166018,-2.319371,-12.756542,-0.047120,-0.198367,1.000137
1414,-25.452049,-1.709010,-21.728847,0.036378,-0.234989,0.969863
1415,-32.043946,-3.845274,-24.719615,0.149538,-0.281865,1.022965
1416,-18.371862,1.098650,-10.620279,0.218143,-0.215702,1.087297
1417,-15.381094,6.652934,3.479057,0.132326,-0.147829,1.098894
1418,-31.555657,14.587625,4.028382,-0.016114,0.060914,0.969009
1419,-48.645762,14.282444,-7.263294,0.143191,0.163577,1.000870
1420,-91.676204,28.381781,-14.953841,0.000732,0.471565,0.860365
1421,-152.834363,26.794842,-27.771420,0.020508,0.281376,0.500862
1422,-175.234607,-0.183108,-15.136950,-0.400031,0.373907,0.979629
1423,-279.056992,-19.836728,-24.170291,0.124392,0.446418,1.339254
1424,-463.508049,-31.982910,-8.484016,0.053590,0.589731,1.474144
1425,-611.947814,-101.197833,30.945296,-0.735241,0.086427,1.817655
1426,-762.706951,-181.216144,71.778439,-0.070924,-0.252934,1.334493
1427,-823.071641,-188.113222,99.427787,0.228397,-0.072999,0.899794
1428,-919.874876,-184.756237,109.987030,1.196185,-2.000031,1.999969
1429,-886.305028,-125.001907,237.552453,-0.131106,-0.419928,1.999969
1430,28.320745,-46.265354,-40.894179,0.286748,-0.555795,1.999969
1431,375.249867,38.696880,-60.608835,-0.268070,1.058366,1.999969
1432,203.189136,61.585412,-75.623713,-0.115114,0.942153,1.653346
1433,16.357671,3.234913,-14.221408,-0.331426,0.605600,0.476204
1434,-0.122072,-18.005646,-6.591897,-0.125002,0.156008,0.478035
1435,110.292210,6.469825,-21.667811,-0.121462,0.214481,0.455085
1436,124.330510,9.948882,-26.550698,0.019043,0.463264,0.342046
1437,76.539254,6.347753,-27.893492,0.060060,0.421393,0.662852
1438,97.718776,5.920500,-35.339895,0.061280,0.387213,1.070207
1439,146.425574,2.441444,-45.654994,0.080690,0.466194,1.223774
1440,166.506447,-6.591897,-51.941711,0.096071,0.489509,1.359640
1441,190.432593,-11.047532,-59.449149,0.091554,0.418585,1.551904
1442,230.716411,-6.347753,-69.398032,0.062867,0.323980,1.503075
1443,263.492790,6.591897,-78.004120,0.031861,0.210941,1.283833
1444,281.254292,24.658579,-82.948043,-0.029541,0.045533,0.968643
1445,290.043488,40.100710,-82.520790,-0.088991,-0.074830,0.668345
1446,287.113756,43.091478,-77.271687,-0.086915,-0.088258,0.586557
1447,279.606317,34.546426,-70.313573,-0.052613,-0.081178,0.721324
1448,277.042802,22.522316,-66.163119,-0.024414,-0.066041,0.965103
1449,280.582895,22.095064,-68.909743,0.003052,-0.211795,0.871962
1450,277.347982,42.542153,-73.304341,-0.031983,-0.408209,0.634531
1451,252.262150,72.327764,-69.764248,-0.067872,-0.438117,0.636973
1452,214.114595,88.197147,-62.684062,-0.046632,-0.336431,1.075212
1453,201.846342,89.906157,-56.031128,-0.079225,-0.237186,1.747585
1454,209.658961,95.826658,-48.645762,-0.102174,-0.277836,1.999969
1455,231.387808,111.573968,-38.025483,-0.164187,-0.512459,1.999969
1456,264.469368,124.025330,-26.672770,-0.140993,-0.742077,1.890410
1457,255.619135,127.260243,-12.573434,-0.021485,-0.700084,1.803250
1458,227.054246,117.738613,-0.183108,0.090822,-0.672374,1.999969
1459,244.449531,108.827344,6.042573,0.145754,-0.769421,1.999969
1460,295.048447,112.367437,6.713970,0.204105,-0.798108,1.999969
1461,292.545968,113.649195,11.169604,0.189578,-0.764782,1.919829
1462,281.010147,106.874189,17.456321,0.236088,-0.797009,1.876982
1463,289.250019,104.493782,18.188754,0.613291,-0.717296,1.755886
1464,280.582895,112.489509,12.756542,0.806775,-0.623178,1.737087
1465,261.234455,108.644236,6.225681,0.771618,-0.762585,1.785794
1466,261.356527,97.291524,2.014191,0.555795,-1.016617,1.600855
1467,252.445258,73.121233,3.418021,0.289677,-1.299947,1.227314
1468,226.199741,50.720989,5.371176,0.161868,-1.687037,0.857679
1469,182.314794,46.692607,2.563516,0.227420,-2.000031,0.704967
1470,123.292897,67.078660,-10.315099,0.550179,-2.000031,0.644541
1471,71.595331,111.390860,-41.077287,0.582895,-2.000031,0.637949
1472,54.688334,153.871977,-48.523690,0.276127,-2.000031,0.218265
1473,22.095064,132.448310,-20.386053,-0.075441,-2.000031,-0.244633
1474,-24.109255,47.241932,27.588312,-0.489265,-2.000031,-0.780529
1475,-159.426261,-113.282979,65.796902,0.557015,-1.878691,-1.457420
1476,-282.169833,-182.436866,49.561303,1.254658,-0.940322,1.359396
1477,-128.969253,-93.995575,20.630198,0.193484,0.480232,1.999969
1478,-89.173724,-89.967193,17.395285,-0.374517,1.302388,1.636011
1479,-195.254444,-94.850080,31.982910,-0.317266,0.582650,-0.237430
1480,-288.273442,-73.548486,44.129091,0.025879,-0.635508,-0.958877
1481,-334.721904,-81.849393,58.960861,0.605722,-0.144778,1.997101
1482,-331.120775,-43.701839,50.904097,1.416770,-0.310063,1.999969
1483,-181.948577,23.376822,2.502480,1.098039,-0.444343,1.999969
1484,-142.824445,47.302968,-16.601816,-0.580697,-0.034913,1.624292
1485,-228.397040,-4.272526,31.982910,-2.000031,-0.794202,1.999969
1486,-92.042420,-103.212024,53.894865,-1.113542,-0.839857,1.290303
1487,-48.279545,-150.209812,50.110628,1.638209,0.715221,1.999969
1488,-69.581140,-75.928893,22.888533,1.999969,0.135256,1.999969
1489,-39.246204,12.451362,3.356985,-0.728649,0.027222,1.162860
1490,-55.054551,-39.673457,15.625238,-0.505379,0.008545,0.955581
1491,-37.476158,-50.049592,-2.380407,0.871229,0.185672,1.503929
1492,-48.096437,-4.699779,-1.220722,-0.001831,-0.034058,1.073259
1493,-37.232013,-12.512398,0.488289,-0.242924,-0.080690,1.204486
1494,-18.066682,-16.784924,-3.723201,0.248783,0.033448,1.235737
1495,-17.395285,0.244144,-0.610361,0.016114,-0.016358,1.080461
1496,-12.878614,0.976577,1.586938,-0.082033,0.018311,1.010880
1497,-10.681315,1.281758,0.244144,0.083131,0.081422,0.999771
1498,-19.043259,6.164645,2.746624,-0.019165,0.022217,1.026017
1499,-14.648661,5.554284,2.380407,-0.002197,-0.003052,1.064591
1500,-10.681315,8.117800,2.380407,0.031250,0.021241,1.040909
1501,-10.254063,10.009918,2.990768,-0.043580,0.010742,1.016007
1502,-7.629511,8.300908,2.685588,-0.018555,0.024292,1.015274
1503,-7.080186,7.324331,2.380407,-0.054566,0.020508,0.983413
1504,-6.958114,5.188067,2.197299,-0.041016,0.026123,0.994034
1505,-7.263294,4.028382,2.014191,-0.031006,0.023316,0.996963
1506,-7.263294,3.418021,2.197299,-0.043824,0.014405,0.993545
1507,-7.324331,1.525902,2.075227,-0.043946,0.008911,1.002213
1508,-6.103609,0.671397,2.014191,-0.030884,0.007813,0.987686
1509,-4.943923,-0.732433,1.525902,-0.046387,0.029664,0.968643
1510,-7.263294,-3.112840,1.342794,-0.045411,0.030030,0.961318
1511,-8.056764,-5.371176,0.915541,-0.046632,0.023560,0.957778
1512,-9.033341,-6.286717,-2.502480,-0.061891,-0.104860,0.846815
1513,-10.742351,-10.070954,0.000000,-0.053223,0.043091,1.038224
1514,-15.564202,-11.963073,1.403830,-0.049317,0.010254,0.951064
1515,-16.052491,-14.038300,0.793469,-0.022461,0.006348,1.000504
1516,-13.855192,-10.864424,-2.014191,0.072389,-0.278080,0.675303
1517,-13.427939,-12.695506,0.427253,-0.050294,0.051514,1.096818
1518,-20.691234,-13.794156,2.990768,-0.017945,-0.016480,0.976699
1519,-17.090105,-12.512398,2.014191,0.002930,0.000488,1.040177
1520,-18.188754,-11.474784,2.136263,0.003784,0.011963,1.041642
1521,-17.029068,-9.948882,2.014191,0.004273,-0.008911,1.023941
1522,-15.686275,-8.606088,1.403830,-0.011841,-0.020874,1.019181
1523,-14.221408,-7.995727,1.342794,-0.009888,-0.027344,0.990249
1524,-13.488975,-8.361944,1.342794,-0.008545,-0.033448,1.008316
1525,-13.550011,-9.094377,1.464866,-0.010620,-0.022827,0.994644
1526,-14.099336,-9.704738,1.220722,-0.012329,-0.017456,1.010636
1527,-11.169604,-9.460594,0.671397,0.019532,-0.044800,1.000504
1528,-9.643702,-8.606088,0.732433,0.017090,-0.052491,0.981094
1529,-9.521630,-7.568475,0.671397,0.032227,-0.049439,0.997574
1530,-9.521630,-5.859464,0.793469,0.017700,-0.041016,0.997208
1531,-9.521630,-4.699779,1.037613,0.021729,-0.017578,1.002701
1532,-11.596857,-3.967346,1.220722,0.012696,-0.006226,1.004532
1533,-14.465553,-3.967346,2.014191,0.001831,0.005005,0.978653
1534,-16.113527,-3.967346,1.770047,0.010498,-0.011841,0.976699
1535,-20.019837,-3.906310,2.014191,-0.000366,-0.019409,0.996109
1536,-20.752270,-4.455634,1.831083,-0.017700,-0.004150,0.986099
1537,-24.780652,-5.493248,2.258335,0.019165,-0.034424,0.964126
1538,-27.222095,-5.737392,1.709010,0.003418,-0.046754,1.011612
1539,-27.893492,-5.554284,2.319371,0.026368,-0.053346,1.019059
1540,-27.100023,-4.333562,2.868696,0.013916,-0.068605,1.007218
1541,-27.222095,-3.295949,3.540093,0.010864,-0.067750,1.011124
1542,-24.353399,-1.525902,4.089418,0.049561,-0.039063,0.986709
1543,-34.058137,-1.281758,5.371176,-0.027955,-0.051148,0.964614
1544,-30.457008,-2.746624,4.089418,0.006470,-0.027222,0.966567
1545,-37.659266,-3.112840,3.356985,-0.005371,-0.038575,0.969375
1546,-41.138323,-4.028382,2.929732,0.055177,-0.078126,1.075456
1547,-34.790570,-1.281758,2.197299,0.031495,-0.073121,1.059953
1548,-34.546426,-0.244144,0.061036,0.002075,-0.082521,0.968154
1549,-29.297322,2.502480,3.112840,0.062135,-0.100221,0.918837
1550,-35.889220,-0.183108,-2.258335,-0.070436,-0.021729,1.053361
1551,-51.941711,-6.652934,-12.024109,-0.217777,0.237186,1.543725
1552,-48.279545,-8.422980,-23.376822,0.004395,-0.080934,1.032853
1553,-45.593957,1.281758,-13.855192,0.133547,-0.237552,1.050309
1554,-40.039673,5.554284,0.427253,0.059083,-0.193729,1.054826
1555,-37.964446,4.821851,-2.014191,0.045411,-0.117678,1.035050
1556,-42.298009,7.568475,-5.188067,0.038209,0.032471,0.969619
1557,-63.172351,10.803388,-14.038300,-0.025635,0.263554,0.812390
1558,-112.794690,8.667124,-13.366903,0.025025,0.230350,0.736706
1559,-161.501488,8.422980,-1.953155,-0.080323,0.310674,0.748913
1560,-202.517739,-3.601129,-7.995727,0.105470,0.462287,0.961074
1561,-278.873884,-6.408789,-31.006332,0.033814,0.851820,1.067399
1562,-487.312123,-18.249790,-11.291676,-0.160891,0.612436,1.152117
1563,-634.958419,-40.955215,40.588998,-0.244022,0.105226,1.276875
1564,-735.179675,-71.534295,64.332036,0.073121,-0.289921,1.582666
1565,-784.802014,-95.155261,81.910430,0.274174,-1.181781,1.874784
1566,-872.816053,-110.963607,177.431907,-1.137713,-0.084962,1.999969
1567,-188.906691,-108.583200,12.512398,-0.482185,-1.296773,1.999969
1568,320.805676,-24.719615,-20.202945,-0.323369,0.734630,1.999969
1569,209.231708,23.376822,-48.828870,-0.076905,0.683116,0.941421
1570,-11.291676,-1.281758,28.625925,-0.369390,0.747692,0.050904
1571,-115.358206,-31.616693,42.481117,-0.055665,0.306157,0.384771
1572,-12.146181,-2.075227,18.005646,-0.002075,0.231449,0.581674
1573,60.486763,8.850233,-6.042573,0.093507,0.570199,0.550912
1574,15.381094,-1.220722,-9.948882,0.106325,0.597665,0.817639
1575,34.241245,-8.117800,-20.935378,0.030030,0.435187,1.085710
1576,97.169451,-9.338521,-32.227054,-0.042359,0.522225,1.116594
1577,112.672618,-16.601816,-36.560616,-0.079469,0.519173,1.109758
1578,131.960021,-17.578393,-40.100710,-0.115236,0.393683,1.152972
1579,169.375143,-7.873655,-45.044633,-0.138430,0.337896,1.030167
1580,184.328985,2.502480,-46.631571,-0.174197,0.269047,0.925917
1581,193.911650,11.841001,-45.044633,-0.236698,0.163577,0.970230
1582,211.367971,20.141909,-40.405890,-0.292241,0.093507,1.049699
1583,225.833524,25.574121,-32.593271,-0.302007,0.038087,1.102434
1584,239.932860,29.419394,-23.498894,-0.297734,-0.015259,1.175189
1585,255.863279,33.508812,-14.526589,-0.265141,-0.061891,1.192401
1586,270.817121,36.743725,-7.629511,-0.149050,-0.087282,1.119524
1587,277.103838,39.124132,-5.493248,0.009400,-0.135866,0.988052
1588,273.319600,44.129091,-11.352712,0.251347,-0.277836,0.718151
1589,260.440986,57.923247,-22.583352,0.438849,-0.324712,0.677623
1590,234.866865,64.759289,-36.255436,0.459846,-0.316411,0.922866
1591,220.523384,62.195773,-50.537881,0.433845,-0.329717,1.144793
1592,220.340276,60.303655,-63.172351,0.320073,-0.299931,1.327901
1593,206.668193,61.768521,-69.398032,0.190921,-0.318730,1.781888
1594,200.198367,66.407263,-70.008392,0.078981,-0.428717,1.999969
1595,221.438926,70.618753,-70.618753,0.061280,-0.570443,1.999969
1596,237.552453,75.989929,-70.984970,0.065553,-0.666270,1.872099
1597,228.519112,78.065156,-68.421454,0.075563,-0.751110,1.746242
1598,214.908064,79.774166,-65.186542,0.031006,-0.850233,1.824002
1599,211.062791,81.727321,-59.510185,-0.011353,-0.864881,1.999969
1600,214.969100,81.971466,-50.965133,-0.028809,-0.867933,1.999969
1601,226.260777,80.445563,-42.359045,0.054810,-0.859876,1.959747
1602,229.983978,81.177996,-34.302281,0.139040,-0.809705,1.680446
1603,222.110323,77.698940,-29.541466,0.226688,-0.815442,1.451804
1604,213.015946,69.336996,-26.855879,0.251835,-0.806287,1.384909
1605,202.334630,59.571221,-26.550698,0.251347,-0.828992,1.448142
1606,192.690929,55.481804,-25.757229,0.097414,-0.974746,1.517845
1607,188.723583,53.589685,-19.104295,-0.150515,-1.236225,1.301656
1608,180.300603,49.317159,-3.295949,-0.312749,-1.500267,1.049699
1609,158.266575,43.335622,19.226368,-0.274174,-1.829984,0.816663
1610,130.128939,40.650034,43.640803,0.004395,-2.000031,0.578012
1611,89.723049,38.025483,57.679103,0.388312,-2.000031,0.297490
1612,60.059510,44.739452,59.266041,0.499275,-2.000031,-0.008057
1613,-10.925460,-2.075227,64.454108,0.589609,-2.000031,-1.687282
1614,-149.111162,-97.840848,81.666285,0.886122,-2.000031,-1.130632
1615,-223.086900,-106.691081,74.830243,1.123308,-1.242695,0.373663
1616,-86.427100,-62.073701,31.982910,0.479866,0.557870,1.940337
1617,-94.666972,-53.894865,18.677043,-0.068727,1.406394,1.860502
1618,-184.939345,-79.224842,31.372549,-0.169558,0.510994,0.074586
1619,-290.104524,-100.831617,39.246204,-0.232425,-0.490730,0.266361
1620,-284.794385,-76.722362,58.167391,0.174685,-0.390631,1.735378
1621,-247.928588,-70.374609,50.904097,0.961318,-0.136355,1.999969
1622,-181.948577,-33.752956,23.682002,0.956924,-0.183108,1.999969
1623,-121.583886,0.854505,4.699779,0.091920,-0.054322,1.579004
1624,-167.544060,-20.019837,30.640116,-1.020035,-0.161379,1.999969
1625,-111.390860,-70.679789,43.030442,-0.564462,-0.426032,1.849516
1626,-32.837415,-88.258183,17.761501,1.067643,0.152956,1.999969
1627,-37.415122,-34.851606,10.925460,0.737316,0.100710,1.269551
1628,-60.608835,-11.230640,9.521630,-0.464240,0.087526,1.017227
1629,-76.478218,-40.283818,16.357671,-0.214847,-0.018921,1.102678
1630,-37.170977,-39.978637,6.042573,0.367803,0.165896,1.451072
1631,-45.349813,-22.156100,2.075227,0.034913,0.010376,1.050309
1632,-39.917601,-28.564889,0.793469,-0.198734,-0.061402,1.093034
1633,-16.784924,-31.982910,-2.502480,0.182132,0.116823,1.055558
1634,-43.396658,-22.888533,-1.525902,0.059449,-0.075319,1.089738
1635,-28.686961,-17.639429,0.122072,0.040528,-0.090578,1.142473
1636,-12.939651,-12.451362,-1.037613,0.074586,0.052613,0.993057
1637,-30.395972,-10.315099,1.220722,0.018555,-0.009277,1.041398
1638,-23.498894,-9.155413,1.159686,0.029175,-0.037842,1.063859
1639,-16.845960,-7.812619,0.000000,0.033082,-0.001343,1.003067
1640,-23.071641,-8.056764,0.732433,0.025269,-0.038453,1.030900
1641,-16.723888,-7.507439,-0.244144,0.044434,-0.024781,1.050675
1642,-14.770733,-6.530861,-0.732433,0.035889,-0.013184,1.015518
1643,-17.334249,-6.286717,-0.976577,-0.011841,-0.002930,1.097307
1644,-12.695506,-4.943923,-0.854505,0.033692,-0.037110,1.023209
1645,-11.963073,-3.845274,-1.159686,0.044678,-0.026734,1.009293
1646,-15.075914,-2.380407,0.061036,0.045167,-0.040528,1.019425
1647,-12.024109,-1.220722,0.061036,0.042237,-0.034546,1.007218
1648,-12.573434,-0.793469,0.427253,0.031128,-0.031128,1.011490
1649,-13.061723,-0.549325,0.671397,0.029175,-0.045533,1.021500
1650,-11.047532,-0.488289,0.671397,0.035157,-0.051392,1.033585
1651,-8.545052,-0.061036,0.427253,0.037842,-0.050904,1.015763
1652,-7.324331,0.000000,0.427253,0.029664,-0.053834,1.012345
1653,-5.859464,-0.305180,0.122072,0.033570,-0.058106,1.005631
1654,-4.211490,-0.183108,0.122072,0.034668,-0.052979,1.018692
1655,-2.990768,0.000000,0.427253,0.030030,-0.050538,0.995621
1656,-2.258335,-0.366217,0.244144,0.023926,-0.046754,0.978408
1657,-4.882887,-0.915541,0.488289,0.024048,-0.057252,0.996841
1658,-2.990768,-1.159686,-0.915541,0.051026,-0.107301,1.030411
1659,-1.281758,-1.525902,0.488289,0.081422,-0.012451,1.034684
1660,-0.061036,-0.305180,0.732433,0.001587,-0.043458,0.967544
1661,0.854505,-1.647974,0.000000,0.065797,-0.039673,1.007950
1662,-0.122072,-0.854505,-0.183108,0.012818,-0.045289,0.995010
1663,1.464866,-1.098650,-0.427253,0.046632,-0.045533,0.995865
1664,1.281758,-0.732433,-0.549325,0.040162,-0.042237,0.993668
1665,-0.061036,-0.427253,-0.549325,0.038575,-0.055177,1.015396
1666,1.525902,0.671397,-0.244144,0.043580,-0.055543,1.011856
1667,1.403830,1.525902,0.244144,0.027710,-0.031495,1.014054
1668,0.976577,1.770047,0.671397,0.027955,-0.050172,1.012711
1669,1.831083,2.075227,0.488289,0.038087,-0.044312,1.015030
1670,3.356985,2.380407,0.366217,0.036622,-0.061891,1.011490
1671,5.432212,2.319371,-0.122072,0.043580,-0.069825,1.007584
1672,7.019150,2.380407,-0.305180,0.025269,-0.051514,1.020035
1673,9.033341,2.380407,-0.488289,0.008911,-0.023194,0.961807
1674,6.713970,1.037613,-0.915541,0.003540,0.005371,0.930434
1675,0.183108,-0.732433,-0.854505,0.035889,-0.016236,0.975967
1676,-1.098650,-0.244144,-1.281758,0.035279,-0.031128,0.994888
1677,-1.709010,0.671397,-0.793469,0.036133,-0.041505,0.997940
1678,-2.380407,1.647974,0.000000,0.041749,-0.048585,1.008682
1679,0.305180,2.807660,0.183108,0.033936,-0.034668,1.005020
1680,-0.732433,2.746624,0.122072,0.029908,-0.037720,1.016129
1681,0.976577,2.685588,-0.793469,0.012329,-0.029419,1.014908
1682,0.549325,1.709010,-1.770047,0.020020,-0.017334,1.017594
1683,2.868696,0.305180,-1.892119,0.086549,-0.024170,0.973892
1684,-0.915541,1.647974,-1.831083,0.036622,-0.021729,0.965835
1685,-2.563516,2.868696,-1.220722,0.026001,0.000366,0.965713
1686,-8.667124,3.845274,-0.610361,0.050660,-0.005371,0.986587
1687,-13.305867,6.286717,0.793469,0.035279,-0.023682,0.989029
1688,-14.160372,7.202258,2.441444,0.027100,-0.004273,0.953872
1689,-19.775692,6.164645,2.868696,-0.003418,0.011719,0.952041
1690,-23.987182,5.004959,2.075227,0.019165,0.010864,0.973648
1691,-30.090791,4.211490,2.136263,0.022217,-0.077760,1.022477
1692,-23.193713,4.760815,1.831083,0.011231,-0.050294,0.982071
1693,-23.132677,5.065995,1.464866,0.085695,0.055055,0.938369
1694,-42.847333,8.300908,3.906310,-0.015137,-0.018311,0.996841
1695,-41.077287,7.507439,2.868696,0.022705,-0.062257,1.026993
1696,-35.523003,10.559243,0.976577,0.047852,-0.073610,0.982437
1697,-37.109941,12.939651,3.234913,-0.008301,-0.043824,0.974990
1698,-29.053178,15.930419,4.211490,0.060060,-0.167605,0.866712
1699,-30.640116,14.587625,-0.549325,-0.152834,-0.042847,0.930800
1700,-33.691920,8.972305,-5.065995,-0.084352,-0.340703,0.906264
1701,-39.734493,2.624552,-17.517357,-0.056764,-0.240482,0.940688
1702,-34.912642,-7.080186,-17.578393,-0.032959,0.055299,0.891127
1703,-69.398032,-14.953841,-23.315785,0.064088,-0.016968,0.936172
1704,-89.906157,-9.338521,-8.667124,0.067262,-0.051514,0.952651
1705,-95.277333,-2.624552,-4.028382,0.033082,0.036255,0.938613
1706,-111.146716,-0.244144,-12.634470,0.113161,0.021118,0.923598
1707,-140.993362,5.615320,-8.361944,0.036011,-0.039429,0.912978
1708,-162.417029,-0.549325,-3.051804,-0.086915,0.220706,1.001602
1709,-212.100404,-14.038300,-10.315099,-0.105348,-0.264897,1.107927
1710,-226.993210,-16.723888,8.484016,0.049073,-0.067872,1.094621
1711,-251.407645,-22.461280,-7.385367,-0.171633,-0.406622,1.058000
1712,-252.811475,-52.857252,1.098650,-0.413825,-0.328740,1.117205
1713,-283.146410,-105.470359,10.070954,-0.167483,-0.169192,1.178607
1714,-267.704280,-126.344701,15.320058,0.019532,0.071412,1.295552
1715,-262.027924,-125.001907,19.775692,0.143313,0.288701,1.611109
1716,-274.235142,-99.183642,34.912642,0.057984,-0.243290,1.999969
1717,-146.669718,-50.782025,9.704738,-0.199588,-0.103883,1.999969
1718,109.376669,25.085832,-50.659953,-0.098756,0.387335,1.999969
1719,98.695354,40.161746,-54.261082,-0.349248,0.359258,1.013809
1720,38.025483,20.263981,-27.344167,-0.411994,0.087404,0.806775
1721,81.116960,17.029068,-19.348440,-0.380499,-0.053223,0.660899
1722,108.461128,15.320058,-12.024109,-0.285161,0.091554,0.601205
1723,87.403677,9.704738,-3.418021,-0.177981,0.038941,0.811292
1724,108.766308,15.747311,-3.234913,-0.128298,0.002808,0.985977
1725,131.715877,23.682002,-5.432212,-0.084474,0.059571,1.071061
1726,139.467460,27.588312,-6.713970,-0.011475,0.029297,1.162127
1727,158.327611,34.058137,-11.841001,0.092287,-0.029541,1.170672
1728,174.990463,41.260395,-18.921187,0.142336,-0.059449,1.195697
1729,183.901732,45.288777,-25.513085,0.129885,-0.177981,1.183246
1730,200.015259,49.683375,-30.395972,0.080568,-0.279179,1.085588
1731,208.072023,51.697566,-31.128405,0.022583,-0.373907,0.866590
1732,204.837110,49.622339,-27.161059,-0.052247,-0.446052,0.682994
1733,194.827192,43.518730,-18.982223,-0.164065,-0.493416,0.633555
1734,183.413443,34.607462,-7.141222,-0.253300,-0.474617,0.762341
1735,174.196994,27.527276,6.347753,-0.270146,-0.456916,1.015030
1736,174.074922,30.151827,18.005646,-0.135988,-0.415412,1.194232
1737,178.225376,45.471885,24.597543,-0.034058,-0.423346,1.159442
1738,173.403525,61.280232,31.189441,-0.027832,-0.491829,1.039811
1739,165.835050,69.581140,41.199359,-0.078248,-0.611582,0.964614
1740,157.778286,69.703212,55.603876,-0.096193,-0.697398,0.890394
1741,147.890440,64.881361,71.717403,-0.038087,-0.717540,0.788342
1742,134.645609,61.524376,84.840162,0.052247,-0.700938,0.695445
1743,114.015412,59.082933,94.544900,0.122927,-0.658824,0.684581
1744,91.859312,50.782025,98.329137,0.188968,-0.677379,0.709117
1745,73.853666,38.208591,95.582513,0.227420,-0.693248,0.725597
1746,57.618067,27.222095,87.953002,0.215702,-0.752087,0.463996
1747,32.532235,19.348440,75.501640,0.153323,-0.793103,0.209232
1748,-47.119860,-81.177996,92.164492,0.095094,-2.000031,-1.766751
1749,-379.583429,-217.532616,26.916915,1.999969,-2.000031,1.999969
1750,-182.986191,-68.299382,58.960861,1.977203,-1.882963,1.999969
1751,142.885481,54.016938,-15.808347,-0.155276,-0.541390,1.999969
1752,282.658122,55.542840,-55.115587,-0.149660,0.488655,-1.316793
1753,129.579614,40.161746,-25.024796,0.155154,0.413458,-0.185306
1754,-113.832303,-16.052491,5.065995,0.027955,0.358892,-0.598886
1755,-229.922942,-34.851606,19.836728,-0.217899,-0.105959,1.540551
1756,-73.975738,-11.841001,10.070954,0.051637,-0.462531,1.705592
1757,45.044633,4.577707,-3.356985,0.031128,0.077150,1.086564
1758,-32.104982,-2.624552,8.850233,0.134646,0.077028,0.909316
1759,-19.714656,4.638743,5.798428,-0.144045,0.067628,0.975479
1760,-15.381094,-8.056764,-0.549325,-0.174319,0.139040,0.742687
1761,-43.823911,-20.447089,-1.525902,0.093629,-0.014160,1.052384
1762,-26.733806,-14.099336,-2.868696,0.015869,-0.070558,1.115984
1763,-19.409476,-11.596857,-1.892119,0.059205,-0.031128,1.058488
1764,-18.432898,-7.812619,-0.976577,0.039429,-0.008789,1.029435
1765,-16.479744,-6.103609,-0.854505,-0.009400,0.014160,0.965591
1766,-23.315785,-7.080186,-0.122072,0.015503,-0.018433,1.023819
1767,-20.569162,-5.981537,0.244144,0.034668,-0.066651,1.094011
1768,-11.779965,-3.356985,0.671397,0.040284,-0.053223,1.069230
1769,-7.202258,-1.464866,1.037613,0.022583,-0.024048,1.011368
1770,-7.751583,-1.770047,1.037613,0.013916,-0.013062,0.962783
1771,-10.009918,-2.868696,0.793469,-0.011963,-0.015137,1.018692
1772,-8.117800,-3.356985,0.305180,-0.002319,-0.033570,0.996963
1773,-5.859464,-4.455634,-0.305180,0.000855,-0.010010,0.988907
1774,-7.812619,-5.432212,-0.427253,0.011231,-0.021485,0.990249
1775,-8.117800,-5.676356,-0.427253,0.019898,-0.034546,1.020890
1776,-5.798428,-4.943923,-0.427253,0.033448,-0.036255,1.024674
1777,-5.004959,-3.662165,-0.305180,0.046387,-0.040162,1.033829
1778,-2.929732,-2.014191,0.000000,0.040772,-0.043458,1.042741
1779,-1.098650,-0.427253,0.061036,0.033936,-0.042359,1.037613
1780,1.037613,0.854505,0.000000,0.029053,-0.044556,1.037980
1781,3.906310,1.525902,-0.244144,0.026246,-0.037476,1.012711
1782,4.821851,1.403830,-0.427253,0.007813,-0.020020,0.977310
1783,3.356985,0.183108,-0.488289,0.011597,-0.013550,0.970962
1784,2.014191,-0.366217,-0.610361,0.010254,-0.013916,0.992447
1785,0.427253,-0.915541,-0.549325,0.018433,-0.031495,1.008560
1786,1.953155,-0.183108,-0.549325,0.035035,-0.023194,1.009415
1787,0.732433,0.854505,-0.183108,0.030396,-0.023194,1.020035
1788,2.136263,1.892119,-0.122072,0.028809,-0.020752,1.007462
1789,1.037613,2.990768,0.244144,0.026368,-0.032471,1.023941
1790,2.258335,4.333562,0.427253,0.026734,-0.042237,1.030533
1791,4.394598,5.249104,0.671397,0.023438,-0.029175,1.020401
1792,5.065995,5.676356,0.549325,0.009522,-0.024903,1.000259
1793,5.798428,5.065995,0.488289,0.009033,-0.012940,0.979141
1794,3.723201,3.723201,0.305180,-0.007324,-0.007935,0.969986
1795,3.418021,1.831083,0.000000,-0.002686,0.007813,0.962295
1796,-1.037613,-0.183108,-0.427253,-0.004150,-0.012451,0.980362
1797,0.610361,-1.159686,-0.976577,0.014527,-0.021241,0.997208
1798,0.061036,-1.281758,-1.037613,0.017456,-0.016114,0.995010
1799,0.061036,-1.220722,-0.854505,0.009644,-0.020020,1.009659
1800,1.037613,-1.159686,-1.220722,0.015625,-0.015869,0.999771
1801,-0.061036,-1.037613,-1.159686,0.027466,-0.035035,1.025772
1802,3.356985,0.000000,-1.281758,0.031983,-0.027100,1.019791
1803,3.723201,1.525902,-0.854505,0.030396,-0.016480,1.004044
1804,2.929732,2.929732,-0.305180,0.024903,-0.013184,0.998917
1805,2.075227,4.577707,0.427253,0.026856,-0.024781,1.011246
1806,3.479057,6.347753,1.037613,0.018067,-0.014893,1.008194
1807,2.807660,7.141222,1.403830,0.011963,-0.004150,0.997208
1808,1.892119,6.591897,1.220722,-0.011475,-0.009888,0.962417
1809,1.159686,4.150454,0.549325,-0.021607,-0.000855,0.963882
1810,-0.122072,0.488289,-0.732433,-0.045167,-0.002686,0.959243
1811,0.244144,-3.234913,-2.075227,-0.006836,0.003052,0.977310
1812,-3.479057,-4.272526,-1.953155,0.052491,-0.042847,1.067277
1813,3.479057,-0.671397,-1.281758,0.008545,-0.045045,1.027237
1814,3.051804,1.342794,0.671397,0.046632,-0.033692,1.045792
1815,5.432212,3.051804,1.464866,-0.001709,-0.048341,1.015763
1816,11.169604,2.685588,0.671397,0.004639,0.044312,0.920790
1817,-0.488289,0.000000,0.366217,-0.022827,0.024537,0.940566
1818,-0.793469,-1.953155,-0.915541,-0.016968,0.027100,0.965347
1819,-6.347753,-4.516670,-1.464866,-0.020386,-0.005249,0.980240
1820,-4.455634,-5.859464,-2.014191,0.001709,-0.021973,1.016739
1821,-3.173877,-6.286717,-2.563516,0.020508,-0.025757,1.024186
1822,-0.976577,-3.906310,-1.831083,0.072389,-0.064210,1.084733
1823,5.371176,1.770047,0.427253,0.025635,-0.044068,1.024796
1824,6.469825,3.356985,2.014191,0.026856,0.000610,0.987930
1825,2.868696,3.540093,1.770047,0.008301,-0.015259,1.011856
1826,6.103609,2.258335,0.305180,0.015381,-0.030152,1.063005
1827,12.085145,2.380407,-0.854505,0.020020,-0.015015,1.027237
1828,11.718929,2.807660,-0.976577,0.005737,-0.002564,1.023453
1829,12.634470,3.479057,-1.220722,0.021851,0.009400,0.991348
1830,10.498207,4.699779,-0.915541,-0.000244,0.044556,0.949844
1831,4.333562,3.356985,-1.159686,-0.018067,0.036622,0.929946
1832,-2.075227,1.281758,-0.854505,0.016480,-0.035035,1.040787
1833,6.713970,3.540093,-0.671397,0.011109,-0.019776,1.016617
1834,5.920500,4.211490,0.427253,-0.001099,0.020752,0.946304
1835,5.615320,2.014191,-0.671397,-0.102541,0.107179,0.798474
1836,-15.442130,-7.873655,-0.915541,-0.042603,0.046143,0.948989
1837,-13.550011,-9.216449,-2.258335,0.011109,-0.032959,1.025772
1838,-8.972305,-8.911269,-2.441444,0.008667,-0.032837,1.048112
1839,-5.493248,-7.019150,-1.831083,0.046387,-0.049928,1.093156
1840,1.709010,-2.807660,-1.098650,0.015991,0.013916,0.995865
1841,-3.540093,-2.868696,-0.488289,0.002930,0.012940,0.974868
1842,-5.920500,-3.906310,-0.610361,-0.006470,-0.009644,0.999283
1843,-2.807660,-4.028382,-1.159686,0.032105,-0.008667,1.011002
1844,-3.662165,-3.662165,-0.793469,-0.006836,-0.013062,0.974990
1845,-2.807660,-5.127031,-1.281758,0.006958,-0.033204,0.996963
1846,-3.784237,-7.080186,-1.281758,0.012818,-0.024903,1.065690
1847,4.821851,-6.103609,-2.075227,0.020874,-0.032959,1.049454
1848,6.103609,-4.882887,-1.525902,0.035279,-0.015015,1.044572
1849,7.995727,-2.624552,-0.610361,0.035645,-0.002197,0.998428
1850,7.446403,-0.488289,-0.183108,0.034302,0.043824,0.970962
1851,0.366217,0.244144,0.366217,0.022339,0.021363,0.967910
1852,0.000000,0.000000,-0.305180,0.004883,0.009888,0.986221
1853,-0.854505,-0.854505,-0.488289,0.023926,-0.012329,1.031388
1854,2.868696,0.366217,-0.488289,0.028199,-0.014771,1.011978
1855,2.807660,1.403830,0.122072,0.023804,-0.012451,1.019669
1856,5.920500,2.319371,0.366217,0.008301,-0.009644,1.009171
1857,6.469825,1.464866,0.061036,0.019898,0.005859,1.001480
1858,6.958114,1.770047,0.000000,0.018677,0.002930,0.993545
1859,6.286717,2.014191,0.000000,0.006714,0.031983,0.938857
1860,2.258335,2.014191,0.000000,0.014282,0.050172,0.932876
1861,-5.432212,2.258335,0.488289,0.014405,0.020142,0.979385
1862,-5.004959,1.709010,0.183108,-0.006348,-0.003662,1.007828
1863,-2.990768,1.159686,-0.244144,0.040650,0.002197,1.015396
1864,-3.051804,2.014191,-0.305180,0.017334,-0.005005,1.009781
1865,-2.014191,2.258335,-0.244144,0.008179,-0.010254,1.020035
1866,-0.793469,2.624552,-0.122072,0.015625,-0.012085,1.023453
1867,1.220722,3.234913,0.061036,0.005249,0.000732,1.002823
1868,1.647974,2.441444,0.000000,-0.007446,0.001709,0.988052
1869,0.671397,1.464866,0.427253,0.000000,0.002441,0.982437
1870,0.549325,0.793469,0.305180,0.000244,0.010986,0.986465
1871,-1.159686,-0.183108,0.183108,0.006348,0.002930,0.991226
1872,-0.732433,-0.244144,0.000000,0.001953,0.010376,0.988052
1873,-2.746624,-1.098650,-0.122072,0.008057,-0.002564,1.001236
1874,-0.122072,-0.976577,-0.366217,0.008423,-0.001953,1.004044
1875,-0.610361,-0.976577,-0.305180,0.012573,-0.005249,1.011246
1876,0.671397,-0.488289,-0.244144,0.011353,-0.004883,1.012833
1877,1.403830,-0.122072,-0.244144,0.012940,-0.000732,1.006973
1878,1.647974,0.061036,0.000000,0.014160,-0.004150,0.998062
1879,2.319371,0.000000,-0.122072,0.004273,0.005615,0.992935
1880,2.075227,-0.732433,-0.244144,0.013672,0.003662,0.998428
1881,2.380407,-0.610361,-0.427253,0.008057,0.003418,0.974258
1882,0.915541,-0.610361,-0.488289,0.005493,0.023804,0.978653
1883,-1.892119,-0.488289,-0.122072,0.014038,0.009277,0.989151
1884,-1.953155,-0.366217,-0.244144,0.010010,0.011963,0.972183
1885,-0.061036,-0.854505,-0.122072,-0.004883,-0.018799,1.019181
1886,4.028382,-1.098650,-0.732433,0.012329,0.015503,0.994278
1887,-0.671397,-2.197299,-0.488289,0.005859,-0.003418,1.010025
1888,1.464866,-2.136263,-0.671397,0.013916,0.006104,1.016007
1889,3.173877,-1.770047,-1.770047,0.012940,-0.000855,0.984878
1890,-0.183108,-1.831083,-0.183108,0.053590,0.029786,1.007095
1891,1.159686,-0.183108,-0.427253,-0.033936,-0.002564,1.012589
1892,0.915541,-2.136263,0.305180,0.020020,0.017334,0.969986
1893,1.281758,-1.525902,0.000000,0.004028,0.016602,0.964492
1894,-1.342794,-1.953155,0.061036,0.023438,0.023926,0.982681
1895,-3.967346,-1.647974,0.061036,0.038331,0.018189,1.000137
