Packet number,Gyroscope X (deg/s),Gyroscope Y (deg/s),Gyroscope Z (deg/s),Accelerometer X (g),Accelerometer Y (g),Accelerometer Z (g)
0,-0.061036,-0.244144,-0.122072,-0.010864,0.005249,0.9994049999999999
2,-0.122072,-0.366217,0.0,-0.006226,0.0051270000000000005,1.005509
4,-0.122072,-0.30518,0.0,-0.003662,0.002564,0.995865
6,-0.366217,-0.366217,-0.183108,-0.006958,0.0028079999999999997,0.997086
8,-0.427253,-0.183108,-0.122072,-0.004883,0.001465,1.003922
10,-0.30518,-0.061036,-0.122072,-0.0035399999999999997,0.003418,0.9991610000000001
12,-0.122072,0.0,-0.122072,-0.0028079999999999997,0.005005,1.0008700000000001
14,-0.366217,-0.244144,0.0,-0.003662,0.001953,1.000626
16,0.30518,-0.244144,0.061036,-0.01001,0.011353,0.984146
18,-0.976577,-0.671397,-0.183108,-0.010376,0.014893,0.997086
20,-0.854505,-0.30518,-0.183108,-0.00415,0.0070799999999999995,0.991348
22,-0.48828900000000003,0.244144,0.061036,-0.000488,0.0043950000000000005,1.006729
24,-1.09865,-0.061036,0.0,-0.00647,-0.006714,1.006119
26,-0.732433,-0.244144,0.0,-0.008789,0.006714,1.0046540000000002
28,-0.427253,-0.366217,-0.122072,-0.002564,0.006226,0.997208
30,-0.061036,-0.549325,-0.122072,-0.004639,0.0037840000000000005,1.002213
32,-0.793469,-0.976577,0.0,-0.003418,0.009276999999999999,0.9948879999999999
34,-2.014191,-1.037613,0.0,-0.003662,0.003418,0.995132
36,-1.281758,-0.671397,-0.122072,-0.000122,0.001465,1.0037989999999999
38,-0.854505,-0.6103609999999999,0.0,0.001465,0.005493,1.013931
40,-0.183108,-0.48828900000000003,0.0,-0.005737,-0.000488,1.0031889999999999
42,-0.549325,-0.6103609999999999,0.0,-0.010131999999999999,0.001099,0.999283
44,-0.366217,-0.671397,-0.122072,-0.009644,0.002075,1.001724
46,-0.427253,-0.793469,-0.122072,-0.004639,0.010620000000000001,0.995132
48,-0.732433,-0.854505,0.0,-0.0074459999999999995,0.006714,1.001602
50,-0.671397,-0.671397,0.0,-0.001221,0.005982,0.999283
52,-0.183108,-0.427253,-0.122072,-0.005615,0.003052,1.002823
54,-0.061036,-0.30518,0.0,-0.008911,0.005493,0.993668
56,-0.061036,-0.427253,0.0,-0.005737,0.006104,0.9959870000000001
58,-0.122072,-0.732433,0.061036,-0.005615,0.004517,0.9969629999999999
60,-0.366217,-0.732433,-0.122072,-0.006714,0.007568000000000001,0.993301
62,-0.48828900000000003,-0.671397,-0.122072,-0.000244,0.001953,0.9922030000000001
64,-0.9155409999999999,-0.48828900000000003,0.0,-0.008789,-0.000122,0.9994049999999999
66,-1.09865,-0.6103609999999999,0.0,-0.011719,0.0028079999999999997,0.998917
68,-0.732433,-0.793469,0.061036,-0.004273,0.000488,1.0011139999999998
70,-0.549325,-0.976577,0.0,-0.008423,0.002075,0.9946440000000001
72,-0.244144,-0.854505,0.061036,-0.005005,0.004761,0.997208
74,-0.183108,-0.6103609999999999,0.183108,-0.008057,-0.000122,1.000992
76,-0.366217,-0.48828900000000003,0.183108,-0.0037840000000000005,0.005371,1.009781
78,0.671397,0.0,0.122072,-0.0031739999999999997,-0.008301000000000001,1.009293
80,1.586938,0.183108,0.244144,-0.001221,0.000732,1.007218
82,3.479057,0.244144,0.244144,-0.000977,-0.001709,1.005142
84,7.507439,1.40383,0.0,-0.015259,0.019165,0.940688
86,4.8218510000000006,0.0,0.122072,-0.008545,0.021851,1.0121
88,3.967346,-0.48828900000000003,0.244144,-0.0063479999999999995,0.02356,0.992569
90,3.356985,-0.793469,0.244144,-0.007935,0.011475,0.9863430000000001
92,2.80766,-0.732433,0.0,-0.0058590000000000005,0.011475,0.9980620000000001
94,2.380407,-1.2207219999999999,0.061036,-0.000732,0.029297000000000004,1.00148
96,2.685588,-0.9155409999999999,0.061036,0.005615,0.019043,0.9969629999999999
98,1.953155,-0.976577,-0.122072,-0.005982,0.015259,0.997452
100,2.136263,-0.6103609999999999,0.0,-0.015991,0.031373000000000005,1.003067
102,2.868696,0.0,-0.183108,0.0031739999999999997,0.002441,1.008316
104,3.173877,-0.30518,0.549325,-0.0031739999999999997,0.025269,0.9948879999999999
106,2.014191,-0.854505,0.244144,-0.012573,0.028931000000000002,0.981949
108,1.159686,-1.281758,0.061036,0.014282,0.020263999999999997,1.0116120000000002
110,1.159686,-0.793469,-0.122072,-0.0028079999999999997,0.004639,0.997818
112,0.854505,-1.09865,0.244144,-0.005249,0.013306,0.996841
114,-0.549325,-2.075227,0.48828900000000003,-0.008911,0.01355,0.977066
116,0.671397,-2.319371,0.366217,-0.0051270000000000005,0.028199000000000002,0.984878
118,0.0,-3.6011290000000002,0.30518,-0.0043950000000000005,0.027222000000000003,0.995499
120,1.159686,-2.929732,0.854505,-0.013793999999999999,0.014282,1.011734
122,1.7700470000000001,-3.845274,0.9155409999999999,-0.007812999999999999,0.027955,0.9903719999999999
124,3.051804,-5.0049589999999995,1.09865,-0.014038,0.040894,0.969619
126,0.854505,-4.21149,0.854505,0.015015,0.015625,1.015152
128,1.464866,-1.281758,0.549325,0.029907999999999997,0.037232,0.9986719999999999
130,1.8310830000000002,1.70901,0.549325,0.033814,0.049928,1.016129
132,3.6011290000000002,4.699779,0.427253,-0.005493,0.015991,0.944472
134,-0.48828900000000003,2.990768,0.793469,-0.025879000000000003,0.033204000000000004,1.014786
136,4.028382,0.793469,0.30518,-0.034668,0.034302,0.9922030000000001
138,2.746624,-3.845274,-0.244144,-0.020752,0.057252,0.9625389999999999
140,0.366217,-6.103609,-0.976577,0.0023190000000000003,0.040772,0.98085
142,-1.647974,-4.455634,-0.732433,0.02356,0.046998000000000005,1.000626
144,-2.197299,-1.2207219999999999,-0.244144,0.014038,0.061402,0.95436
146,-9.704738,-1.159686,-0.244144,0.016968,0.035157,0.988907
148,-7.141222,0.48828900000000003,0.061036,0.019532,0.006714,1.030045
150,-4.333562000000001,1.281758,0.0,0.002686,0.024413999999999998,1.0150299999999999
152,-1.40383,1.281758,-0.244144,-0.004639,0.034913,0.9793850000000001
154,-5.249104,0.48828900000000003,-0.366217,-0.00415,0.044556,0.9637600000000001
156,-11.596857,0.061036,-0.549325,0.005737,0.020996,1.001724
158,-10.009917999999999,1.525902,-0.366217,0.003906,0.007324,1.0283360000000001
160,-5.432212,2.075227,-0.183108,-0.004639,0.014771000000000001,0.9979399999999999
162,-4.089418,0.183108,-0.366217,-0.014893,0.021851,0.9754790000000001
164,-5.981537,-2.380407,0.061036,-0.011109,0.042725,0.960708
166,-12.512398,-4.028382,0.244144,0.005982,0.014405000000000001,0.9959870000000001
168,-12.207218,-3.479057,0.366217,0.012695999999999999,0.001465,1.006119
170,-8.545052,-1.525902,0.732433,0.011597,0.0015869999999999999,1.0037989999999999
172,-10.070953999999999,-2.50248,1.09865,-0.012085,0.006714,0.968521
174,-10.559242999999999,-4.333562000000001,1.2207219999999999,-0.008911,0.0031739999999999997,0.968887
176,-14.831769,-6.225681,1.586938,-0.000244,-0.008789,0.980728
178,-15.991454999999998,-6.103609,2.075227,0.018433,-0.0070799999999999995,1.0047760000000001
180,-13.000687,-3.6011290000000002,2.319371,0.028076999999999998,-0.019043,1.0268709999999999
182,-11.596857,-2.136263,2.380407,-0.000732,-0.030883999999999998,0.9986719999999999
184,-11.535821,-4.150454,2.50248,-0.000366,-0.015625,0.975601
186,-14.770732999999998,-5.9205,2.380407,0.000244,-0.017578,0.9793850000000001
188,-18.616007,-5.981537,2.4414439999999997,0.023072,-0.029907999999999997,1.0205229999999998
190,-16.174563,-3.6011290000000002,2.563516,0.019409,-0.022095,1.036881
192,-18.860151000000002,-3.173877,0.9155409999999999,0.010254000000000001,0.000366,0.964614
194,-27.710384,-2.50248,-1.342794,0.018067,0.04065,0.968032
196,-43.335622,-4.638743,-1.2207219999999999,0.065309,-0.027466,0.99855
198,-40.772107,-1.464866,-3.173877,-0.00415,-0.062989,1.021012
200,-38.208591,4.5166699999999995,-10.559242999999999,-0.046143,-0.071168,1.0040440000000002
202,-56.275273,9.643702000000001,-33.264668,0.138796,-0.17541800000000002,0.886244
204,-38.69688,11.657893,-2.685588,0.041627,-0.1084,1.050553
206,-65.980011,12.146181,-2.868696,0.076661,0.008789,1.002213
208,-94.056611,12.573433999999999,8.850233,-0.08142200000000001,0.165286,0.8486459999999999
210,-209.170672,6.2867169999999994,30.334936,0.004639,0.12695499999999998,1.084367
212,-279.118029,20.691233999999998,-1.2207219999999999,0.023316,0.185061,0.975601
214,-467.231251,54.20004599999999,32.898451,0.22974,-0.11767799999999999,1.9999689999999999
216,-526.6804,149.111162,4.150454,0.42358999999999997,0.102052,1.44387
218,-459.357595,133.119707,46.936751,-1.353414,0.143679,1.9999689999999999
220,151.430533,23.315785,-57.984283,-0.558968,0.803723,1.605127
222,-34.546426000000004,-60.425727,24.048219,-0.006958,0.371954,0.941909
224,67.20073199999999,-28.381781,-15.686275,0.292241,0.563729,0.554208
226,61.524376000000004,-4.8218510000000006,-42.420081,0.150393,0.375738,0.866712
228,84.901198,-17.029068,-50.049592,-0.08984500000000001,0.333623,1.026993
230,130.55619099999998,-30.701152,-42.420081,-0.19104300000000002,0.313603,1.176654
232,168.764782,-27.649348,-32.654307,-0.205692,0.23987199999999997,1.350362
234,205.81368700000002,-12.207218,-23.926146,-0.186526,0.126101,1.24538
236,225.711452,-2.2583349999999998,-16.052491,-0.077882,0.029053,0.9398340000000001
238,227.54253500000002,-8.300908,-15.564201999999998,0.11303900000000001,0.049439,1.032975
240,229.190509,-4.272526,-32.043946000000005,0.287968,-0.046754000000000004,1.062516
242,210.391394,12.939651,-55.176623,0.262577,-0.15613,1.1143969999999999
244,201.785306,11.047532,-69.153887,0.122927,-0.149172,1.6053709999999999
246,205.264363,30.151827,-75.31853199999999,-0.003418,-0.260258,1.9104299999999999
248,215.091173,39.673457,-71.839475,-0.093141,-0.509041,1.743191
250,207.766842,39.490349,-60.364691,-0.134768,-0.644663,1.9039599999999999
252,221.499962,38.635843,-48.279545,-0.031006,-0.660166,1.881376
254,221.316854,39.368276,-45.288777,0.193973,-0.6687109999999999,1.55227
256,208.80445600000002,37.781338,-50.415808,0.219852,-0.748913,1.577417
258,207.766842,26.123445,-47.302968,0.088502,-0.9538719999999999,1.2599069999999999
260,175.783932,17.639429,-43.945983,0.203494,-1.210956,0.8034789999999999
262,120.24109299999999,30.273899,-64.820325,0.392462,-1.542016,0.49866499999999997
264,58.289464,39.246204,-78.797589,0.21643400000000002,-1.7394060000000002,0.13806400000000002
266,-10.193027,-8.606088,-40.40589,-0.48108599999999996,-2.0000310000000003,-1.685328
268,-156.496529,-119.447623,42.481117,-0.163821,-1.723293,0.476814
270,-113.588159,-47.791257,55.725947999999995,-0.102663,-0.042481,1.514427
272,-156.130312,-62.50095400000001,55.542840000000005,0.505257,0.573861,0.790906
274,-224.795911,-59.021896999999996,41.016251000000004,0.549081,-0.023316,1.507225
276,-158.205539,-24.048219,14.892805,0.517586,-0.12573399999999998,1.9999689999999999
278,-80.018311,7.9957270000000005,-0.793469,-0.285771,-0.034424,1.115373
280,-114.930953,-45.777066,33.203632,-0.49732200000000004,-0.112795,1.471214
282,-56.336309,-66.77348,17.517357,0.9399559999999999,0.264164,1.9999689999999999
284,-34.241245,-9.704738,1.464866,-0.506722,0.142702,1.01149
286,-30.457008000000002,-31.616692999999998,1.586938,0.30945300000000003,0.044556,1.325826
288,-40.222782,-18.493935,2.319371,-0.038941,-0.051759000000000006,1.122942
290,-21.728847000000002,-16.906996,-0.427253,0.015625,0.05505499999999999,1.025406
292,-10.620279,-13.122759,-0.793469,0.073487,0.024781,1.024063
294,-17.456321,-3.90631,1.159686,0.029907999999999997,0.023681999999999998,1.035416
296,-13.061722999999999,0.366217,1.525902,0.035157,0.007691,1.0245520000000001
298,-9.948882000000001,-0.6103609999999999,1.647974,0.0094,0.008545,1.029923
300,-4.882887,-1.159686,2.014191,-0.005493,0.005982,0.999771
302,-8.1178,-2.197299,1.8921189999999999,0.018189,-0.008789,1.015152
304,-7.934691,-0.549325,2.80766,0.023926,0.062501,1.010513
306,-9.643702000000001,-1.40383,2.563516,0.016114,0.005737,1.000504
308,-5.9205,-2.624552,1.70901,0.017578,-0.025635,0.965591
310,-8.1178,-4.760815,1.342794,-0.007201999999999999,0.027344,0.949844
312,-15.991454999999998,-7.507439,1.159686,0.015381,0.009276999999999999,0.9979399999999999
314,-14.648660999999999,-6.225681,0.793469,0.008179,-0.012573,0.9969629999999999
316,-13.244831,-5.737392,0.671397,0.018311,-0.0051270000000000005,0.9942780000000001
318,-14.160372,-5.859464,0.549325,0.029664,-0.014159999999999999,0.99379
320,-14.343481,-5.0049589999999995,0.427253,0.024781,-0.007201999999999999,0.9865870000000001
322,-20.752270000000003,-4.21149,1.037613,0.008789,-0.032837,0.9823149999999999
324,-21.484703,-6.103609,0.793469,0.026978,-0.021729,0.9820709999999999
326,-23.926146,-7.324331,0.427253,0.034791,-0.035644999999999996,0.9984280000000001
328,-23.682002,-8.972305,0.854505,0.028687,-0.017212,0.981582
330,-27.771420000000003,-3.6621650000000003,0.48828900000000003,0.043702,-0.046754000000000004,0.9790190000000001
332,-35.645075,-0.671397,3.90631,0.062989,-0.064698,1.017838
334,-45.166705,6.652933999999999,8.728161,0.025635,-0.033448,1.019791
336,-43.274586,5.61532,6.164645,0.023194,-0.03772,1.014664
338,-48.584726,2.624552,0.976577,-0.011840999999999999,-0.087282,0.973037
340,-41.077287,2.929732,-15.014878,-0.062379,-0.017945,0.989151
342,-55.725947999999995,9.765774,-38.147555,0.11914200000000001,-0.34229,1.022477
344,-12.573433999999999,4.394598,-3.051804,0.08191,-0.106325,1.0741129999999999
346,-56.94667,12.451362,-8.545052,0.018311,0.175784,0.940566
348,-151.125353,22.46128,-5.9205,0.03418,0.073487,0.6419779999999999
350,-195.68169699999999,-14.282444,-28.747996999999998,-0.054688,0.8574350000000001,0.9510639999999999
352,-642.9541469999999,-37.048905,25.696193,-0.321904,0.359747,1.801541
354,-782.238499,-46.875715,16.113526999999998,0.278202,-0.330205,1.083757
356,-515.6328679999999,3.845274,43.457694000000004,-1.669459,-0.822644,1.9999689999999999
358,287.05272,19.34844,-58.838788,-1.0011139999999998,0.997574,1.9402150000000002
360,-21.179522,-87.769894,49.378195,-0.349248,0.424933,0.286625
362,102.113375,-69.58114,17.883574,-0.066041,0.542733,0.6141449999999999
364,62.623026,-41.504540000000006,4.028382,0.024781,0.524788,0.9781639999999999
366,125.42916000000001,-19.958801,-21.728847000000002,-0.032715,0.588388,1.056535
368,167.055772,-8.42298,-32.837415,-0.170779,0.406134,1.168475
370,203.73846,2.4414439999999997,-29.968719,-0.25085799999999997,0.249271,1.1572440000000002
372,237.00312799999998,14.892805,-21.545739,-0.255497,0.112917,1.138567
374,257.450217,26.67277,-9.765774,-0.21155100000000002,0.026246,1.142107
376,270.634012,25.024796,-4.150454,-0.08069,-0.038087,1.135882
378,255.191882,56.641489,-12.024109,0.013672,-0.321538,0.9632719999999999
380,221.316854,96.25391,-14.709697,0.028321,-0.31006300000000003,1.61001
382,237.18623599999998,86.30502800000001,-10.131991000000001,0.00415,-0.41089499999999995,1.7861599999999997
384,232.486458,68.665599,-6.897078,0.174197,-0.479988,1.8170439999999999
386,226.016632,66.77348,-16.479744,0.10388299999999999,-0.645274,1.9999689999999999
388,240.66529300000002,78.736553,-22.095064,-0.050538,-0.8405889999999999,1.788602
390,231.32677200000003,62.56199,-7.9957270000000005,-0.059692999999999996,-0.85536,1.9999689999999999
392,243.900206,62.989242000000004,-2.197299,0.21033000000000002,-0.8482799999999999,1.634058
394,226.99321,56.214237,1.7700470000000001,0.173465,-0.976822,1.28896
396,193.484398,41.687647999999996,27.527276,-0.162234,-1.428244,0.968887
398,146.36453799999998,22.949569,60.66987099999999,0.327398,-1.8905319999999999,0.611826
400,79.10276999999999,34.302281,27.038987,1.001602,-2.0000310000000003,0.066896
402,-10.437171000000001,14.465553,12.512398,0.356207,-1.70193,0.04712
404,-42.90837,-65.796902,42.664225,0.083497,-0.862196,1.017227
406,-231.754025,-1.7700470000000001,25.024796,-0.28686999999999996,-1.273457,-0.503182
408,-133.363851,-63.782712,-11.657893,-0.103395,1.091936,1.9154349999999998
410,-287.66308100000003,-66.102083,26.611734000000002,-0.617563,-0.470954,0.7268180000000001
412,-207.034409,-21.545739,43.579767,0.9167620000000001,-0.204593,1.9999689999999999
414,-94.605936,20.996414,-6.897078,0.21301599999999998,0.06640700000000001,1.44802
416,-114.13748400000001,14.160372,23.132676999999997,-0.930312,-0.086549,1.502953
418,-60.608835,-57.740139,35.950256,0.26269899999999996,0.203738,1.644434
420,-23.682002,-16.723888,4.333562000000001,0.00293,0.028808999999999998,1.28957
422,-31.494621000000002,-37.476158,10.620279,0.13305899999999998,0.09668099999999999,1.17995
424,-28.0766,-15.869383,5.127031,-0.087282,0.030639999999999997,1.082902
426,-14.892805,-18.616007,1.464866,0.046143,0.09253099999999999,1.017227
428,-23.437858,-11.413748,1.586938,0.020263999999999997,0.06482,0.972671
430,-22.949569,-1.2207219999999999,2.319371,0.020630000000000003,0.061158000000000004,1.034073
432,-20.996414,0.671397,2.2583349999999998,-0.003052,0.050660000000000004,1.014542
434,-18.127717999999998,-0.549325,1.342794,-0.031373000000000005,0.044312,0.999893
436,-18.921187,-2.319371,0.48828900000000003,-0.019409,0.046387,1.017716
438,-13.427939000000002,-1.40383,0.671397,-0.012329000000000001,0.0058590000000000005,1.019181
440,-14.221407999999998,-1.8310830000000002,1.647974,-0.029541,0.016602000000000002,1.011734
442,-10.986496,-4.333562000000001,1.525902,-0.024537,0.013184,1.017594
444,-5.127031,-4.333562000000001,0.9155409999999999,-0.012573,0.011840999999999999,0.9402
446,-12.878614,-6.2867169999999994,0.244144,-0.019653999999999998,0.045288999999999996,0.9803620000000001
448,-17.761501000000003,-4.577707,0.9155409999999999,0.001953,0.029541,0.9790190000000001
450,-20.141909,-4.028382,2.685588,-0.003052,0.058717,0.998917
452,-17.94461,-2.2583349999999998,2.075227,-0.010986,-0.0008550000000000001,1.034928
454,-15.320058,-0.976577,2.136263,-0.003296,-0.020263999999999997,1.000381
456,-16.601816,-1.342794,1.8310830000000002,-0.022095,0.015015,0.98146
458,-17.090104999999998,-2.2583349999999998,1.342794,-0.008301000000000001,-0.005493,0.9980620000000001
460,-16.418708,0.0,3.418021,-0.021851,-0.040284,1.0037989999999999
462,-17.395285,-0.854505,4.272526,-0.009766,0.011719,0.984634
464,-29.419394,-5.554284,4.089418,-0.05127,0.0070799999999999995,0.961563
466,-32.288090000000004,-9.82681,2.868696,-0.006836,-0.015747,0.9546040000000001
468,-37.232013,-8.850233,2.685588,0.044923000000000005,-0.042115,1.0283360000000001
470,-39.795528999999995,-1.281758,6.469825,-0.031983,-0.073732,1.0031889999999999
472,-41.504540000000006,-1.8921189999999999,7.263294,-0.032227,-0.054444000000000006,1.005509
474,-39.673457,-5.249104,0.976577,-0.033814,-0.028199000000000002,1.0526280000000001
476,-44.861523999999996,-1.8921189999999999,-3.967346,-0.055299,-0.005249,0.979751
478,-55.420768,-4.089418,-25.207904,-0.094972,-0.029053,0.957778
480,-94.30075500000001,5.3101400000000005,-39.917601,0.12060699999999999,-0.316533,1.141131
482,-41.687647999999996,-11.535821,-13.122759,-0.018067,-0.027344,1.046769
484,-95.155261,-1.2207219999999999,-10.498207,0.114504,0.103273,0.9045549999999999
486,-155.58098700000002,-9.582666,9.704738,0.075563,0.21765500000000002,0.798474
488,-417.853056,2.990768,-11.779964999999999,0.241825,0.336309,1.151629
490,-700.083925,-22.095064,40.772107,-0.015869,0.140749,1.62295
492,-892.3476009999999,-27.893492,69.58114,0.463508,-2.0000310000000003,1.9999689999999999
494,39.978637,-36.987869,-27.222095,-0.5573819999999999,-0.8569469999999999,1.9999689999999999
496,173.464561,2.746624,-12.756542,-0.046387,0.999649,1.177386
498,-27.222095,-42.969406,58.594643999999995,0.164797,0.194217,0.213748
500,60.364691,8.484016,2.929732,0.189944,0.5240560000000001,0.194827
502,68.97077900000001,10.925460000000001,-16.784924,0.061158000000000004,0.419318,0.646494
504,84.412909,-18.616007,-24.841688,-0.030883999999999998,0.408087,0.8690319999999999
506,138.307774,-31.372549,-31.372549,-0.108766,0.430304,1.470115
508,205.93576000000002,-18.921187,-35.706111,-0.24426599999999998,0.244877,1.639307
510,256.10742400000004,1.586938,-29.114214,-0.313237,-0.000732,1.254536
512,280.03357,2.80766,-15.686275,-0.223636,-0.108766,1.064225
514,287.23582799999997,0.854505,-13.366903,0.024048,-0.10315099999999999,1.110735
516,283.024338,20.569162,-31.494621000000002,0.21606799999999998,-0.16247799999999998,1.2242620000000002
518,257.81643399999996,58.411536,-54.261081999999995,0.279179,-0.33411199999999996,1.114519
520,234.31753999999998,50.049592,-69.642176,0.217533,-0.269902,1.834989
522,246.95201,62.073701,-77.149615,0.058106,-0.44006999999999996,1.9999689999999999
524,266.666667,76.96650600000001,-71.351186,-0.12195,-0.625132,1.9999689999999999
526,285.099565,57.740139,-54.383154000000005,0.029175,-0.8449840000000001,1.9295950000000002
528,253.849088,76.295109,-57.618067,0.204349,-0.838758,1.994659
530,261.295491,81.483177,-57.923246999999996,0.157229,-0.9826809999999999,1.606592
532,224.124514,68.787671,-31.555657,-0.139651,-1.291768,1.463035
534,189.883268,54.566262,2.563516,0.000488,-1.7756619999999999,0.976699
536,122.438392,62.012665000000005,2.929732,0.5671470000000001,-2.0000310000000003,0.767224
538,78.431373,97.901884,-23.010604999999998,0.32459,-2.0000310000000003,0.163821
540,-10.986496,27.405203000000004,21.179522,-0.121218,-1.827909,0.104372
542,-45.227740999999995,-59.571220999999994,66.285191,-0.068482,-1.53164,-1.8921189999999999
544,-164.553292,-133.30281499999998,52.491035,0.239017,-0.309697,1.080583
546,-181.521324,-87.098497,53.162431999999995,-0.20556999999999997,0.6479590000000001,0.429938
548,-308.842603,-87.586786,76.78339799999999,0.7951779999999999,-0.312139,1.643091
550,-198.79453700000002,-28.564889,29.48043,1.366598,-0.133547,1.9999689999999999
552,-140.81025400000001,11.535821,-4.577707,-0.966201,-0.0636,1.944121
554,-67.811093,-90.63859000000001,43.51873,-0.443122,-0.21484699999999998,0.976333
556,-73.060197,-48.096437,15.869383,0.944472,-0.029053,1.6968029999999998
558,-62.073701,-60.66987099999999,14.953841,-0.08105599999999999,0.12378099999999999,1.1543139999999998
560,-51.697565999999995,-21.362631,0.244144,0.007812999999999999,-0.021851,1.300801
562,-8.239872,-28.992141999999998,-2.624552,0.10192999999999999,0.067506,0.9745020000000001
564,-19.958801,-17.517357,0.0,0.070924,-0.058838999999999995,1.103777
566,-19.165332,-2.868696,2.990768,0.087648,0.069093,1.0359040000000002
568,-16.84596,3.6011290000000002,3.784237,0.024291999999999998,-0.005371,1.033341
570,-17.639429,3.540093,3.418021,0.027344,-0.057252,0.97145
572,-13.672084,2.4414439999999997,2.50248,0.009276999999999999,-0.012329000000000001,1.014298
574,-9.216449,2.319371,2.319371,-0.004273,0.008789,0.992691
576,-9.582666,0.427253,1.7700470000000001,-0.002441,-0.032958999999999995,0.966201
578,-11.047532,-1.2207219999999999,2.014191,-0.000366,0.019898,1.008316
580,-9.704738,-1.953155,1.525902,0.003418,0.005249,1.013687
582,-7.2022580000000005,-2.136263,1.40383,-0.000366,0.005005,0.991226
584,-10.803388,-4.272526,0.671397,-0.010986,0.00415,0.950332
586,-18.616007,-7.568475,1.342794,0.001831,0.017456,1.016251
588,-15.381094000000001,-7.385367,0.122072,0.011719,-0.003418,1.0439610000000001
590,-12.756542,-5.61532,0.122072,0.020263999999999997,-0.044556,0.992081
592,-14.587625,-4.699779,1.525902,0.022583000000000002,-0.021485,0.993668
594,-14.648660999999999,-2.380407,2.746624,0.023681999999999998,-0.039673,0.9914700000000001
596,-19.287404000000002,-2.624552,2.685588,0.007812999999999999,-0.026246,0.9554590000000001
598,-29.419394,-8.1178,2.075227,-0.006958,-0.007201999999999999,0.9515530000000001
600,-33.38674,-12.512398,0.183108,0.006104,-0.028076999999999998,1.0309
602,-34.302281,-7.324331,-1.2207219999999999,0.044677999999999995,-0.09838999999999999,1.063127
604,-44.92256,0.9155409999999999,7.263294,0.041627,-0.06421,1.0663
606,-36.255435999999996,4.760815,8.606088,0.021606999999999998,-0.021973,0.9994049999999999
608,-49.134051,-0.244144,0.854505,-0.046754000000000004,-0.025757,0.937636
610,-52.796216,-7.141222,-18.24979,-0.097536,-0.093507,1.061906
612,-71.16807800000001,5.61532,-59.20500500000001,0.146975,-0.242069,0.961685
614,-32.837415,-3.234913,-3.1128400000000003,0.165774,-0.119387,0.9694969999999999
616,-94.11764699999999,19.958801,-18.066682,0.106081,0.315801,0.9316549999999999
618,-175.844968,3.6621650000000003,11.596857,-0.421637,0.316533,0.658457
620,-455.268177,-27.893492,-16.113526999999998,0.19971,0.49866499999999997,1.5283440000000001
622,-756.298161,-143.61791399999998,64.576181,-0.24560900000000002,-0.255863,1.417136
624,-991.348135,-138.857099,151.125353,0.888808,-2.0000310000000003,1.9999689999999999
626,137.75845,-11.108568,-53.345541000000004,0.01648,0.309575,1.9999689999999999
628,71.16807800000001,23.86511,-64.881361,-0.484749,0.863783,1.7463650000000002
630,-48.218509000000005,-36.438544,45.227740999999995,-0.11816600000000001,0.275517,0.539071
632,89.84512099999999,10.070953999999999,11.047532,-0.078126,0.46985600000000005,0.413092
634,77.332723,13.855192,8.484016,0.017823,0.33521,0.901259
636,117.43343300000001,-0.244144,-4.760815,0.06274500000000001,0.415167,1.085344
638,182.742046,-0.732433,-23.010604999999998,0.080568,0.404669,1.362203
640,231.2047,8.606088,-37.781338,-0.003906,0.201785,1.341451
642,270.878157,12.390326,-42.786297,-0.071046,0.010376,1.00795
644,285.282673,8.728161,-42.175937,-0.016236,-0.03418,1.212299
646,305.973907,21.118485999999997,-49.866484,0.11511400000000001,-0.11120799999999999,1.718288
648,327.33653799999996,46.387427,-69.520104,0.108644,-0.510994,0.8249639999999999
650,259.708553,80.628672,-75.013352,0.211063,-0.45215500000000003,0.662119
652,220.157168,60.66987099999999,-87.64782199999999,0.271855,-0.335332,1.890898
654,227.176318,95.399405,-95.460441,-0.062379,-0.55201,1.9999689999999999
656,248.172732,101.197833,-66.956588,-0.319707,-0.802502,1.9999689999999999
658,305.851835,84.290837,-34.119172999999996,-0.075807,-0.9758450000000001,1.9999689999999999
660,295.17052,112.306401,-32.104982,0.613169,-0.894057,1.7295189999999998
662,268.80293,113.405051,-52.796216,0.735363,-0.9708399999999999,1.696681
664,242.191196,99.06156999999999,-47.119859999999996,0.21973,-1.48806,1.345357
666,180.91096399999998,81.544213,-21.850919,0.312749,-2.0000310000000003,0.897597
668,102.90684399999999,136.110475,-41.382467,0.495979,-2.0000310000000003,-0.112428
670,-4.150454,64.820325,0.732433,-0.040527999999999995,-2.0000310000000003,-1.1074389999999998
672,-234.98893700000002,-233.524071,108.339055,0.619883,-1.600732,0.346197
674,-62.989242000000004,-102.357519,49.011978000000006,0.147585,0.771252,1.9999689999999999
676,-149.050126,-107.606622,74.586099,0.556161,0.6163420000000001,-0.926406
678,-326.05478,-64.820325,62.256809,1.070085,-0.21155100000000002,1.9999689999999999
680,-164.24811200000002,1.70901,1.70901,0.8322879999999999,-0.176516,1.9999689999999999
682,-145.815213,18.921187,6.958114,-1.5093,-0.148562,1.926909
684,-39.734493,-97.169451,39.246204,0.126467,-0.068238,1.162249
686,-44.434272,-47.913329,13.000687,0.5528649999999999,0.071412,1.518578
688,-41.382467,-64.942397,14.648660999999999,0.007691,0.147097,1.087541
690,-38.391698999999996,-21.911955,2.197299,-0.048341,0.014282,1.0472569999999999
692,-33.508812,-33.020523,2.685588,0.184695,0.161379,1.234272
694,-23.559929999999998,-14.831769,2.563516,-0.025025,0.043702,1.0393219999999999
696,-32.410163,-9.643702000000001,4.394598,0.019653999999999998,-0.026733999999999997,0.986099
698,-26.794842,-7.629511,4.8218510000000006,0.055299,0.029786,0.984756
700,-27.038987,-4.577707,4.699779,-0.007812999999999999,0.029907999999999997,1.0283360000000001
702,-28.442816999999998,-6.71397,4.21149,-0.079347,0.13196,1.290669
704,-21.911955,-7.629511,2.990768,0.013428,0.025757,0.9820709999999999
706,-18.982223,-7.507439,2.990768,0.032593000000000004,0.0043950000000000005,1.026505
708,-18.310826000000002,-5.9205,2.380407,0.027466,0.038941,1.063127
710,-14.282444,-5.3101400000000005,1.342794,0.031006,-0.035523,0.9694969999999999
712,-12.878614,-6.164645,0.183108,0.011231,0.0021969999999999997,0.997208
714,-13.427939000000002,-6.164645,0.854505,0.015015,-0.007935,1.0156399999999999
716,-12.085144999999999,-6.164645,0.244144,0.039185000000000005,-0.037964,0.9398340000000001
718,-15.442129999999999,-6.836042,0.9155409999999999,0.037110000000000004,-0.028808999999999998,0.9990389999999999
720,-16.296635000000002,-5.3101400000000005,1.464866,0.043458,-0.035523,0.9994049999999999
722,-13.488975,-2.136263,2.990768,0.046998000000000005,-0.038697,0.996597
724,-14.160372,-0.6103609999999999,4.333562000000001,0.048829000000000004,-0.041016000000000004,0.972183
726,-17.517357,-2.50248,2.80766,-0.00415,0.009155,0.9362940000000001
728,-28.259709,-1.8921189999999999,1.09865,0.028931000000000002,-0.06286699999999999,0.987442
730,-31.067369,-0.183108,1.7700470000000001,0.033326,-0.038331,1.018692
732,-29.785611,3.845274,5.9205,0.109499,-0.007201999999999999,1.0160069999999999
734,-43.091478,8.545052,11.047532,0.027222000000000003,-0.08520599999999999,1.028824
736,-46.875715,7.507439,6.2867169999999994,-0.006592,-0.040772,0.999283
738,-43.21355,1.70901,-8.178836,-0.087892,-0.008545,0.996597
740,-66.163119,4.699779,-41.382467,-0.019409,-0.067872,0.999527
742,-53.894865,-1.953155,-28.015564,0.139651,-0.310674,1.126482
744,-51.33135,7.446403,-10.009917999999999,0.048829000000000004,0.181033,1.049454
746,-140.56611,29.724575,-14.587625,-0.0023190000000000003,0.224369,0.813245
748,-208.377203,-32.654307,13.183795000000002,-0.226444,0.972915,1.378439
750,-620.12665,-96.49805400000001,31.128404999999997,-0.8813610000000001,0.00647,1.9859919999999998
752,-802.990768,-195.193408,88.685435,0.083619,-0.25451999999999997,1.049454
754,-898.75639,-103.456168,214.602884,0.035401,-0.7048449999999999,1.9999689999999999
756,199.588006,-7.263294,-67.444877,-0.075196,0.8204469999999999,1.9999689999999999
758,5.859464,-11.596857,-15.442129999999999,-0.55787,0.8061649999999999,1.9999689999999999
760,175.783932,-1.2207219999999999,-16.601816,-0.348028,0.319463,0.897841
762,131.34966,-7.01915,-2.624552,-0.245243,0.180911,0.542733
764,169.86343200000002,1.037613,-2.2583349999999998,-0.165408,0.224491,0.544564
766,173.647669,-1.586938,-6.103609,-0.043824,0.245243,0.889784
768,202.02945,19.226368,-20.874342000000002,-0.014649,0.247196,1.131365
770,239.749752,37.354085999999995,-28.870069,-0.070802,0.10498199999999999,1.232807
772,269.657435,39.856565,-26.184482,-0.046387,-0.019409,1.245502
774,292.301823,42.725260999999996,-26.550697999999997,0.10473800000000001,-0.074952,1.308858
776,300.358587,55.84802,-36.49958,0.15246800000000002,-0.290166,1.184833
778,271.488518,94.483864,-44.739452,0.222538,-0.5080640000000001,0.715831
780,220.21820400000001,79.285878,-43.640803000000005,0.246586,-0.34058099999999997,1.439719
782,210.574502,88.563363,-50.415808,0.271977,-0.303716,1.9999689999999999
784,272.40405899999996,100.282292,-53.162431999999995,0.191653,-0.5553060000000001,1.9999689999999999
786,294.07187000000005,78.370336,-47.180896000000004,0.267094,-0.807385,1.9999689999999999
788,274.601358,94.97215200000001,-50.2327,0.384894,-0.797253,1.8168
790,279.179065,71.107042,-43.152514000000004,0.193973,-0.894057,1.9802549999999999
792,262.699321,61.707485,-31.677729,0.013184,-1.219379,1.379049
794,200.808728,69.336996,-15.259022,0.011719,-1.8784470000000002,0.926284
796,107.24040600000001,106.446937,-12.939651,0.765393,-2.0000310000000003,0.55494
798,67.750057,123.90325800000001,-16.540779999999998,0.39832199999999995,-2.0000310000000003,-0.297978
800,-47.180896000000004,-27.954528000000003,51.941711,0.003296,-1.69839,0.22034
802,-232.91371,-193.545434,80.079347,0.787243,-1.055436,0.309575
804,-104.737926,-66.468299,37.90341,-0.212894,0.9038219999999999,1.9999689999999999
806,-241.763943,-90.882734,59.815366000000004,0.306279,-0.002686,-0.198856
808,-309.147784,-56.458381,70.069429,1.063859,-0.190921,1.9999689999999999
810,-112.916762,2.136263,-5.9205,0.739269,-0.019653999999999998,1.790311
812,-131.593805,-12.268253999999999,12.207218,-1.423117,-0.27478400000000003,1.8620889999999999
814,-79.285878,-108.52216399999999,43.51873,0.5694670000000001,0.23596599999999998,1.9673150000000001
816,-48.279545,-26.489662,2.014191,-0.021973,0.019165,1.240497
818,-51.941711,-62.256809,9.399557000000001,0.448615,0.016358,1.3872280000000001
820,-41.748684000000004,-22.522316,1.09865,-0.120851,0.017578,1.110857
822,-16.418708,-18.738079,-3.845274,0.09765800000000001,0.07361000000000001,1.050431
824,-26.794842,-6.042573,2.929732,0.08520599999999999,-0.001221,1.142962
826,-21.118485999999997,8.667124000000001,3.90631,0.077516,0.028443,1.04799
828,-14.770732999999998,14.221407999999998,2.80766,0.049928,0.008911,1.032486
830,-9.887846000000001,14.465553,1.7700470000000001,-0.022095,0.03125,0.9747459999999999
832,-14.282444,6.775005999999999,0.976577,-0.016968,0.001099,0.9990389999999999
834,-10.681315,4.394598,1.342794,0.004028,-0.006836,1.005142
836,-7.2022580000000005,3.356985,1.70901,-0.009276999999999999,0.010131999999999999,0.9900049999999999
838,-6.836042,1.342794,2.075227,0.002686,-0.019165,1.0156399999999999
840,-6.591897,0.183108,2.50248,-0.014771000000000001,0.027587999999999998,0.9969629999999999
842,-7.568475,-3.6621650000000003,2.319371,-0.035279000000000005,0.086549,0.9835360000000001
844,-11.902037,-8.361944,1.037613,0.002075,0.023194,0.9948879999999999
846,-10.925460000000001,-8.056764,1.159686,0.011231,-0.035523,0.9305559999999999
848,-15.869383,-12.268253999999999,0.48828900000000003,-0.004761,0.021606999999999998,1.019059
850,-15.13695,-11.23064,-0.183108,0.020508000000000002,-0.026612,0.9713280000000001
852,-24.292363,-11.291675999999999,-0.122072,0.016602000000000002,0.003906,0.9630270000000001
854,-32.837415,-11.23064,0.854505,0.01355,0.0028079999999999997,0.9542379999999999
856,-35.400931,-8.972305,-0.122072,0.053834,-0.05005,1.014542
858,-31.616692999999998,-5.554284,1.70901,0.034424,-0.075074,0.9386129999999999
860,-42.053864000000004,-3.234913,2.4414439999999997,0.041260000000000005,-0.043824,1.094865
862,-39.612421000000005,-0.48828900000000003,2.380407,0.051759000000000006,-0.07800399999999999,1.006729
864,-46.204318,5.554284,8.606088,0.039918,-0.08630499999999999,1.044083
866,-42.420081,4.272526,6.042573,0.003906,-0.06958099999999999,0.960952
868,-46.204318,-1.159686,-2.990768,-0.030396,-0.117067,0.9906159999999999
870,-35.767146999999994,-1.586938,-23.010604999999998,0.013062,-0.11133,0.9990389999999999
872,-65.613794,5.0049589999999995,-50.049592,0.11133,-0.273564,0.959976
874,-14.648660999999999,-1.159686,-3.967346,0.140505,-0.186526,1.077409
876,-71.29015,20.630198,-22.705425,0.06067,0.236698,0.9365379999999999
878,-185.000381,16.906996,-17.090104999999998,-0.314946,0.441291,0.479133
880,-391.66857400000004,-31.250477000000004,-38.391698999999996,0.044556,1.04213,1.9999689999999999
882,-730.663005,-229.98397799999998,95.094224,-0.458259,-0.075685,1.275166
884,-952.895399,-260.746166,157.22896200000002,1.365621,-2.0000310000000003,1.9999689999999999
886,-6.591897,-43.579767,-29.541465999999996,0.255131,-0.6994739999999999,1.9999689999999999
888,173.342489,98.75639,-72.632944,-0.34680700000000003,1.028824,1.8585490000000002
890,-46.692607,-21.972992,57.007706000000006,-0.44238999999999995,0.282841,0.6591899999999999
892,141.542687,-15.991454999999998,37.90341,-0.17688299999999998,0.359869,0.348516
894,85.02327,-17.456321,34.058137,0.047363999999999996,0.338506,0.737926
896,149.843595,-2.990768,6.042573,0.069337,0.42591,0.8563360000000001
898,179.87335,-2.746624,-15.686275,0.023804,0.30457,1.128313
900,218.692302,11.169604,-29.297321999999998,-0.11133,0.10888800000000001,1.22414
902,252.87251099999997,25.635157,-26.733806,-0.23108299999999998,-0.099855,1.219257
904,276.859693,29.419394,-13.122759,-0.165774,-0.20703400000000002,1.365743
906,293.76669,31.311513,-8.056764,0.22900700000000002,-0.286748,1.438621
908,307.866026,47.852292999999996,-34.729534,0.409674,-0.401862,1.4591290000000001
910,292.790112,57.434957999999995,-61.158159999999995,0.41113900000000003,-0.561044,1.293477
912,267.33806400000003,48.767834,-70.679789,0.185306,-0.676768,1.2013120000000002
914,233.340963,29.846646999999997,-68.97077900000001,0.132326,-0.535042,1.625025
916,218.936446,44.861523999999996,-70.252537,0.09546,-0.46179899999999996,1.9999689999999999
918,272.526131,69.092851,-75.013352,0.06274500000000001,-0.618784,1.9999689999999999
920,269.413291,89.17372399999999,-68.726635,0.010254000000000001,-0.791028,1.669947
922,238.406958,94.666972,-49.92752,-0.018799,-0.8684209999999999,1.6106200000000002
924,211.85626000000002,102.84580799999999,-30.334936,0.026612,-1.1644459999999999,1.536889
926,172.91523600000002,108.644236,-8.178836,0.299199,-1.895659,1.344259
928,113.16090600000001,141.420615,-1.281758,0.611826,-2.0000310000000003,0.883558
930,99.122606,138.307774,9.399557000000001,0.36585,-2.0000310000000003,-1.1707940000000001
932,-79.71313,-58.899825,79.10276999999999,0.214115,-1.491844,-0.274052
934,-264.71351200000004,-175.66186000000002,57.373922,0.894057,-0.695933,0.952285
936,-121.889067,-107.362478,19.226368,-0.44238999999999995,0.946548,1.9999689999999999
938,-262.943465,-95.277333,57.679103000000005,-0.029053,-0.15820599999999999,0.221317
940,-231.93713300000002,-47.486076000000004,50.2327,1.503929,-0.068116,1.9999689999999999
942,-119.020371,18.860151000000002,-30.151827,0.396002,-0.12195,1.636133
944,-141.542687,-19.226368,31.738766,-1.9303270000000001,-0.689342,1.538842
946,-70.191501,-101.014725,36.133364,1.645045,0.390997,1.9999689999999999
948,-47.42504,-4.394598,11.963073,-0.835584,0.023194,1.134539
950,-38.086519,-43.457694000000004,1.159686,0.62916,0.290898,1.420798
952,-37.781338,-14.953841,2.4414439999999997,-0.296147,-0.00415,1.169085
954,-32.715343,-11.23064,-1.586938,0.00061,0.044433999999999994,1.120623
956,-20.202945,-4.028382,-0.6103609999999999,0.093263,0.056152999999999995,0.993057
958,-24.414435,2.50248,4.089418,-0.037964,0.137087,1.21413
960,-23.682002,2.319371,5.127031,-0.03003,0.016358,0.964248
962,-23.743038000000002,0.854505,3.418021,-0.011597,0.031495,1.0091709999999998
964,-21.484703,-1.037613,1.2207219999999999,-0.036133,0.025269,1.0750899999999999
966,-17.334249,-2.014191,2.014191,-0.011719,-0.007324,0.996841
968,-15.014878,-2.4414439999999997,1.647974,-0.024291999999999998,0.004517,0.996719
970,-12.512398,-1.70901,-1.2207219999999999,0.065064,-0.228275,0.711437
972,-16.357671,-5.0049589999999995,1.525902,-0.023926,0.003296,0.997574
974,-15.442129999999999,-5.0049589999999995,1.40383,-0.016114,0.012206999999999999,1.015518
976,-15.930419,-5.188067,1.342794,-0.009522,-0.012206999999999999,1.031388
978,-15.075914000000001,-4.699779,2.014191,0.00061,-0.029053,1.005509
980,-10.742351,-5.493248,1.09865,-0.014893,-0.025025,0.952773
982,-14.0383,-8.545052,-0.183108,-0.002686,-0.06384400000000001,0.9630270000000001
984,-13.550010999999998,-8.1178,-0.122072,0.00061,-0.043213999999999995,0.98439
986,-17.273213000000002,-8.239872,0.48828900000000003,0.013672,-0.023681999999999998,1.006973
988,-20.874342000000002,-7.080186,0.244144,0.012206999999999999,-0.045288999999999996,1.005631
990,-21.118485999999997,-5.9205,0.061036,0.0031739999999999997,-0.036011,0.997452
992,-26.184482,-7.080186,-0.244144,0.0023190000000000003,-0.028199000000000002,0.9588770000000001
994,-31.128404999999997,-9.399557000000001,-0.854505,-0.026001,-0.026489999999999996,0.9547260000000001
996,-44.61738,-4.577707,6.042573,0.076539,-0.119875,1.081071
998,-33.569848,2.929732,7.263294,0.026733999999999997,-0.041505,0.999893
1000,-49.317159000000004,1.037613,7.812619000000001,-0.010376,-0.037964,1.009903
1002,-54.383154000000005,-3.6011290000000002,-5.9205,-0.07019199999999999,-0.046754000000000004,0.953384
1004,-59.449149,-5.676356,-20.019837,-0.083864,-0.224491,1.081315
1006,-44.983596999999996,2.868696,-34.485389,0.154299,-0.417121,1.0000149999999999
1008,-16.296635000000002,-8.789197,-2.868696,-0.068116,0.045288999999999996,1.0799729999999998
1010,-120.79041699999999,12.146181,-26.733806,0.099489,0.145876,0.9627829999999999
1012,-154.177157,-17.151141,-13.427939000000002,-0.289799,0.32398000000000005,0.862806
1014,-528.267338,-27.038987,-37.354085999999995,-0.166018,0.419684,1.6869150000000002
1016,-789.745937,-156.55756499999998,65.918975,-0.034302,-0.190433,1.0648360000000001
1018,-1025.4062720000002,-175.844968,116.51789099999999,1.1277030000000001,-2.0000310000000003,1.9999689999999999
1020,91.248951,-88.197147,-37.170977,-0.07837000000000001,0.02295,1.9999689999999999
1022,128.114748,5.676356,-47.42504,-0.11218399999999999,0.849989,1.9999689999999999
1024,52.307927,-13.611048,44.800488,-0.194705,0.406134,1.006119
1026,172.42694699999998,12.512398,16.84596,-0.082521,0.340459,0.190066
1028,139.101244,8.056764,13.183795000000002,0.025269,0.18323,0.355962
1030,150.39292,2.563516,-4.943923000000001,0.124025,0.337041,0.636973
1032,187.869078,-1.8310830000000002,-27.100022999999997,0.11389300000000001,0.350835,1.357198
1034,240.97047400000002,9.704738,-44.861523999999996,-0.010376,0.11035299999999999,1.543603
1036,290.592813,24.658579,-48.218509000000005,-0.135012,-0.07434199999999999,1.220356
1038,305.363546,31.311513,-40.283818,-0.133913,-0.21155100000000002,1.244892
1040,316.22797,32.715343,-33.142596000000005,0.007201999999999999,-0.300786,1.4022430000000001
1042,311.28404700000004,42.053864000000004,-43.396658,0.32422399999999996,-0.57435,0.810559
1044,250.67521200000002,67.322805,-64.51514499999999,0.434699,-0.49732200000000004,1.1143969999999999
1046,230.838483,65.552758,-89.17372399999999,0.344244,-0.398688,1.782498
1048,217.776761,82.459754,-90.089265,0.06421,-0.628061,1.9999689999999999
1050,273.56374500000004,77.515831,-70.191501,-0.025757,-0.7469600000000001,1.9999689999999999
1052,304.020752,72.755016,-57.129778,0.23608800000000002,-0.86305,1.9999689999999999
1054,281.193256,81.91043,-53.77279300000001,0.186526,-0.921157,1.6349129999999998
1056,254.825666,72.755016,-48.82887,0.135256,-1.044694,1.659571
1058,222.23239500000003,95.765621,-41.260395,0.105715,-1.507469,1.21059
1060,139.58953200000002,137.026017,-32.349126,0.476448,-2.0000310000000003,0.9437399999999999
1062,89.295796,179.26298899999998,-29.846646999999997,0.353155,-2.0000310000000003,-0.19617
1064,-17.151141,-0.48828900000000003,37.476158,0.283696,-2.0000310000000003,-0.975967
1066,-97.35256,-130.251011,87.586786,0.203372,-1.085466,1.626001
1068,-120.24109299999999,-75.013352,56.641489,-0.119387,0.776989,1.464866
1070,-101.25886899999999,-67.566949,56.336309,-0.487678,1.251484,0.436042
1072,-341.92416299999996,-78.736553,96.803235,0.739879,-0.059327,0.867567
1074,-235.233082,-29.17525,28.809033000000003,1.9999689999999999,0.001831,1.9999689999999999
1076,-123.72015,21.484703,-32.227053999999995,-1.092302,-0.32654299999999997,1.9999689999999999
1078,-66.22415500000001,-84.473945,54.016938,-0.700084,-0.256352,0.906508
1080,-81.544213,-72.999161,27.100022999999997,1.332418,0.13489,1.949126
1082,-37.415122,-60.914015,13.305867000000001,-0.549691,-0.055299,1.168475
1084,-36.316472,-41.931792,5.432212,0.39832199999999995,0.061646000000000006,1.423484
1086,-14.343481,-35.88922,4.028382,-0.0063479999999999995,0.11230599999999999,1.077531
1088,-21.728847000000002,-22.400244,4.699779,0.050172,0.055421000000000005,1.046525
1090,-20.874342000000002,-10.986496,7.385367,0.125246,0.055421000000000005,1.0483559999999998
1092,-22.949569,0.122072,9.155413000000001,-0.003052,0.042237000000000004,1.01735
1094,-18.127717999999998,-0.793469,6.2867169999999994,-0.012206999999999999,0.05359,0.9317770000000001
1096,-21.484703,-3.234913,3.1128400000000003,-0.003906,0.032593000000000004,1.000259
1098,-19.287404000000002,-6.164645,2.136263,-0.002075,0.055542999999999995,1.018692
1100,-19.226368,-5.61532,1.464866,0.006958,0.056031,0.983902
1102,-24.902724,-3.784237,0.671397,0.029786,0.048585,0.940566
1104,-36.255435999999996,-4.638743,0.671397,0.019653999999999998,0.015137000000000001,1.011124
1106,-32.959487,-5.188067,0.244144,0.024903,-0.039550999999999996,1.033585
1108,-29.602502,-5.981537,0.427253,-0.007568000000000001,-0.022216999999999997,0.993057
1110,-30.762188000000002,-8.606088,-0.366217,0.018555000000000002,-0.020142,0.9952540000000001
1112,-28.931106,-8.545052,-0.427253,0.044433999999999994,-0.033569999999999996,0.992447
1114,-28.259709,-6.591897,0.0,0.033692,-0.04773,1.008316
1116,-24.231327,-5.249104,0.732433,0.046508999999999995,-0.040162,0.996841
1118,-24.353399,-5.249104,2.014191,0.048096,-0.036255,1.0150299999999999
1120,-31.494621000000002,-2.685588,2.014191,0.070924,-0.109377,1.020645
1122,-27.588312,-2.075227,1.037613,0.048951,-0.050904000000000005,1.030289
1124,-28.503853000000003,0.366217,0.0,0.08142200000000001,-0.049805,0.8538950000000001
1126,-35.645075,2.2583349999999998,4.699779,0.07470800000000001,-0.05005,1.050431
1128,-37.90341,6.775005999999999,10.864424,0.066285,-0.14441099999999998,1.002579
1130,-38.818952,8.1178,10.070953999999999,0.008301000000000001,-0.101076,1.016251
1132,-31.128404999999997,3.295949,-3.1128400000000003,-0.052613,-0.10803399999999999,1.006729
1134,-32.410163,-3.479057,-27.405203000000004,-0.048219,-0.069459,1.0404209999999998
1136,-57.618067,6.775005999999999,-45.654994,0.137697,-0.274418,1.1346610000000001
1138,-11.291675999999999,-0.6103609999999999,-9.094377,0.10901,-0.11218399999999999,1.042741
1140,-64.148928,14.343481,-24.841688,0.170047,0.160769,0.991836
1142,-182.68101000000001,31.311513,-18.799115,-0.092409,0.45374200000000003,0.534554
1144,-351.873045,-0.671397,-38.391698999999996,0.131472,1.0150299999999999,1.5243149999999999
1146,-685.862516,-93.690394,38.69688,-0.5179520000000001,-0.09546,1.476219
1148,-851.2092779999999,-114.381628,63.660639,0.26746,-0.776501,1.47512
1150,-329.96109,-69.275959,38.635843,-0.8614629999999999,-1.07863,1.9999689999999999
1152,313.72549,29.968719,-59.876402,-0.31604499999999996,1.5338370000000001,1.620752
1154,-2.319371,-25.696193,31.860838,-0.341924,0.271366,0.191165
1156,118.471046,0.244144,9.582666,-0.150881,0.27258699999999997,0.172488
1158,59.998474,-10.437171000000001,5.371176,0.068727,0.337285,0.5042800000000001
1160,124.269474,-18.127717999999998,-15.320058,0.045777,0.44641800000000004,0.9594870000000001
1162,159.97558600000002,-21.911955,-29.236286,-0.041505,0.33777399999999996,1.276753
1164,212.222477,-5.676356,-37.964446,-0.203006,0.166018,1.321309
1166,255.25291800000002,9.948882000000001,-30.823224,-0.33862800000000004,-0.072877,1.246723
1168,277.347982,26.67277,-13.611048,-0.290043,-0.209842,1.0355379999999998
1170,278.385595,35.400931,-0.244144,-0.09289700000000001,-0.218631,1.2614940000000001
1172,283.207446,46.448463000000004,-4.028382,0.15173599999999998,-0.38147600000000004,1.149065
1174,251.04142799999997,76.173037,-19.897765,0.3346,-0.47168699999999997,0.792859
1176,205.69161499999998,48.401617,-36.377508,0.35730500000000004,-0.262577,1.500999
1178,203.372244,46.814679,-56.94667,0.397345,-0.32813000000000003,1.9999689999999999
1180,268.436713,67.750057,-80.81178,0.186648,-0.522713,1.9999689999999999
1182,266.361486,63.965819999999994,-78.553445,0.032837,-0.771252,1.958404
1184,257.87747,69.88632,-73.243305,0.194949,-0.7495229999999999,1.889189
1186,253.29976299999998,74.952316,-77.943084,0.298589,-0.753307,1.6949720000000001
1188,231.2047,88.92958,-74.891279,0.11413699999999999,-1.000137,1.405783
1190,191.348135,80.750744,-45.105669,-0.08984500000000001,-1.448142,1.153094
1192,141.664759,76.234073,-6.225681,0.285405,-2.0000310000000003,0.801892
1194,86.12191999999999,87.52575,-1.647974,0.586923,-2.0000310000000003,0.027710000000000002
1196,-0.976577,23.620966,32.471199,0.22717600000000002,-1.84329,-0.291997
1198,-57.740139,-66.83451600000001,74.341955,0.056886,-1.036027,0.9746239999999999
1200,-238.83421099999998,-114.68680900000001,68.299382,0.406989,-0.47986599999999996,0.48999799999999993
1202,-112.48950900000001,-67.017624,28.320745000000002,0.12341500000000001,1.188739,1.7723659999999999
1204,-258.243687,-63.416495,34.119172999999996,0.335332,-0.264897,0.137453
1206,-279.667353,-36.743725,27.100022999999997,0.792615,-0.052735000000000004,1.9999689999999999
1208,-106.446937,25.696193,-2.2583349999999998,-0.599741,-0.317388,1.824491
1210,-73.548486,-54.13901,39.368276,-0.403082,-0.40174,1.388449
1212,-57.49599499999999,-40.344854,17.578393,0.922011,0.14441099999999998,1.541527
1214,-51.087205,-29.419394,14.648660999999999,-0.34985900000000003,-0.113771,0.935683
1216,-46.875715,-13.488975,1.7700470000000001,0.188968,0.006836,1.21706
1218,-43.823910999999995,-12.573433999999999,2.319371,0.032227,-0.00415,1.353292
1220,-16.235599,0.793469,2.50248,-0.06006,0.045899,0.965347
1222,-17.883574,4.272526,3.479057,-0.019776,0.003052,1.0564129999999998
1224,-13.733120000000001,7.446403,3.356985,-0.010986,0.029053,1.0251620000000001
1226,-13.061722999999999,7.568475,3.540093,-0.051148,0.028687,1.000504
1228,-11.169604,5.432212,3.356985,-0.069215,0.006714,1.0053860000000001
1230,-8.056764,1.281758,2.136263,-0.081788,0.006958,0.992691
1232,-4.638743,-2.685588,0.9155409999999999,-0.060426,0.028931000000000002,0.976089
1234,-7.568475,-6.897078,0.793469,-0.064088,0.022216999999999997,0.9557030000000001
1236,-11.841001,-12.024109,0.671397,-0.068727,0.004883,0.9423969999999999
1238,-9.277485,-14.282444,-0.671397,-0.093385,0.035767,1.012222
1240,-11.841001,-15.991454999999998,0.427253,-0.059204999999999994,0.024537,0.991592
1242,-15.625238000000001,-17.578393,1.342794,-0.018433,0.007324,0.980972
1244,-12.024109,-15.259022,0.0,-0.03003,-0.022583000000000002,1.026505
1246,-10.864424,-11.657893,0.366217,-0.005615,0.000122,0.98854
1248,-10.376135000000001,-7.6905470000000005,0.671397,-0.003052,-0.016968,0.992935
1250,-12.024109,-6.164645,1.2207219999999999,-0.030883999999999998,-0.019165,1.003433
1252,-11.841001,-5.493248,2.4414439999999997,-0.010742,-0.038697,1.0037989999999999
1254,-14.648660999999999,-4.394598,2.319371,0.004761,-0.030274000000000002,0.960098
1256,-23.559929999999998,-3.6011290000000002,3.784237,-0.01001,0.003296,0.96083
1258,-31.311513,-5.493248,3.6621650000000003,-0.027344,-0.010131999999999999,1.0150299999999999
1260,-30.945296000000003,-7.629511,2.868696,-0.021363,-0.026001,1.009903
1262,-33.569848,-6.347753,2.868696,0.004761,-0.05835,1.021256
1264,-32.593271,-1.464866,6.042573,0.001953,-0.085939,0.995865
1266,-28.992141999999998,-1.8921189999999999,4.8218510000000006,-0.026001,-0.067262,0.984268
1268,-30.090790999999996,-6.775005999999999,0.671397,-0.048463,-0.024659,0.9875639999999999
1270,-44.190127000000004,-8.789197,-0.30518,0.022461000000000002,-0.064088,1.037369
1272,-49.134051,-10.559242999999999,-13.183795000000002,-0.049194999999999996,-0.045655,1.057633
1274,-63.233387,4.638743,-32.837415,0.049317,-0.141238,1.077775
1276,-49.195087,-5.249104,-5.065995,-0.039185000000000005,-0.058595,1.018204
1278,-102.113375,-6.103609,-27.283131,0.087648,0.208377,0.877943
1280,-145.815213,-7.01915,-0.671397,0.000977,0.498421,0.9630270000000001
1282,-371.465629,-10.131991000000001,-21.972992,0.128908,0.9979399999999999,1.087907
1284,-722.728313,-91.187915,75.623713,-0.164431,0.093019,1.1349049999999998
1286,-914.1985199999999,-128.358892,98.817426,0.427375,-2.0000310000000003,1.9999689999999999
1288,74.64713499999999,-58.716716000000005,-20.202945,-0.47925500000000004,-0.122438,1.9999689999999999
1290,186.58732,33.264668,-15.625238000000001,-0.364874,0.826307,1.052506
1292,-42.725260999999996,-34.058137,90.699626,-0.18274200000000002,0.431525,0.135744
1294,90.150301,-5.676356,44.983596999999996,0.18152100000000002,0.44190100000000004,0.280888
1296,58.960861,-9.765774,21.179522,0.201907,0.45801499999999995,0.8475469999999999
1298,122.01113899999999,-24.841688,-8.972305,0.151614,0.568246,1.044327
1300,172.54901999999998,-36.49958,-32.837415,0.096315,0.460822,1.40444
1302,224.979019,-21.667811,-52.552071,-0.059692999999999996,0.279057,1.500145
1304,274.784466,2.136263,-57.007706000000006,-0.237064,0.021973,1.1299
1306,286.015106,13.427939000000002,-45.044633000000005,-0.262577,-0.099611,1.0434729999999999
1308,291.447318,14.953841,-35.767146999999994,-0.057496000000000005,-0.11926500000000001,1.1814149999999999
1310,283.573663,41.077287,-46.387427,0.161746,-0.37891199999999997,0.778088
1312,232.242313,63.172351,-60.18158199999999,0.23205900000000002,-0.291875,1.25832
1314,227.054246,63.53856700000001,-71.717403,0.15149200000000002,-0.300908,1.9999689999999999
1316,239.32249900000002,80.81178,-67.566949,-0.144045,-0.491463,1.9999689999999999
1318,245.243,86.060884,-41.626612,-0.243046,-0.8414440000000001,1.9999689999999999
1320,232.974746,91.248951,-18.127717999999998,-0.102296,-0.918593,1.9999689999999999
1322,240.66529300000002,84.901198,-7.629511,0.353155,-0.901503,1.9999689999999999
1324,238.773175,80.201419,-25.818265,0.660899,-0.985977,1.732692
1326,221.988251,64.148928,-41.443503,0.450324,-1.356954,1.35378
1328,182.009613,40.833143,-26.123445,0.13733099999999998,-2.0000310000000003,0.8836799999999999
1330,115.90753000000001,37.232013,-15.442129999999999,0.33179200000000003,-2.0000310000000003,0.385626
1332,46.082246000000005,66.71244399999999,-14.404517000000002,-0.043946,-2.0000310000000003,-0.329961
1334,-61.219196,-37.109941,59.449149,-0.208377,-1.797757,0.318486
1336,-152.590219,-124.87983500000001,59.876402,0.771374,0.340093,1.571801
1338,-72.449836,-58.289464,35.034714,-0.450568,1.460472,0.721324
1340,-334.599832,-111.085679,80.445563,-0.025391,-0.397467,0.184817
1342,-246.585794,-34.668498,68.909743,1.6506599999999998,-0.16931400000000002,1.9999689999999999
1344,-184.145876,50.659953,-9.948882000000001,0.523201,0.01648,1.9999689999999999
1346,-96.25391,-18.677042999999998,37.59823,-1.3962620000000001,-0.766369,1.0750899999999999
1348,-71.656367,-60.303655000000006,32.410163,1.3706260000000001,0.382452,1.756374
1350,-52.796216,-17.639429,15.686275,-0.744884,-0.15259,0.88661
1352,-45.227740999999995,-24.109254999999997,0.0,0.340215,0.091798,1.207172
1354,-26.855878999999998,-20.080873,1.525902,0.120485,-0.000244,1.140764
1356,-20.141909,0.48828900000000003,2.80766,-0.072999,-0.031127999999999996,1.081926
1358,-14.404517000000002,6.652933999999999,4.699779,0.010498,0.06067,1.015885
1360,-11.413748,8.545052,5.065995,0.02356,0.051759000000000006,1.0355379999999998
1362,-11.657893,9.338521,5.249104,-0.033814,0.020630000000000003,1.015396
1364,-10.193027,7.446403,4.8218510000000006,-0.061890999999999995,0.033204000000000004,0.988418
1366,-6.164645,6.103609,3.6011290000000002,-0.033692,0.0074459999999999995,1.050309
1368,0.0,6.042573,3.051804,-0.068238,0.037232,0.980117
1370,-1.647974,0.732433,2.075227,-0.071412,0.045655,0.957534
1372,-6.103609,-5.859464,1.09865,-0.08105599999999999,0.039185000000000005,0.952285
1374,-10.925460000000001,-11.779964999999999,0.183108,-0.058595,0.013672,0.9788969999999999
1376,-17.395285,-20.325017000000003,2.563516,-0.07361000000000001,0.030396,0.861341
1378,-16.235599,-26.367590000000003,1.647974,-0.064088,0.06006,0.9952540000000001
1380,-17.090104999999998,-29.602502,0.244144,-0.040406,0.036744,1.104021
1382,-16.357671,-26.977951,-0.48828900000000003,-0.009155,0.015381,0.995132
1384,-14.221407999999998,-23.498894,-1.037613,0.036988,-0.001709,1.0156399999999999
1386,-15.808347,-17.029068,0.0,0.033448,0.009766,1.071916
1388,-14.709697,-11.596857,1.2207219999999999,0.022827,-0.010986,1.002213
1390,-14.526589000000001,-11.108568,1.2207219999999999,0.0074459999999999995,0.005005,0.972793
1392,-20.996414,-11.169604,0.366217,0.038087,0.024659,1.036759
1394,-23.926146,-9.765774,0.244144,0.018311,0.010376,0.980484
1396,-25.146867999999998,-8.667124000000001,1.586938,0.007324,-0.04065,1.007462
1398,-25.146867999999998,-8.545052,3.356985,0.024413999999999998,-0.027222000000000003,0.983902
1400,-28.747996999999998,-4.455634,5.61532,0.057374,-0.058227999999999995,1.037858
1402,-37.415122,4.638743,8.484016,-0.025513,0.010620000000000001,0.943008
1404,-42.542153000000006,1.159686,6.897078,-0.007568000000000001,-0.024781,1.005997
1406,-51.941711,0.061036,2.929732,0.000366,-0.070314,0.981949
1408,-45.105669,-1.09865,-11.596857,-0.046754000000000004,-0.050660000000000004,1.026017
1410,-75.806821,12.695506,-48.401617,0.083986,-0.169558,1.054337
1412,-29.602502,1.7700470000000001,-9.399557000000001,0.144533,-0.10962100000000001,1.077409
1414,-78.61448100000001,15.259022,-29.48043,0.092775,0.265263,0.933852
1416,-161.440452,16.479744,-16.113526999999998,-0.22497899999999998,0.318975,0.7269399999999999
1418,-374.57847000000004,-17.639429,-49.683375,0.11316099999999998,1.104631,1.7839630000000002
1420,-702.464332,-182.192721,59.693293999999995,-0.596689,-0.293462,1.369894
1422,-883.436332,-199.22179,124.51361899999999,0.9309219999999999,-2.0000310000000003,1.9999689999999999
1424,-41.321431,-43.823910999999995,-29.419394,-0.177493,-0.64918,1.9999689999999999
1426,81.544213,65.125505,-51.697565999999995,-0.43872700000000003,0.761364,1.9142139999999999
1428,-74.708171,-15.686275,63.111315000000005,-0.279667,0.32227100000000003,1.048722
1430,116.151675,-0.854505,33.508812,-0.083619,0.522835,0.520516
1432,83.92461999999999,-10.009917999999999,30.151827,0.07128999999999999,0.37293000000000004,1.068864
1434,156.740673,-4.699779,1.464866,0.166384,0.46656000000000003,1.113542
1436,204.776074,0.122072,-26.428626,0.12231600000000001,0.296757,0.989273
1438,221.805142,6.836042,-40.161746,-0.068727,0.14331300000000002,1.077409
1440,254.39841299999998,16.174563,-36.49958,-0.21741100000000002,0.038452999999999994,1.358541
1442,293.461509,24.96376,-24.353399,-0.108278,-0.060426,1.2867629999999999
1444,310.246433,36.072328000000006,-21.850919,0.11218399999999999,-0.150027,1.310567
1446,297.611963,77.943084,-36.682689,0.319585,-0.5672689999999999,0.354376
1448,211.062791,82.70389899999999,-40.344854,0.207156,-0.38709099999999996,0.618051
1450,180.178531,48.889905999999996,-41.931792,0.202396,-0.16809300000000002,1.9999689999999999
1452,265.934234,83.863584,-50.415808,0.105715,-0.562631,1.9999689999999999
1454,254.581521,84.046693,-39.856565,-0.071534,-0.758679,1.9999689999999999
1456,307.194629,60.66987099999999,-27.649348,0.121218,-0.913588,1.9101849999999998
1458,263.73693399999996,70.801862,-34.668498,0.611704,-0.7898069999999999,1.864164
1460,271.854734,65.06446899999999,-68.665599,0.722545,-0.8250860000000001,1.67422
1462,241.092546,59.63225799999999,-77.332723,0.208377,-1.299336,1.1734799999999999
1464,186.343175,43.762875,-48.401617,-0.012085,-1.9804990000000002,0.672862
1466,89.112688,72.327764,-38.025483,0.37793499999999997,-2.0000310000000003,0.43213599999999996
1468,35.278859000000004,97.596704,-25.452049,0.0028079999999999997,-2.0000310000000003,-0.36792600000000003
1470,-68.116274,-37.842374,55.359731000000004,-0.20642399999999997,-1.617823,0.42639799999999994
1472,-160.83009099999998,-111.63500400000001,42.90837,0.637339,-0.017212,0.9663229999999999
1474,-77.08857900000001,-63.599603,43.396658,-0.419074,1.307393,0.5786220000000001
1476,-296.635386,-114.99198899999999,82.764935,0.255131,-0.087037,-0.29639099999999996
1478,-278.812848,-58.960861,65.552758,1.4260469999999998,-0.211673,1.9999689999999999
1480,-153.933013,1.647974,-8.850233,0.684947,0.115602,1.982574
1482,-133.730068,-2.136263,19.226368,-1.8031279999999998,-0.389532,1.9999689999999999
1484,-54.13901,-102.17441099999999,49.92752,0.602182,0.47522700000000007,1.338766
1486,-60.059509999999996,-30.212863,11.963073,0.035157,0.075929,1.7745630000000001
1488,-38.147555,-68.055238,9.948882000000001,0.239384,0.19531500000000002,1.248432
1490,-40.650034000000005,-25.329976000000002,2.4414439999999997,-0.12854200000000002,-0.05139199999999999,1.198627
1492,-15.503166,-24.353399,-2.136263,0.146731,0.113649,1.089128
1494,-17.456321,-14.587625,-1.70901,0.046143,-0.020142,1.1030440000000001
1496,-8.728161,-3.6621650000000003,2.075227,0.035644999999999996,0.006592,0.9873200000000001
1498,-6.042573,1.8310830000000002,5.0049589999999995,0.036378,0.007324,0.9745020000000001
1500,-8.606088,1.70901,5.432212,-0.018067,0.057617999999999996,1.015885
1502,-12.817578,-2.2583349999999998,3.418021,-0.022705,0.059937,1.011978
1504,-7.385367,-4.943923000000001,1.09865,-0.00293,0.11767799999999999,1.01796
1506,-9.277485,-6.469825,2.2583349999999998,0.004028,0.072389,1.0529950000000001
1508,-7.080186,-1.40383,2.014191,0.020996,0.028808999999999998,1.0285799999999998
1510,-5.9205,0.366217,2.746624,-0.001953,0.08716,1.054337
1512,-6.958114,-0.732433,1.40383,0.004517,0.075685,1.031876
1514,-3.90631,-1.7700470000000001,0.366217,-0.002564,-0.0031739999999999997,0.889174
1516,-11.413748,-5.554284,1.037613,0.01648,0.06579700000000001,0.9990389999999999
1518,-13.855192,-4.882887,1.70901,0.009155,0.025147,1.009049
1520,-12.817578,-4.760815,1.525902,0.009033,0.057617999999999996,1.002213
1522,-13.061722999999999,-5.249104,1.2207219999999999,0.021485,0.019287000000000002,0.9622950000000001
1524,-13.855192,-5.737392,1.2207219999999999,0.025513,0.036378,0.9942780000000001
1526,-20.996414,-6.042573,2.014191,0.030396,-0.011719,1.00795
1528,-19.409476,-5.9205,0.976577,0.033082,-0.014527000000000002,1.027115
1530,-17.273213000000002,-5.188067,1.342794,0.014159999999999999,0.018555000000000002,0.9790190000000001
1532,-22.644388,-5.3101400000000005,2.50248,0.037232,0.0058590000000000005,0.957412
1534,-30.762188000000002,-3.051804,4.577707,0.026856,-0.028443,1.016251
1536,-28.564889,-2.746624,5.249104,0.009276999999999999,-0.0035399999999999997,0.953506
1538,-37.90341,-7.873655,2.685588,0.009644,-0.026978,1.069474
1540,-32.898451,-5.7984279999999995,-2.563516,0.069459,0.072145,0.967666
1542,-57.862211,-1.464866,0.30518,0.053712,-0.08215499999999999,0.992081
1544,-55.481804000000004,2.746624,-3.845274,0.011353,-0.014649,1.009415
1546,-52.918288000000004,1.09865,-26.367590000000003,-0.098268,-0.187137,0.9470360000000001
1548,-84.71809,5.493248,-49.256122999999995,0.22204899999999997,-0.358892,1.015152
1550,-58.594643999999995,10.681315,5.127031,0.061646000000000006,0.266361,0.9455709999999999
1552,-163.149462,25.635157,-4.577707,-0.048829000000000004,0.15332300000000001,0.614633
1554,-225.77248799999998,-24.292363,-7.568475,0.05127,1.024186,0.635019
1556,-541.6952769999999,-155.703059,28.686961,-0.685435,-0.02417,1.628931
1558,-715.892271,-235.904479,101.50301400000001,0.372076,-0.157961,1.1346610000000001
1560,-857.068742,-185.122454,198.91660900000002,-0.21875300000000003,-0.869764,1.9999689999999999
1562,208.74342,0.122072,-50.659953,0.002564,0.9900049999999999,1.9999689999999999
1564,60.914015,42.481117,-43.396658,-0.581918,0.717418,1.446555
1566,111.63500400000001,34.668498,-12.573433999999999,-0.40881999999999996,0.11096400000000001,0.626596
1568,107.42351399999998,42.603189,4.028382,-0.21765500000000002,0.219608,0.30041999999999996
1570,132.570382,37.415122,8.606088,-0.040162,0.194461,0.554208
1572,136.842908,28.015564,2.563516,0.11071900000000001,0.26318800000000003,0.8750129999999999
1574,179.324025,29.053178000000003,-13.061722999999999,0.156497,0.282597,1.277974
1576,223.94140499999997,38.330663,-27.405203000000004,0.176394,0.197879,1.5807129999999998
1578,266.544595,60.791943,-42.847333,0.32459,-0.106081,1.471458
1580,291.996643,77.63790300000001,-57.679103000000005,0.161868,-0.390387,1.347677
1582,296.757458,68.604562,-59.388113,0.28186500000000003,-0.47522700000000007,1.324239
1584,288.944839,70.008392,-71.778439,0.373785,-0.650523,1.036881
1586,244.99885600000002,64.759289,-76.722362,0.194583,-0.723644,0.874159
1588,199.588006,54.322118,-72.205692,0.049317,-0.597421,1.254292
1590,174.13595800000002,67.505913,-61.34126800000001,-0.042115,-0.501472,1.9999689999999999
1592,205.874723,93.629358,-46.631571,-0.106081,-0.673716,1.9999689999999999
1594,228.519112,101.197833,-21.850919,-0.11096400000000001,-0.811658,1.987457
1596,234.256504,104.615854,1.464866,0.143801,-0.814832,1.486839
1598,204.715038,93.812467,14.526589000000001,0.277592,-0.9087049999999999,1.327169
1600,178.652628,72.999161,23.498894,0.18457300000000001,-1.365866,1.247944
1602,142.702373,61.280232,29.297321999999998,0.607919,-2.0000310000000003,0.9713280000000001
1604,109.98703,115.785458,-17.090104999999998,0.758312,-2.0000310000000003,0.192142
1606,10.376135000000001,85.02327,4.455634,-0.232425,-2.0000310000000003,-1.395285
1608,-237.85763300000002,-229.861906,71.351186,1.313741,-0.7635609999999999,0.314092
1610,-109.681849,-87.220569,2.075227,-0.6320899999999999,1.339864,1.9999689999999999
1612,-277.89730699999996,-120.18005600000001,53.223468000000004,-0.28101,-0.381231,0.027955
1614,-267.582208,-85.999847,70.98496999999999,1.197406,0.015869,1.9999689999999999
1616,-149.538415,7.629511,-5.249104,0.543343,-0.177249,1.516869
1618,-104.493782,-64.332036,38.269627,-1.188006,-0.6993510000000001,1.596826
1620,-46.753643,-53.406577,18.310826000000002,1.472557,0.196536,1.85745
1622,-52.491035,-21.362631,14.953841,-0.5745939999999999,-0.026123,0.9504540000000001
1624,-32.654307,-23.437858,0.0,0.109133,0.08447400000000001,1.188251
1626,-7.141222,-24.96376,-3.1128400000000003,0.03003,0.023804,1.068498
1628,-30.395971999999997,-15.381094000000001,0.976577,-0.073487,-0.029419,1.062394
1630,-18.554971,-11.535821,0.671397,0.056764,0.041871,1.0127110000000001
1632,-18.24979,-8.239872,1.525902,0.052003,0.072267,1.019181
1634,-20.813306,-4.8218510000000006,1.8310830000000002,0.008789,-0.010131999999999999,1.061784
1636,-15.381094000000001,-2.685588,1.159686,0.001709,0.011475,1.0129549999999998
1638,-13.000687,-3.784237,0.48828900000000003,-0.014893,-0.000366,0.997818
1640,-16.906996,-4.699779,0.48828900000000003,-0.011353,-0.006836,1.0047760000000001
1642,-15.991454999999998,-4.455634,1.2207219999999999,0.0063479999999999995,-0.01294,0.9896389999999999
1644,-13.061722999999999,-1.586938,0.671397,0.022216999999999997,-0.028199000000000002,1.017594
1646,-11.902037,0.30518,1.09865,0.022216999999999997,-0.039796,1.028092
1648,-10.559242999999999,-0.061036,1.159686,-0.011475,-0.021851,0.9790190000000001
1650,-11.902037,-2.50248,0.671397,-0.009888,-0.025879000000000003,0.985977
1652,-11.963073,-3.295949,-0.122072,0.01648,-0.045777,1.02443
1654,-7.507439,-1.159686,0.427253,0.014649,-0.058595,1.038346
1656,-1.159686,0.671397,1.09865,0.000122,-0.049317,0.9973299999999999
1658,-3.479057,-0.549325,0.793469,0.000488,-0.030396,0.9876860000000001
1660,-4.699779,-1.281758,0.671397,0.0037840000000000005,-0.040894,1.000992
1662,-5.3101400000000005,-1.342794,0.671397,0.010986,-0.040894,0.9983059999999999
1664,-5.127031,-0.061036,0.854505,0.016724,-0.054565999999999996,1.013565
1666,-0.9155409999999999,1.953155,1.8310830000000002,-0.009766,-0.031495,1.0199129999999998
1668,-1.7700470000000001,0.6103609999999999,1.09865,-0.009644,-0.046265,0.9632719999999999
1670,-7.324331,-2.2583349999999998,0.0,0.018433,-0.025269,0.9748680000000001
1672,-13.855192,-2.136263,0.0,0.03003,-0.048219,0.999649
1674,-11.841001,-0.183108,0.976577,0.01294,-0.067628,0.9788969999999999
1676,-12.756542,-1.2207219999999999,0.427253,0.003296,-0.052247,0.997452
1678,-12.756542,-1.586938,-1.159686,0.0008550000000000001,-0.04712,1.0245520000000001
1680,-12.817578,-0.549325,-1.037613,0.015625,-0.054077999999999994,0.9991610000000001
1682,-13.916228,1.647974,0.061036,0.032349,-0.059937,1.01796
1684,-14.099336,6.225681,4.577707,0.035644999999999996,0.010864,0.972793
1686,-30.884259999999998,7.2022580000000005,5.0049589999999995,0.016724,-0.036011,1.014176
1688,-35.461967,9.887846000000001,4.577707,-0.014159999999999999,-0.036866,0.988907
1690,-34.363316999999995,9.765774,-2.624552,-0.098634,-0.048096,0.942641
1692,-26.001373,4.333562000000001,-18.432898,-0.039918,0.010376,0.8996719999999999
1694,-77.69894000000001,-12.390326,-26.733806,0.073976,-0.148074,1.022965
1696,-87.403677,-8.300908,-11.779964999999999,0.057862000000000004,0.009522,0.937026
1698,-134.889754,2.624552,-0.854505,-0.005493,-0.175174,1.01149
1700,-186.526284,-11.902037,-9.704738,0.077882,-0.007324,1.1148850000000001
1702,-279.911498,-24.353399,3.723201,-0.012818000000000001,-0.206058,1.175921
1704,-257.389181,-63.53856700000001,12.390326,-0.401984,0.417487,1.506249
1706,-236.148623,-75.19646,66.895552,-0.881727,0.185183,1.9999689999999999
1708,146.425574,21.850919,-27.100022999999997,-0.30847600000000003,0.570932,0.92604
1710,22.46128,1.342794,10.070953999999999,-0.159915,0.353277,0.8224
1712,118.95933500000001,1.8310830000000002,-7.080186,0.003296,0.46216499999999994,1.083024
1714,152.590219,19.592584,-20.630198,-0.031983,0.311772,1.058244
1716,177.126726,30.945296000000003,-21.240558,-0.21619000000000002,0.157595,0.8155640000000001
1718,194.888228,27.038987,-4.21149,-0.368658,0.004273,0.827527
1720,199.649043,34.851606,22.827497,-0.381353,-0.128176,0.894057
1722,197.695888,55.420768,44.92256,-0.205936,-0.214481,1.075456
1724,194.460975,65.491722,60.303655000000006,-0.0177,-0.387579,1.208148
1726,183.169299,69.764248,64.51514499999999,0.1991,-0.566415,1.1770200000000002
1728,157.41207,63.721675,64.637217,0.13196,-0.758679,1.077653
1730,124.940871,28.747996999999998,70.923934,0.139651,-0.976699,0.9066299999999999
1732,15.808347,-54.261081999999995,51.758602,-0.024659,-2.0000310000000003,-2.0000310000000003
1734,-588.021668,-226.749065,78.187228,0.5885100000000001,-2.0000310000000003,1.9999689999999999
1736,643.99176,35.400931,-46.875715,-0.360113,0.389288,1.9999689999999999
1738,-10.986496,34.851606,-77.45479499999999,-0.36230999999999997,0.968765,-0.157839
1740,-340.520333,-66.71244399999999,128.114748,0.42444499999999996,-1.039567,1.905303
1742,150.759136,6.897078,-34.79057,0.23108299999999998,0.25500900000000004,0.017334
1744,-87.64782199999999,-7.6905470000000005,15.014878,-0.117922,-0.14257999999999998,1.177386
1746,-17.883574,-5.371176,0.0,0.019532,0.06384400000000001,1.0283360000000001
1748,3.6011290000000002,-6.225681,-3.051804,0.038087,-0.020386,1.048844
1750,1.8310830000000002,-0.30518,0.0,-0.027344,-0.0063479999999999995,0.996109
1752,-2.014191,-1.586938,-0.244144,-0.016724,-0.008057,1.003067
1754,0.366217,-1.159686,-0.30518,0.005493,-0.027466,1.034318
1756,7.263294,0.9155409999999999,0.122072,-0.010498,0.007324,0.9663229999999999
1758,0.6103609999999999,-1.342794,-0.48828900000000003,-0.016724,0.03003,0.949722
1760,-5.0049589999999995,-2.929732,-0.9155409999999999,-0.005982,0.001709,0.999527
1762,-2.563516,-1.953155,-0.793469,-0.002441,-0.010376,1.0196690000000002
1764,-1.953155,-1.7700470000000001,-0.549325,0.0021969999999999997,-0.010986,1.020645
1766,2.136263,-0.732433,-0.671397,0.004761,0.002686,0.999649
1768,0.6103609999999999,-1.09865,-0.732433,-0.003662,-0.003296,1.0080719999999999
1770,2.136263,-0.366217,-0.671397,0.0008550000000000001,0.002686,0.997086
1772,1.7700470000000001,0.061036,-0.48828900000000003,0.007568000000000001,-0.005249,1.013565
1774,3.479057,2.075227,0.0,0.016602000000000002,-0.011719,1.033341
1776,8.239872,5.0049589999999995,0.671397,-0.005493,-0.004883,1.009049
1778,8.606088,5.249104,0.854505,-0.021118,0.017823,0.9709620000000001
1780,3.479057,3.418021,0.549325,-0.039796,0.049561,0.9275040000000001
1782,-5.676356,-0.549325,0.122072,-0.0008550000000000001,-0.000122,1.017227
1784,0.793469,2.075227,0.061036,0.004517,0.002075,1.013443
1786,2.014191,2.197299,0.671397,-0.028808999999999998,0.000366,1.017105
1788,2.563516,0.061036,0.427253,-0.033569999999999996,0.03772,0.953384
1790,-8.850233,-3.90631,1.09865,-0.032715,0.005371,0.981949
1792,-13.427939000000002,-8.239872,0.061036,0.029907999999999997,-0.016602000000000002,1.0472569999999999
1794,8.972305,-0.48828900000000003,0.30518,0.023072,0.003662,1.024674
1796,4.8218510000000006,1.7700470000000001,0.976577,-0.04065,0.024781,0.960708
1798,-0.183108,-2.380407,0.732433,-0.014649,-0.003662,1.058366
1800,1.09865,-2.014191,1.70901,-0.030518,0.049928,0.893812
1802,-7.568475,-10.376135000000001,-0.732433,0.0023190000000000003,-0.024537,1.008194
1804,8.667124000000001,-7.446403,-2.746624,0.052369000000000006,0.031617,1.0268709999999999
1806,-3.90631,-2.990768,-1.7700470000000001,0.003906,0.025269,0.991226
1808,-6.530861,0.366217,-0.793469,0.046754000000000004,-0.036255,1.082414
1810,3.356985,8.239872,1.342794,-0.045411,0.046508999999999995,0.8993059999999999
1812,-7.751583,-2.197299,-0.549325,-0.027222000000000003,0.009276999999999999,0.987808
1814,-1.342794,-0.976577,-1.037613,0.049561,-0.025757,1.075212
1816,1.40383,4.943923000000001,1.037613,-0.010131999999999999,0.010498,1.006363
1818,0.427253,2.014191,-0.244144,-0.000488,0.027344,0.976089
1820,-4.5166699999999995,2.075227,0.48828900000000003,-0.000488,0.011963,0.981827
1822,-7.446403,-1.953155,0.122072,-0.027710000000000002,0.010864,0.9873200000000001
1824,-2.380407,-2.929732,-1.09865,-0.00293,-0.004028,1.013809
1826,-2.563516,-2.197299,-0.9155409999999999,-0.002441,0.0177,0.993057
1828,-5.127031,-2.136263,-1.037613,0.0031739999999999997,-0.000122,1.007584
1830,-3.1128400000000003,-1.281758,-0.793469,-0.014405000000000001,0.008179,0.9823149999999999
1832,-2.746624,-2.990768,-1.037613,-0.010376,-0.0015869999999999999,1.010269
1834,1.09865,-0.6103609999999999,-0.671397,0.0028079999999999997,-0.000732,1.023819
1836,-2.319371,0.427253,0.0,-0.016846,-0.001465,1.003067
1838,0.061036,0.244144,-0.366217,-0.00415,0.012695999999999999,0.9939120000000001
1840,0.6103609999999999,-0.122072,-0.48828900000000003,-0.009766,0.007201999999999999,0.989395
1842,1.8310830000000002,-0.549325,-0.671397,-0.005005,-0.002441,0.99855
1844,-2.2583349999999998,-0.244144,-0.976577,-0.006958,0.008911,0.966567
1846,-5.737392,1.037613,-3.1128400000000003,0.003296,0.004273,1.009049
1848,-2.80766,2.624552,-7.751583,-0.057496000000000005,0.007201999999999999,0.9286030000000001
1850,3.90631,1.464866,-0.48828900000000003,-0.029419,0.018677000000000003,0.9632719999999999
1852,-1.40383,-0.061036,0.0,-0.020630000000000003,-0.0094,1.002823
1854,2.136263,-0.793469,1.159686,-0.016358,-0.014405000000000001,1.010513
1856,2.319371,-1.464866,2.50248,0.000122,-0.000366,0.9994049999999999
1858,-0.6103609999999999,-1.342794,1.8921189999999999,-0.000244,0.003418,0.9956209999999999
1860,2.075227,1.037613,-0.48828900000000003,-0.017334,0.009276999999999999,0.9906159999999999
1862,0.793469,0.9155409999999999,0.0,-0.012329000000000001,0.0058590000000000005,0.997208
1864,-1.647974,-0.244144,-0.549325,-0.005493,-0.014527000000000002,1.0167389999999998
1866,0.427253,-0.183108,-0.427253,-0.002441,-0.020630000000000003,1.013077
1868,-0.427253,-0.427253,0.0,-0.009888,0.025025,0.9740139999999999
1870,-5.0049589999999995,-0.976577,-0.183108,-0.009644,-0.002075,1.0046540000000002
1872,-0.122072,-0.366217,0.183108,-0.0043950000000000005,-0.01648,0.95314
1874,-0.48828900000000003,-0.9155409999999999,-0.30518,-0.016724,0.000488,1.01149
1876,3.051804,-1.159686,-0.183108,-0.016114,0.0,0.995865
1878,0.061036,-1.159686,-0.122072,-0.010376,0.0021969999999999997,1.00148
1880,0.671397,-0.976577,0.122072,-0.006836,-0.000977,0.993423
1882,-0.671397,-1.09865,0.732433,-0.004761,0.001099,1.005509
1884,-0.671397,-0.48828900000000003,0.854505,-0.00061,-0.003662,1.002945
1886,4.8218510000000006,0.183108,0.671397,0.005737,0.000244,1.007584
1888,1.647974,-0.244144,0.427253,-0.006104,0.011597,0.985245
1890,-0.854505,-1.037613,-0.793469,0.027955,0.024903,1.013321
1892,-3.051804,-0.732433,-0.549325,0.001831,-0.001953,0.9867090000000001
1894,2.014191,-0.9155409999999999,0.0,0.009033,0.022583000000000002,0.95021
1896,-3.234913,-1.464866,0.549325,0.003296,-0.011963,1.01442
1898,0.732433,-0.183108,0.48828900000000003,-0.004028,0.0021969999999999997,1.004532
1900,1.70901,0.366217,0.122072,-0.014649,0.004761,1.005631
1902,-3.356985,-0.671397,-0.244144,-0.016846,-0.008057,0.998917
1904,-1.40383,-1.037613,0.183108,-0.011597,0.001343,0.995865
1906,-2.197299,-0.549325,0.061036,-0.006958,0.006714,0.9876860000000001
1908,-3.845274,-0.427253,0.244144,-0.00293,-0.0008550000000000001,0.999527
1910,-2.929732,-0.244144,0.0,-0.01001,0.001099,0.996719
1912,-3.6011290000000002,-1.40383,-0.244144,-0.01001,0.001465,1.002457
1914,-0.244144,-0.976577,-0.854505,-0.0031739999999999997,0.000732,1.003555
1916,1.8310830000000002,0.48828900000000003,-2.50248,-0.015503,-0.017334,0.980606
1918,1.953155,-1.40383,0.0,-0.002441,0.002564,0.988663
1920,-10.009917999999999,-2.624552,0.48828900000000003,-0.008667,0.001953,1.013199
1922,-3.356985,-1.8310830000000002,0.0,0.007324,-0.011109,1.006607
1924,-0.976577,-0.793469,0.0,-0.013428,-0.010742,1.0127110000000001
