Packet number,Gyroscope X (deg/s),Gyroscope Y (deg/s),Gyroscope Z (deg/s),Accelerometer X (g),Accelerometer Y (g),Accelerometer Z (g)
0,-0.305180,-0.488289,0.000000,-0.005493,0.008057,0.996109
1,-0.183108,-0.488289,0.000000,-0.003174,0.004273,1.005509
2,-0.061036,-0.488289,-0.183108,-0.004273,0.006348,0.992081
3,-0.549325,-0.671397,0.000000,-0.004028,0.004761,0.994156
4,0.061036,-0.549325,0.000000,-0.001221,0.007935,0.991104
5,-0.915541,-0.671397,0.000000,-0.000977,0.010254,0.993912
6,-1.098650,-0.549325,-0.122072,0.000855,0.005859,0.993668
7,-0.854505,-0.549325,-0.122072,0.000122,0.010986,1.008438
8,-1.342794,-0.488289,0.000000,-0.003662,0.007568,0.998428
9,-0.854505,-0.427253,0.000000,0.002808,0.010254,0.996719
10,-0.976577,-0.366217,0.000000,-0.000855,0.005249,0.995010
11,-0.488289,-0.366217,0.000000,0.002075,0.004517,0.997818
12,-0.366217,-0.366217,0.000000,-0.002564,0.004150,0.994034
13,-0.488289,-0.427253,0.000000,-0.008667,0.007446,0.995499
14,-0.305180,-0.488289,0.000000,-0.001587,0.008911,0.999039
15,-0.183108,-0.305180,-0.122072,-0.010376,0.005249,0.999893
16,-0.305180,-0.366217,-0.122072,-0.000122,0.009888,1.003555
17,-0.122072,-0.427253,-0.122072,-0.003296,0.007202,0.996841
18,-0.305180,-0.549325,0.000000,-0.002319,0.008667,0.994156
19,-0.732433,-0.610361,0.000000,-0.002808,0.005982,0.992935
20,-0.305180,-0.488289,-0.183108,-0.003906,0.011231,0.992691
21,-1.709010,-0.610361,0.000000,0.000610,0.000000,1.007706
22,-0.427253,-0.305180,-0.122072,-0.000732,0.003418,1.002213
23,-0.732433,-0.183108,0.000000,-0.005737,0.008545,1.002701
24,-0.488289,-0.244144,0.000000,0.000366,0.004639,1.007340
25,-0.305180,-0.061036,0.000000,-0.006592,0.000244,1.000259
26,-0.183108,-0.061036,0.000000,-0.003662,0.006470,0.994156
27,0.000000,0.000000,0.000000,-0.004028,0.002564,0.994156
28,-0.366217,-0.366217,0.000000,-0.005859,0.006348,0.994522
29,0.000000,-0.366217,-0.122072,-0.001709,0.009522,0.996231
30,-0.610361,-0.610361,0.000000,-0.010010,0.013184,0.999039
31,-0.488289,-0.671397,-0.122072,-0.003540,0.009277,0.999527
32,-0.427253,-0.671397,-0.122072,-0.005127,0.008545,0.995865
33,-0.793469,-0.793469,-0.122072,-0.005982,0.014160,0.994156
34,-1.098650,-0.793469,-0.183108,0.001953,0.007080,0.995132
35,-1.464866,-0.671397,-0.122072,-0.000610,0.004273,1.002213
36,-0.976577,-0.549325,0.000000,-0.000732,0.009766,1.004776
37,-1.403830,-0.549325,0.000000,-0.002319,0.003052,1.003311
38,-0.610361,-0.427253,0.000000,-0.002319,0.005005,1.000748
39,-0.976577,-0.549325,0.000000,-0.002075,0.002564,1.009415
40,-0.488289,-0.610361,0.000000,0.002075,0.005493,1.000626
41,-0.549325,-0.549325,0.000000,-0.002808,0.006104,0.994400
42,-0.488289,-0.732433,-0.122072,-0.004883,0.009155,1.003433
43,-0.427253,-0.732433,-0.122072,-0.004883,0.002075,1.004410
44,-0.305180,-0.854505,-0.244144,-0.004273,0.003540,1.001968
45,-0.427253,-0.976577,-0.122072,-0.001587,0.006348,1.003433
46,-0.488289,-0.976577,-0.122072,-0.002808,0.010742,1.004166
47,-0.549325,-0.915541,-0.183108,-0.006958,-0.003540,1.001236
48,-0.427253,-0.915541,0.000000,-0.003540,0.011719,0.997940
49,-0.854505,-1.037613,-0.244144,-0.004273,0.005615,0.994644
50,-0.610361,-1.159686,-0.244144,-0.000244,0.005127,0.998795
51,-0.488289,-1.037613,-0.183108,-0.000855,0.003906,1.004776
52,-0.244144,-0.915541,-0.122072,0.001587,0.002686,1.018692
53,0.427253,-0.244144,0.000000,-0.010254,0.000244,1.012467
54,1.953155,-0.305180,0.122072,0.013306,-0.008179,1.016373
55,3.662165,0.183108,0.061036,-0.007446,-0.005737,1.029435
56,5.188067,-0.122072,0.244144,0.000000,-0.011231,1.032609
57,7.812619,0.366217,0.122072,-0.014649,-0.006470,1.006241
58,9.704738,0.061036,0.122072,0.022950,0.008179,1.053849
59,12.817578,-0.122072,-0.366217,-0.017334,0.032837,0.993301
60,7.995727,-1.586938,-0.244144,-0.004761,0.024414,0.974746
61,8.972305,-1.831083,-0.732433,-0.010620,0.019898,0.982925
62,7.080186,-2.563516,-0.671397,0.004517,0.024048,0.983413
63,6.164645,-2.380407,-0.610361,-0.003540,0.020142,0.998306
64,6.652934,-2.380407,-0.427253,0.001343,0.021485,0.994034
65,6.103609,-2.014191,-0.488289,0.004883,0.019165,0.987686
66,5.859464,-1.770047,-0.488289,0.002930,0.026734,1.003922
67,6.286717,-2.136263,-0.183108,0.001831,0.028931,0.982559
68,5.981537,-2.075227,-0.549325,-0.000610,0.031373,0.993057
69,5.188067,-2.258335,-0.549325,-0.001587,0.030030,0.995621
70,4.638743,-2.380407,-0.732433,0.010742,0.025513,1.000626
71,5.371176,-1.647974,-1.037613,0.012818,0.030884,0.989273
72,4.699779,-1.342794,-1.220722,0.007813,0.033082,1.001968
73,4.638743,-0.976577,-1.525902,0.009644,0.018799,0.997330
74,4.882887,-1.586938,-0.976577,0.003662,0.029786,0.985489
75,3.295949,-1.159686,-0.732433,0.012085,0.040406,0.991958
76,3.662165,-0.610361,-0.915541,-0.004273,0.027832,0.992081
77,3.356985,-1.037613,-0.305180,0.006226,0.030274,0.993545
78,3.356985,-0.854505,-0.305180,0.000000,0.035889,0.991470
79,2.685588,-0.793469,-0.183108,0.008057,0.039185,0.996109
80,2.502480,-0.549325,-0.122072,-0.006104,0.042603,0.992447
81,1.831083,-0.976577,0.122072,-0.001465,0.039063,0.981949
82,1.464866,-1.342794,0.244144,0.003418,0.036988,0.996841
83,1.342794,-1.525902,0.183108,-0.002197,0.037598,0.992935
84,1.770047,-1.647974,0.244144,0.009888,0.037354,0.996841
85,1.770047,-1.342794,0.488289,0.013672,0.032227,1.003677
86,3.051804,-0.793469,0.671397,-0.006714,0.029786,1.006119
87,3.295949,-0.976577,0.732433,0.010376,0.019532,0.978408
88,3.479057,-1.281758,0.732433,0.003418,0.047364,0.973281
89,2.380407,-1.525902,0.671397,0.006104,0.057984,0.927871
90,-1.831083,-1.464866,0.366217,0.004761,0.058595,0.984756
91,-3.784237,-0.305180,0.305180,0.003540,0.018067,1.006607
92,-0.671397,-0.061036,0.671397,0.019043,-0.004395,1.018082
93,3.234913,1.831083,0.976577,0.030884,0.025391,1.043595
94,5.676356,2.685588,1.464866,-0.012207,0.024414,1.018570
95,7.812619,1.770047,1.342794,0.003418,0.026612,1.000626
96,8.911269,2.197299,1.403830,0.005982,0.051270,0.992813
97,6.958114,1.647974,1.403830,-0.011475,0.042359,0.992447
98,8.850233,1.464866,0.854505,0.002441,0.083864,0.938491
99,1.892119,0.854505,0.549325,0.001831,0.059815,0.981949
100,2.197299,0.854505,0.305180,0.008179,0.047974,1.004532
101,2.197299,1.647974,0.122072,0.004150,0.063966,0.989883
102,0.366217,1.525902,0.366217,-0.022461,0.044556,0.992447
103,1.525902,0.549325,0.122072,-0.004639,0.053468,0.992691
104,0.793469,-0.244144,0.061036,-0.009888,0.050904,0.990738
105,1.342794,-0.976577,-0.244144,-0.007324,0.057130,0.982193
106,-0.244144,-1.647974,-0.366217,-0.000610,0.058839,0.976089
107,-1.220722,-1.953155,-0.732433,0.001343,0.063111,0.979751
108,-3.173877,-2.014191,-0.732433,0.007446,0.057130,0.980117
109,-3.234913,-1.892119,-0.793469,0.011475,0.050416,0.994888
110,-3.662165,-1.464866,-0.610361,0.021363,0.039551,1.018570
111,-2.014191,-0.061036,-0.610361,0.022827,0.038453,1.019669
112,-0.671397,1.403830,-0.549325,0.016480,0.041627,1.014054
113,-0.427253,2.441444,-0.366217,0.007080,0.037842,1.012833
114,0.671397,3.234913,-0.183108,-0.000244,0.043458,1.013931
115,1.464866,4.028382,-0.183108,-0.008789,0.051637,0.991714
116,1.342794,3.479057,0.000000,-0.025025,0.064698,0.976455
117,-0.366217,2.441444,0.183108,-0.012085,0.049561,0.984146
118,-0.122072,1.709010,0.000000,-0.013184,0.049073,0.968643
119,-1.464866,0.427253,0.000000,-0.018067,0.061158,0.998428
120,-1.647974,-0.244144,0.000000,-0.004028,0.036378,1.008927
121,-0.244144,-0.061036,-0.244144,-0.004028,0.051148,0.979263
122,-1.037613,-0.793469,-0.183108,-0.010010,0.061036,0.986954
123,-1.892119,-1.220722,-0.244144,-0.007568,0.051148,0.984268
124,-1.953155,-1.342794,-0.305180,-0.008301,0.061891,0.968887
125,-4.516670,-2.136263,-0.244144,-0.014160,0.058595,0.962539
126,-5.371176,-2.624552,-0.244144,-0.010254,0.059815,0.963516
127,-7.568475,-3.601129,-0.244144,-0.005371,0.062257,0.963760
128,-9.338521,-4.455634,-0.366217,-0.009155,0.050294,0.982315
129,-9.765774,-5.065995,-0.488289,-0.002930,0.042359,0.987686
130,-8.972305,-5.371176,-0.488289,-0.002075,0.048219,0.976211
131,-10.742351,-6.286717,-0.427253,-0.020508,0.042481,0.981094
132,-9.948882,-7.263294,-0.549325,0.018555,0.051270,0.973281
133,-11.535821,-7.873655,-0.488289,0.000488,0.052491,0.947890
134,-12.695506,-8.117800,-0.793469,0.011475,0.040894,0.968032
135,-14.038300,-8.178836,-0.488289,0.028809,0.046509,1.025895
136,-13.977264,-7.080186,-0.122072,0.024903,0.031617,0.990494
137,-14.587625,-5.859464,0.000000,0.022827,0.030884,0.957900
138,-17.212177,-6.286717,0.488289,0.006836,0.043702,0.955581
139,-21.789883,-7.446403,0.976577,0.001587,0.026612,0.983413
140,-22.522316,-8.056764,1.220722,0.010376,0.023072,0.974136
141,-23.376822,-7.995727,1.342794,0.018799,0.026856,0.981949
142,-25.818265,-7.934691,2.014191,0.009400,0.035523,0.977554
143,-30.395972,-8.117800,2.319371,0.013550,0.032471,0.953994
144,-33.508812,-8.911269,2.563516,-0.002930,0.015747,0.949233
145,-37.659266,-9.826810,3.356985,0.013184,-0.000610,0.975479
146,-38.513771,-8.972305,3.601129,0.029541,-0.072877,1.006485
147,-34.729534,-9.094377,4.943923,0.003418,-0.036744,1.064836
148,-29.358358,-7.934691,5.249104,0.004273,-0.033692,0.990860
149,-32.654307,-9.277485,6.164645,0.020264,0.027466,0.989639
150,-31.799802,-6.408789,4.699779,0.128664,0.114137,0.968765
151,-50.720989,-4.821851,3.356985,-0.054932,0.035645,1.112078
152,-54.993515,-2.807660,2.868696,0.058717,-0.071412,1.007218
153,-46.509499,-0.915541,-0.915541,-0.013672,-0.018433,0.999771
154,-46.814679,-1.220722,-2.929732,0.015381,-0.047242,1.032486
155,-46.509499,-1.403830,-4.394598,-0.034302,-0.029786,0.997208
156,-48.096437,-3.967346,-9.155413,-0.031495,-0.053956,0.995743
157,-50.904097,-3.601129,-19.348440,-0.079225,-0.046632,1.188861
158,-62.073701,3.540093,-32.593271,0.099855,-0.056275,0.815930
159,-73.304341,10.803388,-33.142596,0.142458,-0.236576,1.054948
160,-56.519417,9.765774,-8.117800,0.069947,-0.172732,1.077409
161,-51.270314,2.990768,-5.493248,0.069337,-0.124636,1.023941
162,-55.298695,3.295949,-3.540093,0.083986,-0.066163,1.026505
163,-70.496681,9.338521,-2.380407,-0.001953,0.044434,0.961563
164,-99.610895,11.474784,-8.300908,0.077028,0.016480,0.958389
165,-104.493782,7.080186,2.807660,0.040406,-0.095338,0.759899
166,-110.719463,6.530861,16.418708,-0.037842,0.354376,0.765026
167,-129.274434,-19.714656,-0.610361,-0.266484,0.382696,1.042985
168,-229.495689,-25.513085,3.723201,0.234989,0.713268,0.618662
169,-394.720378,-20.141909,-0.671397,-0.014893,0.085206,1.259785
170,-511.055161,-49.927520,30.518044,-0.198734,0.228031,1.731960
171,-544.441901,-68.055238,2.014191,-0.153201,-0.033936,1.127825
172,-638.498512,-89.051652,9.826810,-0.142092,-0.095216,1.199115
173,-696.055543,-110.109102,39.002060,0.085451,-1.782864,1.999969
174,-756.969558,-26.306554,193.423362,-1.545312,0.037476,1.999969
175,-99.916075,-27.893492,9.521630,-0.697642,-1.106950,1.999969
176,317.143511,10.193027,-1.709010,-0.685069,0.718273,1.999969
177,152.712291,25.879301,-17.334249,-0.237308,0.667735,1.148333
178,-10.681315,-23.620966,62.806134,-0.286381,0.722667,0.384527
179,-55.786984,-40.405890,57.251850,0.155886,0.393683,0.544808
180,47.791257,-2.197299,18.066682,0.159792,0.477302,0.788708
181,44.861524,20.202945,-3.967346,0.253666,0.639902,0.707164
182,10.498207,34.790570,-12.817578,0.135622,0.507698,0.930190
183,47.669184,37.842374,-24.292363,0.020508,0.463386,1.027726
184,77.027543,24.292363,-27.038987,-0.089113,0.525887,1.019547
185,86.366064,2.868696,-23.132677,-0.147097,0.482063,1.155779
186,116.700999,-6.103609,-20.325017,-0.131960,0.482429,1.317891
187,143.434806,-3.356985,-19.104295,-0.131960,0.474739,1.349508
188,165.651942,5.920500,-18.982223,-0.126833,0.393072,1.306905
189,189.089799,18.005646,-18.799115,-0.142580,0.317021,1.228901
190,206.179904,24.780652,-16.052491,-0.147219,0.243534,1.112444
191,219.913024,25.268940,-11.657893,-0.135012,0.181277,1.041886
192,228.091859,19.958801,-6.591897,-0.091066,0.143313,1.051774
193,236.697948,11.413748,-2.197299,-0.036133,0.171389,1.136370
194,244.815747,2.197299,-2.502480,0.052125,0.172366,1.287495
195,255.741207,-0.183108,-7.568475,0.126589,0.171145,1.481956
196,268.009461,9.277485,-16.235599,0.149905,0.100832,1.462669
197,273.258564,24.048219,-26.916915,0.152834,-0.063844,1.182147
198,265.079728,40.527962,-37.537194,0.119142,-0.254887,0.921401
199,246.341650,56.458381,-41.199359,-0.012207,-0.293584,0.989151
200,225.528344,57.068742,-40.344854,-0.092897,-0.281865,1.298726
201,222.598611,53.955901,-37.842374,-0.058961,-0.228397,1.628077
202,221.560998,55.725948,-37.659266,0.020996,-0.262211,1.861112
203,221.988251,65.552758,-36.804761,0.051637,-0.331426,1.918364
204,223.453117,68.848707,-38.391699,0.048585,-0.468147,1.801541
205,218.509194,77.515831,-39.551385,0.046143,-0.583627,1.685939
206,200.076295,84.779126,-37.232013,0.003906,-0.726940,1.652613
207,188.052186,83.131151,-32.471199,-0.027100,-0.868666,1.631983
208,186.648356,72.327764,-25.818265,-0.090578,-0.886610,1.810697
209,184.634165,55.054551,-14.953841,-0.134768,-0.881605,1.999969
210,202.700847,44.129091,-4.272526,-0.118898,-0.895033,1.999969
211,231.204700,51.575494,2.746624,0.049195,-0.842176,1.999969
212,239.017319,65.003433,7.385367,0.267948,-0.831922,1.903227
213,244.754711,68.909743,8.239872,0.348150,-0.883925,1.517967
214,240.665293,63.599603,9.033341,0.394903,-0.920058,1.286030
215,226.321813,53.833829,11.047532,0.333989,-1.023941,1.139055
216,214.785992,40.344854,14.343481,0.197879,-1.157000,0.996475
217,198.001068,28.442817,18.432898,0.057984,-1.353414,0.777722
218,171.511406,24.902724,23.865110,-0.031250,-1.575341,0.635142
219,138.429847,30.457008,28.992142,0.029053,-1.864775,0.269291
220,96.375982,46.814679,26.672770,0.170413,-2.000031,-0.006226
221,42.542153,61.341268,17.761501,0.152590,-2.000031,0.104860
222,6.347753,65.980011,18.127718,0.030762,-2.000031,0.254643
223,-21.545739,49.134051,31.189441,-0.103029,-1.778592,0.365240
224,-58.838788,10.681315,48.218509,-0.163821,-2.000031,-2.000031
225,-205.935760,-92.896925,86.305028,0.251835,-1.359274,-0.610605
226,-272.770275,-124.208438,79.285878,0.567636,-0.970352,0.685435
227,-132.082094,-88.197147,40.466926,0.182254,0.586679,1.999969
228,-154.116121,-83.619440,40.711070,0.195926,1.110369,1.999969
229,-229.190509,-79.835203,48.950942,0.358892,0.220584,0.657359
230,-249.027237,-78.370336,43.152514,0.595590,-0.366949,0.569223
231,-248.783093,-58.777752,38.452735,0.723156,-0.056153,1.999969
232,-226.626993,-18.371862,26.977951,0.835706,-0.019287,1.999969
233,-161.440452,21.179522,1.647974,0.445075,-0.226444,1.716823
234,-118.471046,46.753643,-5.004959,-0.624521,-0.069581,1.219501
235,-188.235294,-26.733806,30.151827,-1.487816,-0.483894,1.999969
236,-87.403677,-103.944457,48.828870,-0.318486,-0.168704,1.924468
237,-40.588998,-111.451896,20.263981,1.590356,0.370367,1.999969
238,-50.110628,-25.024796,3.356985,0.715099,0.030152,1.268452
239,-58.899825,-4.577707,3.051804,-0.888685,-0.067140,1.043839
240,-59.327077,-52.857252,10.070954,0.031983,-0.029908,1.267231
241,-20.569162,-35.217823,-2.075227,0.515755,0.091310,1.508812
242,-30.823224,-14.465553,2.014191,-0.142947,-0.047974,1.115984
243,-7.507439,-21.850919,0.122072,-0.069459,-0.007568,1.001602
244,-3.906310,-21.789883,-2.136263,0.113771,0.133913,0.946181
245,-26.245518,-18.371862,1.525902,-0.040528,0.025635,1.019669
246,-11.413748,-16.235599,-1.098650,0.111940,-0.107424,0.875746
247,-12.512398,-11.474784,1.342794,0.119387,0.084108,1.089006
248,-17.273213,-5.737392,3.662165,0.021485,0.038209,0.986954
249,-11.841001,-3.967346,3.356985,0.042969,0.049439,0.967178
250,-17.517357,-3.601129,4.028382,0.015137,0.034424,1.028458
251,-13.061723,-3.540093,3.418021,0.024414,0.034791,0.986343
252,-10.070954,-3.601129,1.159686,-0.020020,0.075441,1.029068
253,-13.305867,-3.967346,1.831083,-0.004883,0.084108,0.995621
254,-16.601816,-5.065995,1.464866,-0.035279,0.029297,0.968887
255,-13.183795,-6.530861,1.709010,0.010254,0.096437,1.036393
256,-13.488975,-6.836042,1.709010,0.016968,0.072267,1.014542
257,-12.756542,-6.958114,1.586938,0.001099,0.067994,1.014908
258,-10.193027,-7.019150,1.342794,0.018433,0.022339,1.032242
259,-8.606088,-6.286717,0.427253,0.044068,-0.008911,0.974136
260,-7.995727,-5.310140,0.671397,0.017334,0.071656,1.060197
261,-5.737392,-4.333562,0.183108,0.030518,0.003296,0.957168
262,-7.507439,-4.394598,0.000000,0.012818,0.072633,1.022110
263,-7.019150,-4.211490,0.000000,0.011231,0.018433,0.953750
264,-8.056764,-5.249104,0.183108,0.010986,0.030884,0.986709
265,-9.887846,-5.798428,0.183108,0.004883,0.045655,0.975601
266,-11.596857,-6.897078,0.122072,0.007691,0.029541,0.969986
267,-12.939651,-7.568475,-0.122072,0.031495,0.007568,0.989029
268,-12.878614,-7.629511,-0.366217,0.028443,0.023926,1.005264
269,-12.634470,-7.812619,-1.098650,0.026123,0.029175,0.993545
270,-13.488975,-8.117800,-1.525902,0.018311,0.024537,0.969619
271,-14.770733,-8.606088,-1.770047,0.038331,0.020020,1.003799
272,-16.540780,-7.507439,-1.403830,0.051148,0.002686,0.988663
273,-18.127718,-6.408789,-0.244144,0.032227,0.001831,0.966079
274,-18.982223,-5.859464,0.793469,0.036255,0.014160,0.978164
275,-20.691234,-5.065995,1.342794,0.013184,0.001099,0.979751
276,-22.766461,-5.676356,2.258335,0.037110,0.005371,0.990372
277,-22.949569,-5.798428,2.929732,0.047364,0.006348,0.946426
278,-27.038987,-6.103609,2.868696,0.012818,0.014038,0.969986
279,-30.762188,-7.995727,2.502480,0.020386,-0.011353,0.945693
280,-28.931106,-9.277485,3.051804,0.057740,0.050172,1.036149
281,-34.729534,-4.638743,2.014191,0.083131,0.000122,1.088273
282,-35.706111,-1.342794,1.159686,0.022339,-0.038087,1.003311
283,-35.095750,-1.525902,1.892119,0.040040,-0.027832,0.999405
284,-36.438544,-0.915541,3.234913,0.035401,-0.035401,0.986343
285,-33.447776,0.915541,5.920500,0.091798,0.014649,0.966079
286,-53.711757,5.371176,8.850233,0.025757,-0.018433,1.019425
287,-53.833829,4.943923,9.948882,0.012451,-0.055055,0.984634
288,-45.654994,3.967346,6.347753,-0.020264,-0.004639,0.984512
289,-55.970092,0.976577,2.685588,-0.033204,-0.046632,0.994034
290,-52.674144,-2.746624,-5.127031,-0.040894,-0.071290,1.070451
291,-44.495308,-2.441444,-21.728847,-0.065309,-0.103517,0.952285
292,-60.975052,2.075227,-52.674144,0.019043,-0.003052,0.961440
293,-51.392386,-4.211490,-52.735180,0.110231,-0.366583,1.094011
294,-16.845960,-11.169604,-23.682002,0.213016,-0.291752,1.001480
295,-2.624552,-9.033341,-1.220722,0.111696,-0.111330,1.099382
296,-28.503853,1.709010,2.746624,0.087892,0.113893,1.121721
297,-75.501640,18.249790,-13.611048,0.185183,0.189944,1.001358
298,-113.466087,34.668498,-9.765774,0.075319,0.368170,0.866957
299,-171.816587,37.781338,-12.207218,-0.140017,0.506722,0.790539
300,-231.265736,3.479057,-20.508125,-0.323735,0.385992,0.027222
301,-282.475013,-36.072328,25.757229,0.010010,1.018204,1.299458
302,-530.220493,-61.097124,-17.334249,0.123537,0.321294,1.146624
303,-735.545892,-136.842908,44.739452,-0.142947,0.180301,1.481224
304,-860.486763,-168.642710,77.515831,0.095583,0.089601,1.307149
305,-959.304189,-153.261616,99.671931,0.513436,0.011475,1.222919
306,-1216.632334,-180.483711,190.249485,-0.229252,-0.909438,1.999969
307,-340.886549,-21.240558,32.227054,-0.540414,-0.930190,1.999969
308,358.342870,53.955901,-119.447623,-0.060670,1.184344,1.999969
309,313.420310,51.209277,-121.705959,-0.408087,1.628687,1.360494
310,99.305715,6.897078,-97.840848,-0.862806,0.659556,1.063859
311,-12.512398,-72.083619,-1.464866,-0.678965,0.425422,0.194461
312,10.803388,-81.239033,8.178836,-0.460456,0.167483,0.394293
313,116.029603,-54.016938,-12.390326,-0.492805,0.247684,0.584970
314,109.803922,-29.968719,-6.591897,-0.422858,0.472297,0.693126
315,79.346914,-8.545052,2.685588,-0.497810,0.336675,1.031022
316,124.391547,11.841001,6.225681,-0.525521,0.294194,1.213764
317,162.722210,17.639429,13.977264,-0.539925,0.339361,1.156023
318,175.967041,11.596857,25.940337,-0.501961,0.264897,1.180072
319,204.409857,12.268254,33.875029,-0.415412,0.212894,1.193866
320,228.824292,20.752270,38.086519,-0.325322,0.168215,1.121111
321,239.627680,31.738766,41.138323,-0.233036,0.093263,1.124529
322,251.956970,39.307240,43.274586,-0.130861,0.010864,1.081071
323,265.201801,41.870756,42.298009,0.014038,-0.017334,1.047013
324,273.441672,41.565576,37.109941,0.196414,0.017700,1.084855
325,278.629740,43.091478,26.672770,0.361334,0.060182,1.247456
326,286.442359,47.669184,9.826810,0.484871,0.067018,1.480247
327,298.100252,54.383154,-9.399557,0.551888,-0.006470,1.552270
328,308.964675,60.547799,-27.588312,0.545907,-0.204105,1.274556
329,310.368505,64.454108,-43.640803,0.566659,-0.342535,0.859266
330,292.607004,67.383841,-58.899825,0.601205,-0.364385,0.721691
331,262.394141,64.698253,-71.961547,0.616220,-0.306401,0.831434
332,237.003128,56.214237,-84.534981,0.563851,-0.218997,1.254658
333,221.011673,52.613108,-96.314946,0.426642,-0.199100,1.880400
334,216.372931,59.449149,-102.479591,0.260502,-0.289189,1.999969
335,233.279927,70.618753,-105.226215,0.094118,-0.516976,1.999969
336,259.769589,82.642863,-102.113375,-0.071901,-0.716686,1.999969
337,265.140764,86.610208,-90.211337,-0.156130,-0.794568,1.999969
338,264.286259,78.553445,-73.670558,-0.146975,-0.839246,1.999969
339,283.329519,72.266728,-59.510185,-0.008179,-0.950698,1.999969
340,304.875258,80.872816,-52.979324,0.212772,-0.915297,1.999420
341,282.352941,82.825971,-44.556344,0.276493,-0.952773,1.732326
342,270.389868,74.097810,-35.584039,0.301640,-1.039200,1.592187
343,260.868238,57.923247,-27.893492,0.234501,-1.081926,1.536156
344,240.726329,43.701839,-19.897765,0.130251,-1.279072,1.525902
345,227.664607,43.457694,-12.390326,0.114260,-1.579126,1.290059
346,198.733501,49.988556,-7.324331,0.353643,-2.000031,0.995254
347,152.590219,56.641489,-11.047532,0.803113,-2.000031,0.703136
348,109.864958,78.553445,-35.645075,1.045914,-2.000031,0.208499
349,92.530709,100.282292,-55.909056,0.863050,-2.000031,-0.517586
350,40.650034,65.613794,-39.307240,0.495247,-2.000031,-0.781018
351,-36.682689,-18.249790,0.366217,0.134524,-2.000031,-0.094728
352,-62.012665,-88.502327,39.795529,0.031739,-1.530175,0.976944
353,-53.345541,-109.925994,64.759289,0.011719,-0.940566,1.274556
354,-167.116808,-130.434119,24.658579,1.174578,-1.749050,-0.619028
355,-257.694362,-116.029603,26.611734,0.577157,-1.234394,0.158083
356,-118.287938,-66.956588,-0.488289,0.393317,0.396368,1.293477
357,-168.032349,-60.364691,-15.930419,-0.048951,1.010880,1.432883
358,-294.926375,-44.068055,8.056764,-0.361334,0.288457,0.309331
359,-328.191043,-47.730220,21.545739,-0.404669,-0.519661,0.912856
360,-333.562219,-50.232700,34.241245,0.346563,-0.571054,1.999969
361,-231.326772,-1.586938,18.982223,0.321172,-0.677501,1.999969
362,-131.960021,-40.527962,20.386053,-0.446784,-0.097658,1.999969
363,-89.234760,-43.274586,26.245518,-0.523201,-0.599252,1.548363
364,-30.273899,-62.378882,16.296635,0.837659,0.469734,1.904570
365,-77.332723,-16.174563,14.343481,1.114641,0.143557,1.666041
366,-51.392386,32.776379,6.225681,-0.397589,-0.047730,1.400900
367,-54.200046,8.789197,16.418708,-0.471687,-0.063478,0.861341
368,-39.978637,-5.432212,11.596857,0.381720,0.232914,1.204852
369,-57.679103,13.366903,7.812619,0.012451,0.050416,1.314351
370,-47.364004,7.995727,9.826810,-0.257694,-0.127321,1.133806
371,-23.376822,2.075227,6.713970,0.090333,0.083497,1.226215
372,-29.053178,11.230640,7.263294,-0.020996,-0.004150,1.103044
373,-16.968032,11.230640,7.141222,-0.147951,0.029908,0.988296
374,-17.151141,5.188067,8.056764,-0.079103,0.080812,0.942153
375,-19.592584,1.770047,7.385367,-0.095094,0.057008,0.994888
376,-18.066682,0.366217,6.347753,-0.018677,0.054322,1.043107
377,-16.235599,1.953155,5.432212,-0.089357,0.059571,0.925917
378,-21.118486,-0.549325,6.591897,-0.069581,0.031983,0.976089
379,-18.371862,-1.220722,6.713970,-0.061891,0.028321,0.976699
380,-18.188754,-2.563516,7.141222,-0.091310,0.051514,0.954726
381,-19.836728,-4.882887,7.019150,-0.047852,0.030884,1.073136
382,-17.090105,-2.441444,5.798428,-0.014649,0.002075,1.072770
383,-13.733120,1.281758,5.065995,-0.038697,0.007202,1.063737
384,-12.390326,3.967346,4.577707,-0.041871,0.022339,1.052750
385,-12.390326,5.981537,4.211490,-0.053468,-0.024292,0.993912
386,-12.695506,7.202258,4.821851,-0.049073,0.022827,0.975113
387,-15.869383,7.324331,5.127031,-0.088258,0.012573,0.977310
388,-14.831769,6.836042,5.615320,-0.073976,0.021241,0.995377
389,-15.686275,6.652934,6.225681,-0.095827,0.016236,0.974868
390,-16.906996,4.150454,6.958114,-0.111330,0.020264,0.964736
391,-17.151141,1.342794,6.836042,-0.091310,0.014893,0.958267
392,-19.043259,-0.488289,6.286717,-0.110964,0.015503,0.957900
393,-17.273213,-2.929732,5.920500,-0.099489,0.008545,0.967666
394,-15.747311,-4.760815,4.882887,-0.092287,-0.004517,0.980117
395,-14.709697,-6.713970,4.394598,-0.090211,-0.015381,0.985122
396,-12.451362,-8.239872,3.601129,-0.101686,-0.012207,0.995743
397,-10.864424,-10.864424,2.990768,-0.102907,-0.014160,0.987442
398,-10.620279,-13.061723,2.136263,-0.135378,0.010132,1.267964
399,-6.836042,-13.000687,2.441444,-0.085939,-0.011475,0.887831
400,-8.239872,-15.869383,0.976577,-0.032959,-0.009277,0.919203
401,-12.390326,-16.601816,-0.244144,-0.147707,-0.011841,0.970962
402,-11.718929,-20.447089,-1.098650,-0.052735,-0.015015,1.010513
403,-12.207218,-17.761501,-4.272526,-0.048951,-0.139406,0.936172
404,-12.695506,-18.554971,-2.868696,-0.030152,-0.007813,1.129412
405,-14.770733,-16.174563,-2.014191,-0.019654,-0.046387,1.040543
406,-9.399557,-13.794156,-1.525902,-0.025269,-0.048951,1.007462
407,-8.728161,-11.291676,0.000000,-0.003418,-0.045167,0.987930
408,-8.117800,-8.300908,0.549325,-0.048341,-0.009766,0.997818
409,-8.789197,-8.484016,1.586938,-0.014282,-0.014282,0.940688
410,-13.550011,-7.568475,0.915541,-0.023926,0.061891,1.046769
411,-16.418708,-10.070954,1.831083,-0.073487,0.031495,1.096452
412,-23.498894,-11.963073,1.831083,-0.039551,-0.001099,0.910536
413,-25.818265,-12.695506,0.976577,-0.066407,0.032837,0.924453
414,-34.973678,-16.479744,0.000000,-0.094972,0.018799,0.944594
415,-48.828870,-18.616007,-0.244144,-0.015625,-0.029297,0.982681
416,-48.889906,-16.723888,-1.831083,-0.041627,-0.051514,0.995132
417,-47.913329,-16.784924,-2.502480,-0.032471,-0.079347,1.040299
418,-49.866484,-16.845960,-0.549325,-0.025391,-0.134768,0.979141
419,-41.748684,-15.747311,6.042573,-0.033936,-0.088380,1.045792
420,-36.987869,-11.352712,4.089418,-0.020630,-0.122927,1.021012
421,-29.602502,-6.897078,6.164645,-0.050172,-0.035523,1.104509
422,-42.236973,-9.216449,-7.446403,-0.108888,-0.015747,0.991836
423,-71.656367,-9.704738,-28.564889,-0.018311,0.014405,0.907240
424,-72.449836,-5.371176,-33.203632,0.064454,-0.273686,1.064714
425,-23.804074,5.737392,-19.531548,0.130373,-0.278447,0.810803
426,-8.606088,-4.333562,-24.841688,0.044923,-0.136599,1.025528
427,-21.179522,-1.098650,-24.109255,0.073121,-0.240604,0.904799
428,-38.635843,-6.652934,-4.394598,-0.039918,-0.048341,1.061051
429,-57.618067,-14.343481,-11.169604,-0.061280,-0.007202,1.011856
430,-58.899825,-14.282444,-23.682002,-0.010376,0.130739,0.876356
431,-95.521477,-8.300908,-22.827497,0.035767,0.250858,0.874403
432,-110.414282,-23.804074,-19.836728,0.040040,0.371832,0.824231
433,-155.764096,-27.405203,-29.236286,0.320928,0.617197,0.852552
434,-305.668727,-10.681315,-81.300069,0.209842,1.166522,1.830961
435,-613.473716,16.296635,-48.645762,-0.171145,1.073381,1.999969
436,-821.667811,-0.061036,33.325704,-0.498543,0.323980,1.246967
437,-901.869230,-36.926833,91.798276,0.112795,-0.199466,1.080705
438,-976.760510,-59.937438,94.422828,0.614633,-1.209735,1.153338
439,-1175.371939,-118.165866,192.996109,-1.183856,-0.787366,1.999969
440,-195.193408,-138.979171,-86.488136,-0.322026,-2.000031,1.999969
441,294.743267,-93.812467,-71.168078,-0.494881,1.064347,1.999969
442,161.928740,-72.877089,-90.821698,-0.230228,1.222309,1.874174
443,-17.273213,-69.520104,-8.239872,-0.681285,1.006241,1.508080
444,-86.488136,-80.689708,26.001373,-0.430182,0.500618,1.234272
445,50.232700,-34.729534,3.418021,-0.427619,0.234989,1.090959
446,132.021057,-17.822538,-3.051804,-0.455940,0.513680,0.723644
447,82.215610,-26.855879,13.427939,-0.462165,0.416632,0.798962
448,101.564050,-33.752956,22.705425,-0.459724,0.245365,0.990127
449,155.458915,-36.621653,26.672770,-0.393439,0.341070,0.986954
450,163.210498,-43.701839,33.203632,-0.304936,0.372198,1.050919
451,182.803082,-41.931792,33.386740,-0.229252,0.304448,1.193133
452,215.701534,-28.076600,26.428626,-0.148318,0.298344,1.196918
453,231.692988,-11.474784,20.325017,-0.137575,0.249027,1.213764
454,248.722057,0.793469,15.014878,-0.130739,0.158450,1.213886
455,269.840543,7.934691,10.864424,-0.139284,0.072755,1.201434
456,285.404746,9.521630,9.399557,-0.117556,-0.023682,1.143450
457,299.992371,7.507439,8.728161,-0.093141,-0.083986,1.077043
458,308.964675,2.380407,7.812619,-0.041138,-0.096193,1.130510
459,315.861753,-2.136263,5.432212,0.011963,-0.091066,1.307881
460,326.909285,-0.549325,-1.281758,0.082399,-0.125978,1.346578
461,332.829786,12.512398,-12.573434,0.146242,-0.232547,1.152361
462,320.988785,37.964446,-27.527276,0.204715,-0.463508,0.819959
463,297.795071,68.360418,-36.438544,0.162356,-0.520760,0.774548
464,267.215991,69.398032,-38.757916,0.116091,-0.400519,1.103655
465,253.788052,47.486076,-44.495308,0.183597,-0.322148,1.585351
466,253.055619,36.011292,-51.697566,0.105959,-0.322515,1.999969
467,256.290532,44.129091,-57.801175,0.107179,-0.447761,1.999969
468,264.896620,66.041047,-63.477531,0.036866,-0.616953,1.999969
469,271.610590,80.445563,-66.529335,-0.074708,-0.655772,1.999969
470,258.426795,73.426413,-61.036088,-0.213504,-0.708995,1.999969
471,264.408331,61.463340,-51.453422,-0.236820,-0.862684,1.999969
472,293.400473,67.261769,-47.913329,-0.179080,-0.898451,1.999969
473,295.292592,77.332723,-43.823911,-0.152590,-0.911635,1.999969
474,290.775921,82.825971,-39.063096,-0.115969,-0.961318,1.999969
475,294.193942,87.769894,-36.743725,0.062501,-0.948867,1.805692
476,275.394827,90.516518,-36.499580,0.246342,-0.938125,1.794461
477,259.708553,90.028229,-37.903410,0.397589,-1.063859,1.810697
478,250.919356,91.432059,-41.931792,0.459480,-1.309224,1.630762
479,230.228122,89.967193,-41.016251,0.436774,-1.721950,1.281270
480,196.169986,84.901198,-32.898451,0.466194,-2.000031,0.885267
481,148.867018,74.830243,-24.658579,0.700450,-2.000031,0.632212
482,100.282292,64.698253,-23.682002,0.934218,-2.000031,0.254520
483,85.755703,60.730907,-36.987869,0.935195,-2.000031,-0.430915
484,65.003433,32.471199,-36.987869,0.707897,-2.000031,-0.998672
485,-42.420081,-41.077287,-10.925460,0.392218,-2.000031,-0.276127
486,-107.057298,-99.366751,21.118486,0.117678,-1.796048,0.883192
487,-75.928893,-118.287938,31.677729,0.127443,-1.500145,-1.716091
488,-134.340429,-82.337682,-2.929732,0.131350,0.145022,1.353414
489,-145.387961,-89.051652,11.413748,-0.497566,0.111818,1.355856
490,-111.207752,-32.898451,27.832456,-0.438972,1.183124,0.261601
491,-192.996109,-75.623713,34.973678,-0.426032,0.117311,-0.844739
492,-363.591974,-105.409323,70.740826,0.277226,-0.150515,0.346929
493,-388.372625,-72.083619,98.939498,1.175555,-0.343389,1.999969
494,-260.868238,-11.902037,39.185168,1.607324,-0.364263,1.999969
495,-172.121767,16.174563,-4.516670,1.206561,0.181765,1.999969
496,-171.267262,35.034714,-20.447089,-0.545174,-0.345098,1.999969
497,-156.740673,3.051804,16.357671,-2.000031,-0.835340,1.999969
498,-88.868544,-83.253223,55.054551,-1.077897,-0.531624,0.808850
499,-63.965820,-131.532769,54.810407,1.219257,0.535409,1.945708
500,-72.449836,-83.497368,22.461280,1.570581,0.122805,1.999969
501,-40.527962,-17.639429,9.826810,-0.555795,-0.085817,1.319234
502,-40.588998,-57.373922,17.517357,-0.454597,0.038941,0.905531
503,-31.921874,-67.994202,3.356985,0.734020,0.216800,1.498680
504,-40.344854,-26.245518,0.305180,0.194217,-0.005982,1.201068
505,-32.654307,-18.371862,2.929732,-0.254765,0.003662,1.055558
506,-25.696193,-26.184482,-0.122072,0.172854,0.135622,1.158953
507,-27.466239,-10.986496,-0.305180,0.131350,-0.025025,1.227192
508,-11.474784,-1.770047,1.586938,0.008667,0.051514,1.070695
509,-12.451362,1.098650,1.342794,0.049439,0.074586,0.958633
510,-18.371862,5.554284,3.906310,0.044800,0.071290,1.012222
511,-18.616007,9.094377,2.380407,0.029297,-0.004883,0.888563
512,-19.531548,5.981537,4.455634,0.017334,0.050172,1.015030
513,-19.714656,6.408789,5.004959,-0.018799,0.061158,0.969375
514,-21.240558,4.516670,5.065995,-0.033692,0.067384,0.978775
515,-21.423667,2.929732,3.906310,-0.055665,0.153079,1.078264
516,-20.996414,-0.488289,3.601129,-0.039185,0.045777,0.936294
517,-26.428626,-4.028382,3.479057,-0.016602,0.024659,0.976333
518,-23.437858,-4.028382,2.929732,-0.016236,0.022583,1.055436
519,-20.691234,-3.845274,2.868696,-0.007813,0.031006,0.996963
520,-19.348440,-3.418021,2.685588,-0.025147,0.036500,1.022110
521,-15.686275,-3.173877,0.122072,-0.054078,-0.013428,0.993423
522,-15.259022,-4.272526,1.037613,-0.013794,0.042847,1.016251
523,-15.808347,-4.821851,0.976577,-0.027710,0.025757,1.014298
524,-15.014878,-5.615320,0.793469,-0.011475,0.014160,0.994156
525,-14.343481,-5.737392,0.732433,-0.006470,0.006836,0.973648
526,-13.977264,-5.737392,0.854505,-0.014405,0.022950,0.999893
527,-14.892805,-6.530861,0.793469,-0.024781,0.015137,0.995621
528,-13.366903,-7.080186,0.793469,0.012085,0.002075,0.998917
529,-12.817578,-5.188067,-0.915541,0.076051,-0.098146,0.764294
530,-10.070954,-6.713970,-0.366217,-0.005859,0.027344,1.071794
531,-11.474784,-7.446403,0.122072,-0.016236,0.053834,1.039933
532,-10.864424,-7.934691,0.183108,0.000977,0.007935,0.978286
533,-10.803388,-8.117800,-0.793469,-0.000977,-0.007568,0.939345
534,-12.390326,-8.361944,-0.488289,-0.007568,0.044312,1.049699
535,-11.413748,-8.056764,-0.183108,0.022950,0.048951,1.026017
536,-11.047532,-7.263294,-0.183108,0.029786,-0.011719,0.983780
537,-12.939651,-5.737392,-0.793469,-0.017090,-0.047852,1.024552
538,-14.770733,-4.455634,0.061036,0.035279,0.007568,0.952773
539,-20.691234,-4.272526,1.037613,0.015991,0.042725,0.965469
540,-26.672770,-4.882887,0.793469,-0.006958,0.019532,0.972061
541,-33.264668,-6.347753,0.854505,-0.008667,0.004150,1.004532
542,-32.654307,-6.347753,0.061036,0.009522,0.018555,0.971817
543,-35.706111,-6.530861,-1.525902,0.015259,-0.009155,0.953994
544,-39.368276,-6.652934,-1.403830,-0.048463,-0.000122,1.024918
545,-40.405890,-5.859464,2.075227,0.023804,0.001099,0.932509
546,-57.129778,-6.347753,7.263294,0.000732,-0.050172,0.986465
547,-52.124819,-7.141222,9.399557,0.005493,-0.068727,1.041154
548,-48.035401,-0.183108,8.361944,0.054444,-0.055421,1.028580
549,-50.476844,2.136263,6.103609,-0.049561,-0.075685,1.000626
550,-44.922560,-1.220722,2.563516,-0.058473,-0.089845,0.885023
551,-43.701839,-3.418021,-1.892119,-0.036011,-0.013428,1.027237
552,-56.641489,-7.324331,-17.456321,-0.106325,0.006836,1.009659
553,-81.910430,-1.342794,-32.532235,0.024048,-0.097658,1.047868
554,-91.920348,7.995727,-35.706111,0.108766,-0.338140,1.119158
555,-49.805447,-0.061036,-16.174563,0.109133,-0.413458,1.048600
556,-9.887846,-5.004959,-2.197299,0.023560,-0.127321,1.006119
557,-26.123445,-1.647974,-6.775006,0.030030,0.158206,1.039689
558,-65.369650,1.770047,-20.508125,0.021118,0.271489,0.898695
559,-113.771267,-0.244144,-26.550698,0.061280,0.239261,1.053605
560,-157.106889,8.422980,-13.244831,0.024048,0.544198,0.439094
561,-178.469520,-6.836042,-23.682002,0.077394,0.304814,0.813245
562,-288.944839,-12.878614,-23.376822,0.222171,1.132830,1.715480
563,-598.641947,20.325017,-20.691234,-0.013062,1.999969,1.783230
564,-910.536355,-26.916915,-16.052491,-0.917983,-0.394903,1.774197
565,-987.685969,-67.689021,120.424201,-0.072389,0.074098,1.154192
566,-1119.829099,-76.905470,107.057298,1.116716,-2.000031,1.999969
567,-942.763409,-62.378882,206.912337,-2.000031,-2.000031,1.999969
568,207.766842,-55.664912,-61.585412,-0.912734,-0.418097,1.999969
569,528.206302,4.943923,-23.804074,-0.645274,1.331319,1.999969
570,217.044327,-52.796216,-26.977951,-0.535897,1.939361,0.651011
571,36.438544,-84.046693,90.638590,-0.525521,0.526864,-0.529671
572,-50.293736,-128.480964,115.053025,0.099245,0.840223,-0.195071
573,20.263981,-83.863584,46.875715,0.134646,0.238651,0.506722
574,104.493782,-34.302281,9.033341,0.062745,0.741344,0.607309
575,54.688334,-0.976577,2.563516,-0.040528,0.705333,0.694957
576,64.026856,13.672084,-6.775006,-0.183474,0.480232,0.886610
577,122.133211,10.498207,-13.305867,-0.235477,0.538216,0.811048
578,131.105516,-8.545052,-9.521630,-0.237308,0.519295,0.884291
579,150.148775,-22.461280,-7.995727,-0.187137,0.433722,1.087541
580,184.267948,-22.095064,-11.902037,-0.125612,0.420661,1.265644
581,204.592966,-15.930419,-16.113527,-0.081910,0.351934,1.311299
582,230.167086,-9.338521,-22.522316,-0.046021,0.263920,1.220844
583,252.933547,-6.652934,-29.358358,-0.033204,0.205814,1.105730
584,266.422522,-7.690547,-35.889220,-0.026490,0.145388,1.042252
585,276.981765,-6.408789,-42.542153,0.007080,0.123049,1.180438
586,287.846189,1.403830,-50.171664,0.022217,0.079591,1.305928
587,299.931334,12.512398,-58.106355,0.039918,-0.020264,1.274800
588,305.058366,23.926146,-66.590372,0.042237,-0.192752,1.032731
589,298.405432,38.818952,-73.548486,0.026001,-0.362188,0.810925
590,279.728389,54.566262,-75.684749,-0.001099,-0.390143,0.870619
591,256.595712,61.463340,-75.745785,0.047730,-0.339849,1.068376
592,242.679484,67.139696,-78.431373,0.048341,-0.275639,1.472923
593,232.120241,80.445563,-78.309300,-0.049195,-0.299565,1.936553
594,229.373617,94.422828,-73.182269,-0.118410,-0.403815,1.999969
595,242.252232,106.813153,-63.233387,-0.226200,-0.554696,1.999969
596,258.670939,112.489509,-49.378195,-0.238895,-0.711070,1.999969
597,260.868238,108.400092,-32.532235,-0.184085,-0.744518,1.999969
598,260.074769,93.324178,-16.479744,-0.098390,-0.784314,1.999969
599,277.103838,79.957275,-4.638743,-0.031006,-0.831800,1.999969
600,308.720531,74.402991,0.183108,0.040650,-0.906264,1.999969
601,319.584955,77.943084,2.014191,0.175784,-0.897108,1.839872
602,296.696422,81.239033,0.305180,0.507454,-0.856336,1.677882
603,272.037842,78.980697,-5.432212,0.456550,-0.934585,1.880400
604,262.577249,65.003433,-7.385367,0.329839,-1.123064,1.976471
605,258.609903,50.782025,-4.577707,0.137331,-1.443748,1.805936
606,243.289845,41.687648,3.479057,0.093263,-1.897002,1.443992
607,211.795224,42.847333,8.484016,0.334112,-2.000031,1.056413
608,163.271534,52.857252,0.854505,0.787854,-2.000031,0.695201
609,117.128252,89.112688,-34.851606,1.151995,-2.000031,0.279667
610,96.131838,126.222629,-62.134737,0.887709,-2.000031,-0.307134
611,44.617380,102.967880,-46.936751,0.428473,-2.000031,-0.775891
612,-28.625925,10.803388,-3.418021,-0.223392,-2.000031,-1.012345
613,-158.449683,-164.553292,49.073014,0.343877,-2.000031,-1.702419
614,-306.523232,-272.770275,63.904784,1.359396,-1.628809,0.769543
615,-165.407797,-118.654154,33.386740,0.543587,0.010376,1.999969
616,-111.879149,-40.650034,15.625238,-0.310430,1.303487,1.999969
617,-213.260090,-82.825971,34.302281,-0.107668,0.775402,0.209110
618,-322.453651,-68.116274,43.335622,0.063722,-0.159182,0.456184
619,-326.482033,-56.458381,58.228428,0.606332,-0.299077,1.999969
620,-296.147097,-23.987182,42.847333,1.185321,-0.253788,1.999969
621,-185.732815,39.612421,7.263294,0.118654,-0.515023,1.905058
622,-181.826505,-18.249790,20.080873,-1.350240,-0.433845,1.999969
623,-126.894026,-81.300069,49.439231,-0.800305,-0.426520,1.999969
624,-61.219196,-116.456855,30.457008,1.540429,0.207889,1.999969
625,-52.857252,-28.076600,5.554284,1.103532,0.054810,1.787503
626,-61.890593,6.652934,12.085145,-0.885145,-0.072755,0.921767
627,-55.786984,-42.664225,12.939651,-0.112917,-0.011109,1.250385
628,-36.865797,-33.936065,-0.488289,0.654673,0.166995,1.472313
629,-39.551385,-3.723201,0.671397,-0.160159,0.013672,1.047257
630,-31.860838,-18.249790,4.699779,-0.129397,-0.038575,1.127214
631,-15.136950,-16.235599,0.732433,0.145876,0.067994,1.162615
632,-21.789883,-7.934691,3.356985,-0.063966,-0.013672,1.057023
633,-9.216449,-10.193027,2.075227,-0.032959,0.041627,1.070939
634,-9.765774,-7.507439,1.892119,0.054322,0.062989,1.010269
635,-11.474784,-3.845274,2.746624,-0.028687,0.045777,0.968154
636,-10.559243,-5.065995,3.356985,0.015015,0.048219,1.009293
637,-13.183795,-3.784237,4.577707,0.013916,0.057130,0.970474
638,-15.564202,-3.356985,3.112840,-0.025635,0.006470,0.956069
639,-15.564202,-7.019150,4.699779,0.007446,0.023682,1.017472
640,-19.226368,-9.277485,4.943923,-0.062135,0.024292,0.908461
641,-19.775692,-13.183795,3.906310,-0.030884,0.032837,0.979385
642,-17.883574,-15.136950,1.464866,-0.066407,-0.002197,1.015274
643,-18.677043,-16.968032,1.525902,-0.040772,0.063233,1.014298
644,-21.728847,-19.470512,0.915541,-0.028565,0.013672,1.048356
645,-15.564202,-19.470512,-0.732433,0.020996,0.039918,1.048844
646,-14.465553,-17.639429,-2.929732,-0.039673,0.008545,1.103899
647,-10.925460,-15.075914,-1.464866,0.020142,0.034302,1.044327
648,-11.902037,-12.878614,-0.976577,0.032349,0.011719,0.981582
649,-13.183795,-10.925460,-0.244144,0.010254,0.020264,0.992447
650,-12.817578,-9.643702,-0.305180,0.022583,-0.024170,0.978897
651,-13.672084,-8.789197,0.915541,0.031495,0.006958,1.028580
652,-12.024109,-7.629511,-0.976577,-0.033326,-0.046265,1.021378
653,-12.817578,-7.141222,0.854505,0.011597,0.002808,0.995621
654,-12.634470,-7.141222,1.098650,0.023072,0.058106,1.036515
655,-12.634470,-7.690547,1.525902,0.018311,0.013184,0.985977
656,-11.352712,-7.446403,0.549325,0.036378,-0.028199,0.934463
657,-13.061723,-7.080186,1.220722,0.032349,0.029541,1.021988
658,-12.756542,-6.591897,1.586938,0.024537,0.009155,0.982071
659,-13.916228,-6.713970,1.525902,0.006104,0.043946,0.967300
660,-15.747311,-7.873655,1.525902,0.004395,0.021851,0.984024
661,-17.456321,-7.995727,1.342794,0.037354,-0.039063,0.974624
662,-18.799115,-7.446403,1.098650,0.019654,-0.026734,0.956680
663,-19.348440,-7.690547,1.037613,0.036622,-0.013916,0.986709
664,-22.400244,-6.958114,2.014191,0.012696,0.015503,1.007462
665,-25.024796,-6.897078,2.807660,0.034302,0.039551,1.007950
666,-27.710384,-6.103609,2.685588,0.041627,0.028199,1.001236
667,-33.325704,-4.882887,2.746624,0.041138,-0.015991,0.990616
668,-33.142596,-4.516670,3.356985,0.033936,-0.030152,1.005875
669,-32.104982,-4.455634,3.601129,0.024414,-0.025879,0.983780
670,-33.264668,-5.371176,3.479057,0.022583,-0.023194,1.039322
671,-38.208591,-6.836042,2.258335,-0.011841,-0.031617,0.949355
672,-35.767147,-4.821851,2.441444,0.099855,-0.008789,0.987564
673,-50.415808,-1.159686,4.577707,0.017090,-0.045777,1.042741
674,-48.767834,-0.061036,6.836042,0.047608,-0.084108,0.979751
675,-48.401617,3.295949,7.812619,0.043702,-0.065675,0.940322
676,-57.434958,3.051804,9.521630,0.026246,-0.060792,1.016495
677,-56.824598,3.479057,6.958114,-0.010254,-0.074098,1.004776
678,-54.993515,2.746624,1.770047,-0.040650,-0.082765,0.934951
679,-57.923247,-2.136263,-3.051804,-0.006592,-0.129152,1.095720
680,-54.627298,-2.624552,-11.596857,-0.063111,-0.065919,1.048478
681,-64.026856,-1.098650,-37.415122,-0.010864,-0.056153,1.053239
682,-51.148241,5.859464,-47.913329,0.126101,-0.282841,0.952163
683,-34.180209,-1.037613,-31.921874,0.144289,-0.338994,1.062394
684,-12.207218,-8.728161,-3.906310,0.108278,-0.255375,1.065812
685,-14.282444,-3.112840,0.549325,0.052369,0.057984,1.005875
686,-42.114900,4.394598,-12.878614,0.055665,0.179812,0.981704
687,-86.549172,13.611048,-20.447089,0.163333,0.107912,0.959487
688,-119.325551,23.926146,-16.906996,-0.042847,0.429450,0.861097
689,-194.277867,16.174563,-39.917601,0.024048,0.806653,0.063844
690,-199.771115,-35.828183,-12.451362,-0.314092,0.850843,1.594507
691,-401.983673,-41.992828,-19.775692,0.447395,1.470481,1.545068
692,-684.824903,-50.965133,-16.906996,-0.582406,0.600717,1.903471
693,-834.302281,-134.218357,61.280232,-0.493172,-0.015137,1.542504
694,-943.007553,-161.379416,84.168765,0.057252,0.196048,0.858167
695,-1115.983825,-192.568856,117.799649,1.520165,-2.000031,1.999969
696,-708.995193,-104.615854,180.727855,-1.154559,-1.373556,1.999969
697,227.969787,-33.447776,-78.187228,-0.194217,0.371832,1.999969
698,443.060960,15.197986,-69.947356,-0.559457,1.300557,1.999969
699,192.446784,5.127031,-90.821698,-0.505379,1.132830,1.108049
700,35.584039,-46.509499,18.554971,-0.863294,0.541512,0.035523
701,-34.668498,-84.596017,46.143282,-0.433356,0.516487,0.212161
702,30.273899,-56.397345,30.029755,-0.411749,0.239628,0.461189
703,97.596704,-32.104982,19.775692,-0.364019,0.489143,0.679332
704,75.318532,-24.597543,24.841688,-0.344732,0.548226,0.908339
705,85.023270,-24.475471,27.832456,-0.321416,0.452155,1.263081
706,141.054398,-22.217136,24.475471,-0.237675,0.516732,1.388449
707,172.671092,-20.386053,20.325017,-0.153567,0.536507,1.341573
708,192.751965,-9.277485,13.977264,-0.057740,0.441779,1.340963
709,221.805142,11.718929,4.028382,-0.016480,0.339605,1.271992
710,243.106737,29.236286,-4.882887,-0.006958,0.239750,1.125628
711,256.778820,35.950256,-10.070954,0.012940,0.142702,1.130510
712,272.220951,36.560616,-13.244831,0.059327,0.059937,1.105730
713,288.212406,34.973678,-16.845960,0.101076,0.010254,1.113176
714,300.053407,31.128405,-21.179522,0.168704,-0.010254,1.081193
715,307.377737,28.686961,-27.344167,0.229129,-0.013062,1.123308
716,309.575036,31.006332,-36.316472,0.290532,-0.036866,1.205707
717,306.401160,41.382467,-47.425040,0.309453,-0.210941,1.067765
718,299.748226,61.585412,-58.289464,0.336309,-0.384039,0.880995
719,280.888075,75.928893,-64.148928,0.323735,-0.415412,0.874281
720,261.356527,76.905470,-71.168078,0.373175,-0.388312,0.845350
721,243.045701,82.154574,-78.431373,0.337041,-0.209476,1.150164
722,212.771801,85.999847,-80.018311,0.235233,-0.230961,1.863188
723,200.503548,84.473945,-76.417182,0.169192,-0.312383,1.999969
724,239.322499,77.454795,-76.356146,0.097047,-0.495979,1.999969
725,276.493477,83.741512,-74.891279,0.053956,-0.760266,1.999969
726,271.000229,96.375982,-65.308614,-0.012696,-0.800549,1.999969
727,256.717784,89.295796,-52.185855,-0.069825,-0.910536,1.999969
728,278.995956,79.652094,-39.917601,-0.020630,-1.021622,1.999969
729,297.184710,84.229801,-35.034714,0.138064,-0.941787,1.999969
730,275.883116,89.417868,-27.588312,0.286625,-0.896620,1.999969
731,276.737621,87.586786,-25.329976,0.336797,-0.931533,1.913970
732,277.836271,78.370336,-24.353399,0.319585,-0.928847,1.732448
733,259.891661,64.820325,-21.118486,0.246342,-1.021012,1.708156
734,250.553140,54.261082,-18.616007,0.178470,-1.187030,1.700343
735,242.557412,48.523690,-17.273213,0.148318,-1.447776,1.399924
736,218.509194,48.340581,-17.456321,0.239872,-1.842924,1.012100
737,177.615015,60.975052,-19.287404,0.505867,-2.000031,0.587533
738,123.353933,85.084306,-32.288090,0.719249,-2.000031,0.251591
739,79.957275,107.972839,-43.823911,0.645640,-2.000031,-0.020508
740,45.899138,100.343328,-30.701152,0.383307,-2.000031,-0.258549
741,1.159686,40.711070,2.807660,0.153567,-2.000031,-0.229740
742,-39.612421,-40.527962,40.344854,0.073487,-1.762844,0.349004
743,-57.801175,-89.051652,66.102083,0.014527,-1.352926,0.997452
744,-140.871290,-131.044480,39.124132,0.207156,-1.605249,-0.142580
745,-280.216678,-112.733654,74.525063,0.016236,-0.788220,0.139284
746,-153.017472,-82.581827,54.871443,-0.070802,0.130251,1.252338
747,-108.705272,-67.078660,42.786297,-0.111452,1.305684,1.242451
748,-277.225910,-86.549172,67.078660,0.386847,0.726696,0.071778
749,-332.585641,-79.957275,64.393072,1.100969,-0.862806,0.563241
750,-294.621195,-50.415808,48.584726,1.294087,-0.306889,1.999969
751,-252.079042,-13.916228,20.019837,1.066056,-0.180056,1.999969
752,-191.836423,23.010605,-1.525902,-0.218265,-0.352789,1.999969
753,-186.282139,-18.371862,29.968719,-1.792020,-0.390875,1.999969
754,-126.527810,-91.554131,63.111315,-0.730114,-0.427619,1.712551
755,-66.956588,-128.542000,38.818952,1.726955,0.269291,1.999969
756,-57.129778,-38.879988,1.586938,1.226093,0.141238,1.848783
757,-57.007706,3.295949,9.826810,-0.769177,-0.047852,1.106096
758,-56.214237,-46.814679,14.648661,-0.240726,0.073732,1.300801
759,-29.419394,-44.251164,-2.380407,0.675059,0.209110,1.244282
760,-48.279545,-10.315099,-0.427253,-0.049805,0.034546,1.294697
761,-30.090791,-16.723888,-0.793469,-0.143069,0.008423,1.120256
762,-20.630198,-16.174563,-4.516670,0.166384,0.080690,1.103410
763,-26.184482,-4.211490,0.000000,-0.000366,0.017456,1.101823
764,-17.456321,-3.723201,0.854505,0.021118,0.032349,1.071183
765,-14.953841,0.244144,1.647974,0.106081,0.044923,1.088029
766,-13.611048,6.530861,3.906310,0.008911,0.032715,1.034806
767,-11.718929,8.117800,4.333562,0.032349,0.070558,0.991104
768,-14.709697,10.131991,5.493248,0.018189,0.049928,0.996353
769,-14.404517,9.643702,5.615320,-0.036378,0.064088,0.956802
770,-17.578393,9.521630,3.662165,0.098146,0.035401,0.862074
771,-18.310826,8.850233,3.906310,-0.038575,0.009155,1.017472
772,-20.508125,5.188067,4.760815,-0.028321,0.020508,0.966690
773,-16.723888,4.638743,4.028382,-0.021241,0.042603,0.991470
774,-16.968032,3.601129,3.784237,-0.016724,0.032349,0.997940
775,-16.601816,3.173877,3.234913,-0.013428,0.031617,0.993790
776,-17.517357,2.990768,2.990768,-0.025391,0.030396,1.003922
777,-17.639429,3.295949,2.868696,-0.001831,0.025513,1.012955
778,-17.395285,3.967346,2.685588,-0.019043,0.020142,1.007828
779,-18.188754,4.699779,1.770047,0.007080,0.051270,1.057633
780,-12.695506,5.188067,1.159686,-0.014771,-0.008057,1.080705
781,-15.869383,3.967346,2.014191,-0.034913,0.003418,0.962051
782,-14.099336,3.295949,1.892119,-0.023804,0.009766,0.989883
783,-14.160372,2.624552,2.258335,-0.028931,0.000610,1.016495
784,-13.061723,2.197299,2.075227,-0.040894,0.005493,1.003799
785,-11.230640,1.037613,1.525902,-0.028443,0.009888,0.984512
786,-11.718929,-0.183108,1.342794,-0.024781,-0.006958,1.019059
787,-8.850233,-0.793469,0.732433,-0.026734,-0.003784,1.004410
788,-8.239872,-1.770047,0.183108,-0.029419,0.011231,0.979385
789,-9.338521,-2.807660,0.061036,-0.031495,0.025269,0.958755
790,-10.070954,-1.709010,-1.953155,0.041871,-0.141482,0.678965
791,-9.948882,-4.882887,-1.464866,-0.048219,0.043580,1.042374
792,-19.531548,-8.667124,0.671397,-0.047608,0.032715,0.968399
793,-17.944610,-10.315099,0.122072,-0.037110,0.015381,0.960464
794,-19.287404,-11.841001,-0.122072,-0.020752,-0.003906,1.010147
795,-20.202945,-12.512398,-0.183108,0.009033,0.006592,1.008316
796,-21.850919,-13.061723,-1.281758,-0.011353,0.002197,0.985000
797,-25.146868,-12.878614,-1.525902,0.003662,0.001709,0.985245
798,-25.696193,-11.963073,-2.441444,0.002197,0.005005,0.982315
799,-29.785611,-11.047532,-2.014191,0.010254,0.030396,0.963638
800,-36.072328,-10.681315,-3.112840,-0.034302,0.036011,0.963272
801,-41.443503,-11.963073,-2.990768,-0.051637,0.027466,0.911147
802,-49.927520,-12.146181,0.549325,0.018799,-0.014893,0.888930
803,-59.327077,-13.733120,5.065995,-0.010742,-0.050660,1.008682
804,-58.228428,-13.855192,7.263294,0.008667,-0.136599,1.206683
805,-55.054551,-4.516670,7.812619,0.021729,-0.119265,0.950210
806,-45.227741,-2.380407,4.821851,-0.065675,-0.030762,1.060075
807,-45.777066,-6.775006,-4.150454,-0.055543,-0.056275,0.935195
808,-46.936751,-8.911269,-2.563516,-0.044678,-0.034668,0.981949
809,-53.101396,-10.864424,-12.573434,-0.044068,-0.076783,1.019425
810,-63.782712,-4.943923,-28.870069,-0.033204,0.168460,0.958511
811,-72.205692,0.793469,-50.232700,0.049195,-0.321782,1.005386
812,-48.584726,-6.469825,-30.701152,0.165896,-0.395392,1.117327
813,-18.371862,-11.535821,-3.845274,0.017090,-0.145266,1.053849
814,-33.813993,-7.751583,-11.047532,0.021851,0.003662,1.037613
815,-54.016938,-2.014191,-17.334249,0.024048,0.165774,0.945083
816,-97.657740,-0.976577,-19.043259,0.031739,0.284062,1.016617
817,-121.766995,0.854505,-11.413748,0.016968,0.341192,0.780407
818,-162.966354,-2.868696,-29.846647,0.017823,0.305669,0.665415
819,-243.595026,-29.480430,-34.058137,-0.128786,0.648814,1.345480
820,-541.084916,1.098650,-11.779965,0.507454,1.747829,1.600732
821,-759.411002,-23.987182,-10.437171,-0.620371,0.338384,1.361959
822,-887.647822,-76.905470,60.669871,-0.037476,0.010376,1.349874
823,-962.478065,-97.779812,72.083619,0.051881,-0.093141,0.779919
824,-1187.945373,-165.651942,130.678264,0.180911,-2.000031,1.999969
825,-502.571145,-105.958648,83.314260,-1.255024,-1.229877,1.999969
826,282.658122,-60.364691,-78.736553,-0.291386,1.017594,1.999969
827,390.203708,-13.244831,-77.088579,-0.605600,1.486351,1.999969
828,164.187076,-0.671397,-96.864271,-0.516365,0.593271,1.374411
829,34.241245,-29.175250,11.596857,-0.683482,0.593637,0.040894
830,-14.282444,-38.879988,21.911955,-0.374151,0.297368,0.120974
831,62.806134,-12.390326,8.361944,-0.497566,0.119753,0.210941
832,98.329137,-8.545052,11.413748,-0.406134,0.389410,0.311894
833,61.524376,-18.127718,26.062409,-0.426886,0.355474,0.611826
834,77.271687,-26.123445,35.339895,-0.397101,0.285893,0.949233
835,121.644923,-30.579080,39.124132,-0.331182,0.387335,1.099016
836,139.101244,-37.842374,43.030442,-0.230716,0.431281,1.244404
837,163.027390,-35.767147,41.077287,-0.144900,0.406378,1.398093
838,197.756924,-21.789883,32.104982,-0.045167,0.401740,1.499168
839,223.270008,-1.770047,21.179522,-0.039307,0.332647,1.536400
840,246.463722,14.770733,12.878614,-0.056519,0.212161,1.574609
841,273.136492,23.315785,7.568475,-0.101564,0.057984,1.527977
842,304.448005,24.780652,5.554284,-0.108888,-0.075319,1.315328
843,325.261311,19.897765,5.432212,-0.079103,-0.134646,1.049821
844,326.848249,9.155413,6.469825,0.037964,-0.130617,1.050431
845,325.017166,-1.953155,2.868696,0.210086,-0.120485,1.184222
846,330.205234,-8.300908,-10.315099,0.348394,-0.132570,1.338399
847,330.266270,-0.305180,-32.288090,0.471321,-0.324224,1.148455
848,316.166934,32.104982,-56.092164,0.555306,-0.510628,0.834119
849,293.156329,62.073701,-74.464027,0.497322,-0.430549,0.794324
850,259.159228,54.139010,-89.723049,0.374151,-0.317144,0.977066
851,242.740520,36.316472,-102.174411,0.232303,-0.314580,1.410422
852,221.438926,43.823911,-108.583200,0.154421,-0.296635,1.999969
853,212.222477,65.308614,-111.024643,-0.005859,-0.456306,1.999969
854,239.566644,82.398718,-109.254597,-0.211185,-0.737194,1.999969
855,279.545281,90.821698,-99.427787,-0.321904,-0.918227,1.999969
856,291.935607,86.976425,-81.116960,-0.340093,-0.922499,1.999969
857,302.494850,76.661326,-63.416495,-0.265751,-1.069352,1.999969
858,336.675059,85.877775,-53.833829,-0.129519,-1.180194,1.961578
859,319.951171,110.170138,-46.509499,0.232670,-1.007584,1.597192
860,272.281987,124.757763,-40.222782,0.511604,-0.933852,1.860014
861,269.535363,120.363165,-38.696880,0.622080,-0.967300,1.969635
862,273.075456,98.756390,-37.232013,0.568246,-1.117937,1.850980
863,255.924315,77.637903,-30.029755,0.413214,-1.522606,1.622461
864,234.134432,68.604562,-17.761501,0.406622,-2.000031,1.239887
865,187.258717,71.473259,-8.056764,0.776013,-2.000031,0.808484
866,122.987716,91.493095,-23.804074,1.077531,-2.000031,0.212406
867,115.480278,130.861372,-52.552071,0.931655,-2.000031,-0.682750
868,92.591745,126.466773,-47.364004,0.404913,-2.000031,-1.367575
869,-40.405890,28.503853,0.122072,-0.121706,-2.000031,-0.654551
870,-113.344015,-88.746471,55.909056,-0.015869,-2.000031,-2.000031
871,-209.658961,-195.620661,80.933852,0.746838,-1.064347,0.329107
872,-273.014420,-172.610056,41.809720,0.842176,-1.368795,1.423850
873,-134.157321,-74.036774,14.526589,-0.124880,0.100710,1.871977
874,-117.006180,-91.248951,10.070954,-0.274784,0.948501,1.736965
875,-223.392081,-85.145342,39.917601,-0.110475,0.636606,0.537362
876,-301.701381,-75.684749,43.640803,-0.123171,-0.468391,0.149172
877,-304.814221,-76.600290,59.143969,0.247807,-0.338384,1.999969
878,-289.005875,-49.561303,56.824598,1.054826,-0.273198,1.999969
879,-175.051499,9.643702,22.766461,0.804211,-0.548592,1.999969
880,-130.128939,-8.606088,16.357671,-0.606699,0.295903,1.999969
881,-169.192035,-48.767834,35.095750,-0.882338,-0.769299,1.985382
882,-64.332036,-90.882734,23.559930,0.829114,0.043336,1.999969
883,-30.334936,-40.466926,9.033341,1.315450,0.294194,1.982574
884,-46.753643,19.836728,6.713970,-0.266361,0.074708,1.005386
885,-61.463340,-5.249104,15.075914,-0.561166,-0.050538,1.080949
886,-35.217823,-20.691234,6.469825,0.473396,0.130495,1.341695
887,-39.368276,7.080186,0.854505,0.101686,0.069093,1.156756
888,-39.551385,1.525902,6.103609,-0.273442,-0.100099,1.067887
889,-14.404517,-3.662165,2.380407,0.156130,0.101686,1.176532
890,-22.705425,6.164645,3.418021,-0.033082,0.035279,1.029679
891,-18.616007,6.225681,4.028382,-0.043824,-0.003418,1.088640
892,-11.902037,9.094377,4.394598,0.041627,0.050416,1.064225
893,-12.329290,12.573434,5.065995,-0.062745,0.038575,1.016739
894,-10.864424,12.451362,6.103609,-0.001831,0.050294,1.032853
895,-10.681315,15.259022,5.920500,-0.015747,0.061158,1.008072
896,-10.864424,15.564202,5.920500,-0.049683,0.045655,1.008194
897,-9.094377,14.709697,5.493248,-0.054444,0.047730,0.995865
898,-7.873655,13.366903,5.004959,-0.090944,0.047608,0.977066
899,-8.239872,9.643702,4.577707,-0.096071,0.036988,0.958389
900,-8.911269,6.286717,4.211490,-0.072511,0.023316,1.009049
901,-6.347753,5.004959,3.112840,-0.084596,0.029786,1.003067
902,-4.943923,2.319371,2.563516,-0.097169,0.033448,0.967666
903,-5.127031,-1.342794,1.831083,-0.098634,0.053834,0.953140
904,-6.958114,-5.127031,1.098650,-0.091554,0.055665,0.956680
905,-7.080186,-7.446403,0.244144,-0.080323,0.046632,0.964614
906,-9.094377,-8.484016,0.244144,-0.074098,0.034302,0.983902
907,-9.887846,-8.728161,0.000000,-0.066163,0.039307,0.969863
908,-11.169604,-8.789197,0.244144,-0.056641,0.040772,0.969986
909,-14.099336,-8.850233,0.915541,-0.075074,0.040650,0.948013
910,-18.127718,-9.826810,1.342794,-0.091920,0.103273,1.194965
911,-15.259022,-9.826810,1.098650,-0.085573,0.026612,0.951797
912,-22.034028,-13.427939,1.525902,-0.040528,0.015259,0.955703
913,-19.348440,-13.061723,0.793469,-0.053101,0.007568,1.009171
914,-20.752270,-13.122759,0.732433,-0.050538,0.030640,1.050065
915,-16.845960,-11.963073,0.671397,-0.072267,0.090700,0.881239
916,-19.531548,-12.634470,0.244144,-0.034180,0.016236,1.018692
917,-21.606775,-10.681315,0.976577,-0.032837,-0.021241,1.091447
918,-13.733120,-8.300908,1.342794,-0.032715,-0.011597,0.999893
919,-13.794156,-7.324331,2.014191,-0.024048,0.014649,1.000015
920,-15.991455,-6.530861,2.136263,-0.053101,0.029541,0.957778
921,-16.968032,-10.070954,2.319371,-0.025147,0.126467,0.810559
922,-26.306554,-10.742351,2.197299,-0.038087,0.003174,0.974746
923,-28.992142,-11.047532,1.709010,-0.063966,-0.020142,1.036515
924,-27.344167,-11.657893,2.380407,-0.018433,0.017945,0.996109
925,-32.349126,-11.657893,3.479057,-0.023316,-0.020752,0.964614
926,-32.532235,-10.864424,3.356985,-0.009888,-0.006836,0.995621
927,-35.461967,-10.559243,3.051804,-0.026123,0.009888,0.988907
928,-39.673457,-11.718929,1.342794,-0.059327,0.001831,0.982071
929,-41.992828,-12.939651,-0.305180,-0.046998,0.005737,0.959731
930,-45.593957,-14.221408,-0.976577,-0.067140,0.016114,0.930312
931,-59.021897,-15.747311,0.488289,0.011841,-0.046632,0.988907
932,-62.439918,-14.709697,2.929732,-0.029175,-0.082277,0.968643
933,-54.993515,-16.784924,6.103609,-0.028077,-0.111208,1.033585
934,-53.650721,-11.474784,7.568475,0.034791,-0.056519,1.046525
935,-53.406577,-8.361944,2.990768,-0.061524,-0.101442,1.056413
936,-46.448463,-8.300908,0.915541,-0.029908,-0.150515,0.999527
937,-42.908370,-10.437171,2.136263,-0.085573,-0.137942,1.073869
938,-35.217823,-10.559243,-9.033341,-0.063844,-0.157839,0.888808
939,-47.669184,-10.254063,-37.109941,-0.111330,0.001465,1.075700
940,-56.824598,2.624552,-61.219196,0.062867,-0.275395,1.051164
941,-36.987869,5.065995,-32.349126,0.158938,-0.353277,1.103532
942,-22.461280,-5.127031,-4.272526,-0.043336,-0.086549,1.057877
943,-47.180896,-16.357671,-12.146181,-0.010132,-0.057984,1.031632
944,-53.284504,-13.305867,-18.066682,0.046632,0.145022,0.961929
945,-89.600977,-4.760815,-27.832456,-0.010620,0.126589,0.906752
946,-114.808881,-12.817578,-17.883574,0.138796,0.329473,0.797864
947,-133.180743,-7.812619,-15.564202,0.116457,0.541878,0.815686
948,-216.617075,-31.006332,-70.801862,-0.140139,0.674083,1.845121
949,-511.604486,0.793469,-53.040360,0.325566,1.024918,1.689235
950,-755.382620,10.131991,-13.488975,-0.398688,0.580453,1.319478
951,-845.410849,-39.612421,37.537194,0.040040,0.268437,1.197528
952,-952.162966,-67.505913,66.834516,0.248295,-0.158816,0.784680
953,-1200.518807,-112.855726,165.163653,-1.053483,-1.353292,1.999969
954,-443.915465,-65.980011,-17.944610,-1.210590,-2.000031,1.999969
955,255.008774,-27.466239,-62.928206,-0.769909,1.014908,1.999969
956,248.416876,-20.202945,-50.904097,-1.080339,1.167742,1.999969
957,33.386740,-13.427939,-3.845274,-0.987564,0.665660,1.516014
958,-47.547112,-48.401617,61.646448,-0.580819,0.191043,0.506844
959,48.462654,-24.963760,61.402304,-0.479255,0.226444,0.518074
960,96.070802,-21.484703,59.693294,-0.399664,0.451545,0.270512
961,42.236973,-36.743725,76.356146,-0.268925,0.424933,0.528450
962,56.336309,-48.767834,81.422141,-0.161135,0.378180,0.894179
963,106.935225,-57.251850,75.135424,0.025269,0.550057,1.027237
964,125.734340,-62.623026,64.759289,0.241825,0.648203,1.142962
965,144.716564,-54.505226,46.021210,0.398077,0.662730,1.298238
966,173.891814,-38.147555,18.799115,0.412238,0.630381,1.464866
967,203.677424,-25.268940,-6.713970,0.348394,0.516243,1.459373
968,235.965515,-20.569162,-27.588312,0.261234,0.376837,1.317769
969,260.868238,-22.095064,-43.030442,0.161624,0.245853,1.172259
970,278.263523,-27.771420,-52.491035,0.063600,0.118166,1.044694
971,291.020066,-32.227054,-58.228428,-0.002075,0.040650,0.954116
972,296.025025,-33.875029,-61.524376,-0.052125,-0.001587,0.970352
973,298.466468,-31.189441,-64.393072,-0.054688,0.010010,1.180926
974,302.861067,-23.437858,-68.360418,-0.047120,0.018799,1.501366
975,313.176165,-10.254063,-72.999161,-0.058717,-0.056886,1.675685
976,328.740368,10.193027,-78.309300,-0.121828,-0.233402,1.514916
977,329.533837,31.860838,-81.971466,-0.184695,-0.469123,1.171527
978,314.396887,54.383154,-79.102770,-0.265629,-0.533944,0.927871
979,288.395514,73.304341,-72.205692,-0.234257,-0.494514,0.856947
980,253.543908,70.618753,-66.224155,-0.268803,-0.463630,1.383200
981,238.529030,75.684749,-57.862211,-0.437507,-0.549325,1.827787
982,236.331731,81.849393,-43.274586,-0.541878,-0.612802,1.999969
983,232.303349,81.361105,-23.010605,-0.580087,-0.725963,1.999969
984,240.360113,76.661326,-4.028382,-0.500130,-0.745251,1.999969
985,266.788739,79.407950,8.728161,-0.373053,-0.840711,1.999969
986,305.302510,83.131151,15.625238,-0.185061,-0.890394,1.999969
987,321.782254,88.258183,16.174563,-0.021118,-0.910414,1.999969
988,317.082475,93.690394,12.268254,0.284550,-0.931167,1.900664
989,307.255665,106.691081,-0.976577,0.952041,-0.778088,1.772366
990,281.620508,113.710231,-27.832456,1.157488,-0.832654,1.817655
991,268.680858,100.404364,-50.782025,1.175433,-1.006851,1.745632
992,266.117342,78.248264,-72.938125,1.028458,-1.281514,1.531395
993,245.059892,57.740139,-86.488136,0.743908,-1.707912,1.224872
994,210.147250,46.204318,-91.737240,0.542611,-2.000031,0.906264
995,160.646983,50.293736,-101.197833,0.580331,-2.000031,0.653819
996,107.911803,78.736553,-118.776226,0.586435,-2.000031,0.347906
997,77.332723,116.395819,-130.006867,0.183474,-2.000031,0.036500
998,39.917601,113.099870,-104.188602,-0.329473,-2.000031,-0.258305
999,-10.437171,56.092164,-50.354772,-1.112688,-2.000031,-0.564096
1000,-130.556191,-107.972839,33.997101,-1.256001,-2.000031,-1.798489
1001,-283.878843,-297.184710,135.255970,0.210575,-2.000031,-0.796887
1002,-185.122454,-203.311208,130.434119,0.883192,-0.359380,1.999969
1003,-156.130312,-44.495308,112.306401,0.350225,1.232441,1.999969
1004,-241.580835,-118.471046,122.194247,1.168353,0.979019,0.822034
1005,-311.589227,-131.410697,93.385214,1.999969,-0.169192,0.944228
1006,-308.842603,-36.743725,55.237659,1.846220,-0.177371,1.775662
1007,-298.161288,-32.471199,23.437858,1.433494,-0.194217,1.999969
1008,-206.668193,31.189441,-10.803388,0.109865,-0.616831,1.999969
1009,-138.735027,21.301595,-5.493248,-1.813748,-0.270634,1.978302
1010,-165.102617,-71.839475,48.523690,-1.844388,-0.791272,1.558740
1011,-87.342641,-150.331884,54.383154,0.838025,-0.066163,1.999969
1012,-72.083619,-109.193561,19.653620,1.999969,0.337163,1.999969
1013,-50.293736,-12.085145,3.723201,-0.088380,0.057496,1.085466
1014,-57.801175,-38.147555,5.676356,-0.929458,-0.068849,1.109880
1015,-50.415808,-78.736553,12.390326,0.649668,0.058717,1.375387
1016,-35.156786,-35.584039,-2.197299,0.500008,0.062867,1.578759
1017,-38.757916,-19.043259,2.014191,-0.244144,-0.132692,1.077165
1018,-5.920500,-29.053178,0.488289,0.053834,0.069581,1.109148
1019,-14.770733,-26.062409,0.793469,0.091188,0.075441,1.036759
1020,-14.343481,-20.080873,1.464866,0.074464,-0.029175,1.149187
1021,-0.549325,-14.587625,2.685588,0.111574,0.033814,1.056291
1022,-2.075227,-7.934691,4.028382,0.099123,0.088746,0.961685
1023,-9.704738,-2.990768,5.798428,0.079591,0.100221,0.974624
1024,-14.953841,-0.244144,6.836042,0.057618,0.072755,0.978042
1025,-16.723888,0.915541,6.103609,-0.009888,0.074586,0.964492
1026,-19.775692,-2.136263,5.615320,0.038819,0.059083,0.965591
1027,-21.057450,-1.403830,4.211490,0.027344,0.030030,0.979019
1028,-18.738079,-3.784237,1.892119,-0.138552,0.140505,0.989395
1029,-19.043259,-7.995727,2.441444,0.059327,-0.101808,0.928603
1030,-9.338521,-6.164645,0.671397,0.076905,-0.037110,1.017472
1031,-6.652934,-6.836042,0.671397,0.000244,0.031128,0.972061
1032,-9.887846,-7.324331,0.671397,0.051881,0.041505,1.007828
1033,-9.277485,-5.981537,0.732433,0.058473,0.016602,1.004776
1034,-7.446403,-3.723201,0.976577,0.075074,0.043824,1.002335
1035,-11.291676,-1.281758,1.098650,0.045045,0.027466,0.973648
1036,-12.451362,-1.281758,0.671397,0.049805,0.048219,0.980484
1037,-15.686275,-0.183108,0.427253,0.063722,0.036378,1.007095
1038,-16.968032,1.403830,0.488289,0.032227,0.011231,0.986954
1039,-14.892805,0.183108,0.061036,0.007813,0.032593,0.956313
1040,-19.287404,-1.647974,0.366217,0.033326,0.023194,0.952407
1041,-20.202945,-2.502480,0.244144,0.024292,0.018555,0.987808
1042,-21.972992,-2.990768,0.061036,0.038941,0.014038,1.008194
1043,-21.362631,-2.563516,-0.183108,0.050416,-0.006836,1.003555
1044,-19.592584,-2.136263,0.061036,0.022827,0.012451,0.967910
1045,-21.545739,-3.295949,0.000000,0.035157,0.016236,0.970108
1046,-24.414435,-4.699779,-0.244144,0.033082,-0.002564,0.949844
1047,-26.977951,-6.347753,0.549325,0.051270,-0.001709,0.986221
1048,-28.381781,-6.713970,0.976577,0.032593,-0.017700,0.969986
1049,-25.268940,-7.507439,1.709010,0.060426,-0.021607,0.981827
1050,-26.428626,-5.065995,2.319371,0.101198,-0.011475,1.094377
1051,-28.992142,-1.892119,3.112840,0.049683,-0.030640,1.049943
1052,-25.329976,0.366217,3.723201,0.048219,-0.032349,0.955337
1053,-28.259709,0.976577,3.784237,0.047608,0.010864,0.978653
1054,-32.532235,2.746624,4.089418,0.064454,0.045411,1.162005
1055,-46.936751,3.173877,2.319371,-0.002197,-0.053223,1.006973
1056,-42.298009,1.586938,0.427253,0.022583,-0.054444,0.993545
1057,-37.720302,0.122072,-2.014191,0.039918,0.000000,0.995743
1058,-48.889906,-0.366217,-3.112840,0.081544,0.042237,0.939467
1059,-54.932479,4.272526,-0.122072,0.041749,0.010864,0.938491
1060,-73.365377,4.516670,-0.122072,0.135744,-0.168338,1.063371
1061,-53.345541,7.995727,5.004959,0.011353,-0.159426,1.023087
1062,-33.264668,6.042573,4.577707,0.023560,-0.063722,0.915908
1063,-37.781338,6.530861,-2.685588,-0.077394,-0.027100,1.027848
1064,-51.636530,3.845274,-19.531548,-0.106935,-0.140749,1.043229
1065,-55.786984,3.967346,-35.278859,0.012573,-0.203494,1.054215
1066,-45.654994,3.295949,-36.987869,0.113039,-0.304204,0.977920
1067,-14.099336,-3.112840,-18.371862,0.175784,-0.186404,1.055436
1068,-3.234913,-3.845274,-0.427253,0.192996,-0.088136,1.110979
1069,-31.189441,10.559243,5.249104,0.133303,0.110719,1.034928
1070,-70.435645,24.231327,-8.850233,0.091310,0.134401,0.943740
1071,-104.127565,29.480430,-4.943923,-0.074952,0.439216,0.820935
1072,-180.117494,22.827497,-17.761501,-0.226444,0.570565,0.750378
1073,-221.560998,-30.395972,-10.559243,-0.638926,-0.173709,0.709606
1074,-233.279927,-83.680476,28.442817,-0.336675,0.575448,1.299947
1075,-462.897688,-180.666819,13.305867,-0.411872,0.500740,1.409934
1076,-722.056916,-315.495537,75.074388,-0.502205,0.425299,1.987701
1077,-869.275959,-342.717632,106.263828,-0.175418,0.012085,1.969635
1078,-983.291371,-266.605631,151.003281,1.695094,-1.828641,1.999969
1079,-1031.021592,-149.355306,284.122988,1.107439,-1.433616,1.999969
1080,-111.024643,67.811093,-48.828870,0.229984,-1.519799,1.999969
1081,350.957504,107.057298,-96.742199,0.036133,0.830335,1.999969
1082,175.234607,101.441978,-136.842908,-0.338018,0.900649,1.490745
1083,-13.672084,18.616007,-37.598230,-0.984146,0.489387,1.022721
1084,-120.790417,-62.317845,30.701152,-0.621103,0.505257,1.252949
1085,-24.109255,-39.917601,46.204318,-0.502693,0.353521,1.163836
1086,123.659113,-5.981537,25.085832,-0.385138,0.375494,0.987320
1087,122.316320,7.507439,31.006332,-0.234379,0.500130,0.766247
1088,83.985657,4.577707,40.955215,-0.223392,0.376715,0.894911
1089,119.142443,6.713970,42.114900,-0.131228,0.319463,0.963394
1090,164.675364,11.169604,36.499580,-0.037720,0.397955,0.855970
1091,164.309148,12.390326,33.386740,0.030274,0.391119,0.928359
1092,169.253071,19.226368,28.564889,0.094606,0.317754,1.078386
1093,198.062104,31.128405,18.554971,0.150759,0.300664,1.180804
1094,216.067750,38.879988,8.911269,0.170779,0.304082,1.295674
1095,231.265736,41.870756,1.037613,0.187625,0.152468,1.260639
1096,255.436027,45.532921,-7.263294,0.156252,0.058228,1.287129
1097,270.328832,45.654994,-11.535821,0.118044,-0.039551,1.169696
1098,280.033570,44.373236,-14.038300,0.162112,-0.091798,1.115251
1099,284.733349,42.664225,-17.578393,0.223270,-0.116091,1.179095
1100,285.404746,40.650034,-22.583352,0.269902,-0.145876,1.303853
1101,289.921416,41.321431,-29.968719,0.255375,-0.197635,1.480125
1102,297.795071,47.913329,-38.147555,0.260502,-0.258305,1.646387
1103,305.485618,60.486763,-44.312200,0.210941,-0.341924,1.467308
1104,305.180438,67.017624,-49.622339,0.236332,-0.467536,1.339376
1105,290.897993,75.074388,-54.077974,0.318853,-0.528817,1.216571
1106,276.249332,82.459754,-60.730907,0.398566,-0.526131,1.164813
1107,255.497063,85.999847,-69.092851,0.489509,-0.482185,1.168963
1108,231.143664,77.393759,-77.454795,0.515755,-0.428717,1.468162
1109,214.236667,62.500954,-86.121920,0.503670,-0.389166,1.999969
1110,217.959869,50.354772,-96.742199,0.449470,-0.409918,1.999969
1111,239.810788,53.284504,-107.850767,0.338750,-0.531624,1.999969
1112,264.713512,65.918975,-112.428473,0.171023,-0.647105,1.999969
1113,286.808576,74.219883,-110.719463,0.067262,-0.776867,1.999969
1114,296.208133,79.591058,-104.005493,0.093874,-0.832776,1.921172
1115,283.512627,84.107729,-93.385214,0.152346,-0.886732,1.716579
1116,267.826352,85.877775,-80.262455,0.125490,-0.979751,1.655299
1117,257.755398,77.393759,-66.956588,0.101198,-1.108782,1.554711
1118,243.472953,68.299382,-54.016938,0.044434,-1.283467,1.500999
1119,225.711452,66.773480,-40.833143,0.014038,-1.583642,1.355123
1120,203.250172,75.684749,-28.931106,0.137087,-1.969146,1.119890
1121,164.187076,90.638590,-19.714656,0.496223,-2.000031,0.801648
1122,121.278706,114.442664,-28.564889,0.757336,-2.000031,0.598642
1123,99.488823,148.439765,-36.926833,0.597910,-2.000031,0.167971
1124,71.229114,143.617914,-17.944610,0.310307,-2.000031,-0.422492
1125,13.427939,72.816052,20.202945,0.063722,-2.000031,-0.567880
1126,-36.804761,-28.137636,59.327077,0.137087,-1.584009,-0.054078
1127,-124.208438,-137.941558,64.698253,0.546395,-1.884794,-1.193256
1128,-265.934234,-230.228122,86.976425,1.293965,-1.325338,-0.084230
1129,-249.576562,-184.328985,57.007706,1.046403,-0.658824,1.575341
1130,-120.485237,-106.446937,23.254749,0.377325,0.788830,1.999969
1131,-144.411383,-77.515831,28.076600,0.069581,0.973526,1.063127
1132,-229.800870,-84.412909,28.320745,0.098756,0.101442,-0.396368
1133,-283.390555,-72.632944,36.011292,0.041749,-0.309819,0.662486
1134,-339.848936,-88.685435,51.087205,0.351812,-0.463752,1.999969
1135,-224.063478,-39.063096,37.781338,0.386481,-0.716686,1.999969
1136,-135.072862,-28.442817,27.283131,0.100221,-0.100465,1.862821
1137,-167.421988,-46.387427,43.762875,-0.198978,0.174563,1.999969
1138,-135.805295,-67.322805,39.612421,0.216678,-0.109987,1.970611
1139,-98.695354,-67.933165,14.526589,0.882704,-0.076783,1.999969
1140,-71.778439,-32.837415,3.540093,0.437263,-0.089967,1.750271
1141,-52.674144,-20.752270,5.920500,-0.294438,0.058595,1.369894
1142,-69.214923,-31.738766,7.934691,0.258793,0.053346,1.259663
1143,-49.317159,-10.376135,0.000000,0.243412,0.169558,1.329000
1144,-59.754330,0.244144,2.990768,-0.103761,-0.096437,1.310689
1145,-26.733806,-1.220722,-1.403830,0.042847,0.011963,1.167620
1146,-30.151827,1.586938,0.854505,0.044068,0.034913,1.090471
1147,-23.926146,5.188067,1.770047,-0.048219,-0.000122,1.066911
1148,-20.325017,3.173877,1.586938,-0.013428,0.030274,0.950088
1149,-22.461280,3.295949,3.234913,0.024781,0.022339,1.044205
1150,-20.325017,5.065995,3.540093,-0.015259,-0.053834,1.032120
1151,-17.944610,5.737392,4.089418,0.022461,0.018921,1.048966
1152,-17.700465,6.164645,4.028382,-0.015137,0.000855,1.050675
1153,-16.479744,5.615320,4.150454,0.020996,0.024537,1.039567
1154,-14.892805,7.202258,3.356985,-0.009522,0.025269,1.005264
1155,-16.113527,7.324331,3.540093,0.000977,0.022827,1.032486
1156,-14.953841,8.300908,3.601129,0.001831,0.007568,1.028824
1157,-12.573434,9.460594,3.906310,-0.001953,0.003662,1.031754
1158,-11.169604,10.559243,4.455634,-0.022339,-0.021118,1.030900
1159,-8.789197,11.108568,4.882887,-0.022461,-0.000366,1.012345
1160,-7.873655,10.864424,4.821851,-0.043214,0.018311,0.988663
1161,-8.056764,9.460594,4.211490,-0.037354,0.030030,0.964858
1162,-11.596857,7.629511,3.723201,-0.044068,0.014893,0.982071
1163,-12.146181,6.103609,2.868696,-0.045777,0.003296,0.967300
1164,-11.963073,4.516670,2.075227,-0.042725,0.005249,0.971084
1165,-13.000687,2.624552,1.647974,-0.049195,-0.013184,0.987686
1166,-12.329290,1.770047,1.525902,-0.050172,-0.028565,1.010025
1167,-8.728161,1.586938,1.342794,-0.049439,-0.007324,0.982803
1168,-10.009918,-0.183108,1.037613,-0.052979,0.001953,0.997696
1169,-10.009918,-1.220722,0.732433,-0.037476,-0.021851,1.032120
1170,-7.080186,-0.061036,-0.976577,-0.031128,-0.169680,0.896742
1171,-2.624552,-0.366217,0.549325,-0.038697,0.001343,1.027970
1172,-4.394598,-0.915541,1.098650,-0.040040,0.000977,1.006851
1173,-5.188067,-0.732433,1.037613,-0.020020,-0.013550,0.982437
1174,-6.836042,0.183108,1.586938,-0.023316,-0.041505,0.969741
1175,-7.385367,1.281758,2.563516,-0.015259,-0.044190,0.994888
1176,-7.446403,2.746624,3.234913,-0.021118,-0.019532,0.990982
1177,-10.559243,3.173877,4.699779,-0.029541,-0.006470,0.976089
1178,-14.099336,1.953155,5.676356,-0.045899,0.009277,0.970474
1179,-15.014878,0.122072,5.615320,-0.044190,0.004150,0.935683
1180,-20.325017,-2.136263,5.004959,-0.041505,0.040040,0.964492
1181,-24.963760,-3.784237,4.455634,-0.049561,-0.013672,0.941421
1182,-25.207904,-5.127031,2.868696,-0.045777,-0.001709,0.958389
1183,-30.640116,-6.652934,2.746624,-0.020508,-0.030274,0.978897
1184,-38.879988,-8.178836,3.234913,-0.069825,0.003906,0.966690
1185,-37.415122,-9.521630,2.014191,-0.025879,0.014038,0.989029
1186,-42.969406,-8.789197,0.488289,-0.030152,0.000000,0.950332
1187,-47.730220,-8.422980,0.305180,-0.064820,-0.049073,0.978164
1188,-49.500267,-8.056764,2.502480,-0.022827,-0.036011,1.002701
1189,-57.740139,-6.836042,4.150454,-0.020630,-0.080812,0.984634
1190,-54.566262,-7.019150,3.356985,-0.049928,-0.103273,1.020157
1191,-43.091478,-5.310140,0.793469,-0.053101,-0.168338,1.054948
1192,-33.020523,-3.051804,5.615320,-0.062745,-0.060792,1.051774
1193,-41.504540,-4.211490,1.098650,-0.111696,-0.001465,1.047501
1194,-61.158160,-11.291676,-19.226368,-0.130739,-0.004395,0.984268
1195,-59.876402,-0.183108,-39.307240,-0.002686,-0.292729,0.992203
1196,-59.815366,2.258335,-37.415122,0.076173,-0.328374,1.068498
1197,-25.574121,-2.807660,-15.991455,0.006714,-0.187747,1.041032
1198,-35.584039,-11.474784,-11.291676,-0.086549,0.015869,1.035172
1199,-66.712444,-16.479744,-19.775692,-0.006226,-0.081422,1.045182
1200,-61.829557,-16.723888,-22.461280,-0.006592,0.004273,0.914687
1201,-71.168078,-14.709697,-21.728847,0.020874,0.310552,0.852186
1202,-115.236133,-27.344167,-26.672770,-0.038819,0.435187,1.068254
1203,-188.174258,-20.630198,-45.410849,0.391608,1.066056,0.924208
1204,-395.880064,26.489662,-83.802548,0.517708,1.501244,1.521752
1205,-712.352178,48.706798,-57.801175,0.160159,1.111955,1.908721
1206,-870.679789,45.044633,13.061723,0.029664,0.326421,1.738796
1207,-904.737926,47.669184,57.434958,0.375738,0.196292,1.139666
1208,-1075.883116,35.767147,106.630045,-0.792370,-2.000031,1.999969
1209,-603.524834,-50.720989,31.616693,-2.000031,-1.485496,1.999969
1210,218.081941,-81.849393,-82.032502,-0.953750,0.822156,1.999969
1211,353.215839,-83.863584,-71.534295,-1.050065,1.401755,1.999969
1212,99.183642,-92.408637,-54.627298,-0.717418,1.015763,1.766873
1213,-28.320745,-113.527123,50.720989,-0.500740,0.623056,0.281621
1214,-49.927520,-114.076448,43.518730,-0.266484,0.492317,0.653574
1215,58.594644,-68.360418,8.606088,-0.332403,0.332036,0.721202
1216,93.812467,-41.992828,3.906310,-0.376715,0.677256,0.742443
1217,61.219196,-34.485389,12.512398,-0.431891,0.603769,0.982193
1218,89.112688,-31.799802,16.235599,-0.491463,0.488533,1.151263
1219,136.110475,-33.813993,21.057450,-0.452888,0.513436,1.068254
1220,155.214771,-41.016251,28.381781,-0.380133,0.510872,1.066300
1221,173.769741,-45.166705,32.532235,-0.318364,0.439216,1.183612
1222,202.761883,-41.565576,31.616693,-0.268803,0.381842,1.249287
1223,227.481498,-33.081559,28.381781,-0.236942,0.317632,1.304829
1224,247.989624,-20.874342,24.414435,-0.227420,0.210208,1.319112
1225,270.450904,-7.080186,20.569162,-0.229740,0.089113,1.202289
1226,289.188983,3.356985,18.066682,-0.214725,-0.012451,1.073014
1227,298.222324,5.371176,17.883574,-0.203250,-0.076539,0.979263
1228,304.386969,0.549325,17.761501,-0.127810,-0.108766,0.988540
1229,308.598459,-4.272526,14.221408,-0.032715,-0.127810,1.063615
1230,308.964675,-1.770047,5.127031,0.059205,-0.218997,0.984024
1231,301.213092,11.413748,-8.117800,0.130373,-0.376959,0.750744
1232,278.446632,32.593271,-19.348440,0.151614,-0.424201,0.762829
1233,251.590753,35.156786,-27.649348,0.157717,-0.353521,1.068498
1234,240.970474,26.611734,-37.964446,0.210330,-0.172976,1.581811
1235,240.787366,24.841688,-49.195087,0.132692,-0.155642,1.999969
1236,243.533989,39.734493,-56.336309,0.049805,-0.349126,1.999969
1237,266.117342,63.416495,-60.181582,-0.054688,-0.496101,1.999969
1238,279.789426,73.182269,-55.420768,-0.167727,-0.524056,1.999969
1239,277.286946,62.134737,-42.542153,-0.274052,-0.608774,1.999969
1240,294.560159,45.227741,-30.029755,-0.206546,-0.726207,1.999969
1241,323.613336,45.166705,-25.024796,-0.106569,-0.772595,1.999969
1242,325.566491,55.848020,-24.841688,-0.043458,-0.836683,1.999969
1243,310.246433,69.031815,-27.038987,0.064576,-0.941299,1.754788
1244,289.921416,83.497368,-31.006332,0.208011,-0.924331,1.871244
1245,267.460136,88.868544,-35.461967,0.262089,-1.037247,1.999969
1246,265.568017,93.141070,-38.818952,0.300908,-1.229023,1.955352
1247,259.159228,95.887694,-39.490349,0.328008,-1.489525,1.554711
1248,230.899519,92.469673,-34.119173,0.405768,-1.913359,1.121477
1249,186.221103,88.380255,-28.015564,0.583627,-2.000031,0.767590
1250,130.128939,86.305028,-34.119173,0.914321,-2.000031,0.683238
1251,81.422141,94.483864,-48.218509,1.107073,-2.000031,0.433112
1252,78.980697,99.122606,-58.960861,0.818860,-2.000031,-0.277104
1253,55.603876,53.284504,-44.739452,0.309331,-2.000031,-0.859144
1254,-64.515145,-53.162432,-16.601816,-0.145266,-2.000031,-2.000031
1255,-262.149996,-190.432593,54.627298,0.353521,-2.000031,-0.549691
1256,-271.976806,-173.525597,52.796216,0.414557,-0.829969,1.999969
1257,-140.138857,-74.952316,23.376822,-0.288212,0.790539,1.999969
1258,-125.795377,-55.970092,30.151827,-0.363043,0.996963,0.963272
1259,-246.890974,-88.014038,44.983597,0.116091,0.037110,-0.510262
1260,-309.330892,-73.731594,59.143969,0.539193,-0.442512,0.655406
1261,-324.895094,-59.327077,58.838788,1.070207,-0.244755,1.999969
1262,-240.421149,-10.193027,29.297322,0.997208,-0.329595,1.999969
1263,-161.562524,20.447089,-1.159686,0.112551,-0.079957,1.543114
1264,-192.141604,-8.178836,25.329976,-1.360250,0.039063,1.999969
1265,-179.262989,-82.703899,62.195773,-1.073014,-0.827893,1.737331
1266,-86.366064,-130.556191,36.560616,1.154803,0.106569,1.999969
1267,-80.445563,-65.491722,10.498207,1.778470,-0.056031,1.999969
1268,-61.768521,10.803388,7.812619,-0.525765,0.147097,1.076066
1269,-84.534981,-30.579080,12.756542,-0.455085,-0.046265,0.969375
1270,-60.486763,-38.941024,-2.929732,0.720714,0.134890,1.917510
1271,-49.561303,-0.366217,-1.647974,-0.128908,-0.068238,1.019913
1272,-39.368276,-11.474784,0.183108,-0.155032,-0.035157,1.192889
1273,-26.733806,-10.131991,0.000000,0.198978,0.026246,1.130510
1274,-23.865110,-0.976577,1.892119,-0.086427,0.013550,1.073136
1275,-19.653620,-3.173877,2.380407,0.040284,0.043458,1.082902
1276,-16.479744,2.990768,0.488289,0.035157,0.014771,0.950820
1277,-23.743038,4.516670,4.577707,-0.035157,0.044434,1.048478
1278,-20.752270,4.150454,4.760815,0.014771,0.026246,1.053483
1279,-20.263981,5.737392,4.760815,-0.006958,0.019043,1.024552
1280,-19.470512,6.103609,5.065995,-0.009033,0.000855,1.023941
1281,-17.212177,6.103609,5.249104,-0.015137,0.010132,1.025528
1282,-16.723888,5.432212,5.371176,-0.039551,-0.006104,1.020890
1283,-14.526589,4.028382,4.577707,-0.103761,0.109499,1.259785
1284,-10.376135,2.380407,4.455634,-0.046143,-0.031495,0.988296
1285,-12.329290,-1.281758,3.784237,-0.057130,-0.000488,0.924697
1286,-12.573434,-4.577707,2.746624,-0.050172,0.036622,0.951431
1287,-16.357671,-7.019150,2.014191,-0.029786,0.025757,0.993057
1288,-18.982223,-8.484016,1.464866,-0.027588,0.007324,0.991348
1289,-19.104295,-8.911269,0.976577,-0.020996,-0.007568,0.985489
1290,-16.418708,-8.667124,0.305180,-0.029175,0.009277,0.990860
1291,-18.066682,-9.094377,0.305180,-0.014893,-0.010620,0.996109
1292,-19.104295,-8.178836,0.671397,-0.004883,-0.007080,1.023819
1293,-18.432898,-6.591897,1.159686,-0.012818,-0.031495,0.995743
1294,-16.723888,-5.920500,1.525902,-0.008911,-0.037354,0.984634
1295,-17.517357,-5.615320,2.136263,0.002930,-0.043946,0.997330
1296,-15.686275,-5.065995,1.892119,-0.018311,-0.027955,0.994400
1297,-15.991455,-4.943923,1.586938,-0.019532,-0.026612,0.998428
1298,-14.343481,-5.127031,1.342794,-0.022950,-0.007324,0.997574
1299,-15.747311,-5.371176,1.770047,-0.003784,-0.013672,1.006241
1300,-16.052491,-4.516670,2.014191,-0.003662,-0.038209,1.009293
1301,-14.404517,-4.028382,2.014191,-0.006836,-0.018555,0.988296
1302,-16.296635,-4.211490,1.586938,-0.005615,-0.021851,0.988540
1303,-17.517357,-4.272526,1.464866,0.010620,-0.044678,1.018570
1304,-16.418708,-3.662165,1.464866,-0.009888,-0.035279,0.997574
1305,-18.371862,-3.601129,1.464866,-0.031983,-0.031739,0.973037
1306,-18.432898,-4.455634,1.342794,-0.023438,-0.029053,0.971695
1307,-19.531548,-5.371176,0.122072,-0.009033,-0.023316,0.983413
1308,-21.484703,-5.737392,-1.220722,-0.003662,-0.041382,1.030655
1309,-21.972992,-5.004959,-1.464866,0.019532,-0.052613,1.001358
1310,-20.141909,-3.356985,-1.647974,0.015137,-0.031128,0.977554
1311,-25.940337,-2.746624,-0.976577,-0.028321,-0.055177,0.965103
1312,-27.710384,-3.845274,1.037613,-0.001831,-0.036255,0.969253
1313,-31.006332,-4.455634,1.709010,-0.024903,-0.053346,0.910292
1314,-34.180209,-6.042573,3.356985,-0.018677,-0.059693,0.976577
1315,-40.222782,-4.089418,4.028382,0.055299,-0.074220,1.128191
1316,-37.903410,0.183108,4.577707,-0.005127,-0.108766,1.030777
1317,-34.912642,0.854505,5.065995,-0.001709,-0.118288,0.983902
1318,-33.264668,1.709010,5.798428,-0.002197,-0.076417,0.989273
1319,-35.950256,1.037613,2.502480,-0.048585,-0.036378,0.977066
1320,-38.208591,-1.403830,-2.136263,-0.065675,-0.073610,0.965103
1321,-37.170977,-2.685588,-5.432212,-0.033448,-0.061891,0.970596
1322,-43.335622,-5.432212,-14.343481,-0.070924,0.020264,1.092790
1323,-63.111315,-0.976577,-32.166018,-0.027222,-0.123537,0.970962
1324,-58.899825,3.723201,-32.776379,0.061769,-0.336187,1.017350
1325,-33.752956,-3.173877,-16.601816,0.068727,-0.263066,1.037003
1326,-27.649348,-5.493248,-9.460594,-0.006836,-0.096925,0.989517
1327,-44.190127,-6.042573,-11.657893,0.006592,0.090455,0.993301
1328,-73.548486,-3.601129,-20.569162,-0.002686,0.221195,0.948501
1329,-117.311360,-5.676356,-28.809033,0.077516,0.078614,0.902846
1330,-106.263828,-8.178836,-14.404517,0.032105,0.339849,0.968032
1331,-160.280766,-12.024109,-41.138323,-0.180179,0.481819,1.070085
1332,-279.056992,-27.161059,-47.791257,-0.190799,0.926284,1.505882
1333,-548.714427,-15.320058,-52.979324,-0.049195,0.672374,1.469383
1334,-682.017243,-71.290150,18.554971,-0.614511,0.021607,1.223896
1335,-810.803388,-164.187076,61.524376,-0.269902,-0.079469,1.052384
1336,-891.798276,-223.941405,84.046693,0.180179,-0.783581,1.539452
1337,-1129.289693,-252.018006,228.274968,-1.092912,-0.461067,1.999969
1338,-324.040589,-138.063630,62.378882,-0.594980,-1.089616,1.999969
1339,335.027085,-42.542153,-41.565576,-0.144411,1.080705,1.999969
1340,307.743954,29.236286,-59.754330,0.122927,1.580224,1.381735
1341,121.034562,42.114900,-36.377508,-0.579232,0.591073,0.711803
1342,-18.432898,2.929732,22.705425,-0.349493,0.294316,-0.099611
1343,-16.845960,5.859464,37.598230,-0.213870,0.112551,0.004883
1344,70.923934,9.521630,15.625238,-0.202152,0.145266,0.289555
1345,89.478904,2.136263,17.029068,-0.039185,0.462287,0.325444
1346,54.077974,-11.779965,19.348440,0.051392,0.487678,0.652720
1347,76.356146,-12.512398,10.620279,0.126833,0.495125,0.984512
1348,120.729381,-4.272526,-4.943923,0.151369,0.581308,1.072160
1349,135.317006,2.014191,-16.723888,0.137697,0.583383,1.241840
1350,154.970626,8.606088,-26.001373,0.074952,0.478645,1.414328
1351,194.522011,13.183795,-33.875029,0.002564,0.382696,1.462181
1352,227.420462,15.014878,-37.293050,-0.031250,0.293095,1.480858
1353,250.919356,15.747311,-35.461967,-0.118044,0.216312,1.549096
1354,276.859693,19.226368,-34.668498,-0.128786,0.032837,1.465476
1355,306.279088,25.207904,-32.654307,-0.111940,-0.076417,1.240253
1356,317.143511,25.085832,-29.358358,-0.073243,-0.138308,1.007462
1357,317.326619,25.818265,-27.771420,-0.036622,-0.201907,0.848524
1358,308.781567,31.616693,-29.907683,0.025635,-0.320195,0.567514
1359,282.963302,50.843061,-34.973678,0.134401,-0.490120,0.327520
1360,247.379263,76.295109,-37.232013,0.191287,-0.449470,0.598886
1361,216.739147,72.266728,-38.696880,0.187747,-0.269535,1.159930
1362,212.100404,48.950942,-43.091478,0.198611,-0.207156,1.873320
1363,228.519112,46.326390,-47.791257,0.209720,-0.212894,1.999969
1364,249.576562,65.247578,-51.636530,0.195560,-0.390265,1.999969
1365,266.605631,83.131151,-54.139010,0.136965,-0.612192,1.995270
1366,273.136492,93.934539,-54.383154,0.120119,-0.683604,1.671168
1367,247.867552,88.929580,-48.462654,0.031373,-0.777966,1.720485
1368,233.035782,75.074388,-41.382467,0.084596,-0.828260,1.999969
1369,235.660334,68.299382,-39.429313,0.134157,-0.858289,1.999969
1370,252.323186,73.792630,-38.941024,0.199222,-0.876478,1.999969
1371,264.469368,82.032502,-41.382467,0.232792,-0.893812,1.999969
1372,264.835584,83.131151,-41.870756,0.293706,-0.924941,1.950958
1373,261.051347,75.318532,-40.955215,0.284306,-0.979385,1.917632
1374,262.211032,63.782712,-38.818952,0.260380,-1.104387,1.782864
1375,261.844816,56.641489,-36.865797,0.279667,-1.224262,1.528222
1376,245.365072,54.505226,-34.180209,0.261601,-1.398825,1.285908
1377,222.842756,53.711757,-31.799802,0.212284,-1.605737,1.104387
1378,197.695888,56.580453,-29.968719,0.163699,-1.855619,0.909316
1379,166.262303,64.881361,-27.710384,0.214969,-2.000031,0.768444
1380,126.222629,79.530022,-27.954528,0.297368,-2.000031,0.606332
1381,90.882734,103.883421,-30.884260,0.258061,-2.000031,0.299077
1382,67.261769,120.057984,-24.597543,0.056397,-2.000031,-0.152224
1383,21.484703,94.544900,1.342794,-0.236576,-2.000031,-0.319707
1384,-30.579080,35.095750,40.039673,-0.796033,-2.000031,-0.585214
1385,-158.022431,-108.644236,88.502327,-0.137453,-2.000031,-1.801297
1386,-214.663920,-203.677424,100.404364,0.734997,-0.379034,1.340963
1387,-130.434119,-95.460441,72.755016,0.183597,0.787732,1.999969
1388,-129.945830,-78.370336,64.820325,-0.233158,1.286885,0.940200
1389,-270.145724,-140.016785,97.291524,0.495247,0.432136,0.274907
1390,-326.482033,-112.001221,96.803235,1.126970,-0.440803,0.891249
1391,-276.554513,-61.890593,66.590372,1.360372,-0.233158,1.999969
1392,-236.758984,-42.298009,35.767147,1.735988,0.096559,1.999969
1393,-176.760510,18.249790,-4.943923,0.807507,-0.120241,1.999969
1394,-164.980545,49.927520,-14.099336,-0.477546,-0.069581,1.415549
1395,-204.104677,22.217136,26.428626,-2.000031,-0.288457,1.999969
1396,-137.941558,-84.657053,62.073701,-1.070207,-0.728283,1.435080
1397,-55.603876,-133.607996,26.855879,1.326802,0.167605,1.999969
1398,-68.116274,-64.576181,17.883574,1.539330,0.183841,1.693874
1399,-81.910430,-10.131991,11.169604,-0.576791,0.091066,1.030045
1400,-99.977111,-54.322118,18.249790,-0.523201,-0.079591,1.188861
1401,-46.814679,-58.411536,2.929732,0.679210,0.125246,1.745266
1402,-40.711070,-24.902724,-1.770047,0.083742,-0.005615,1.064225
1403,-42.725261,-26.123445,0.427253,-0.094606,-0.116457,1.220722
1404,-9.094377,-27.466239,-3.723201,0.075441,0.081910,1.044450
1405,-27.161059,-21.606775,-3.356985,0.081056,0.071046,1.015640
1406,-35.767147,-19.226368,-1.525902,-0.062135,-0.072755,1.119646
1407,-10.315099,-15.259022,-1.159686,0.125978,0.041749,1.032731
1408,-25.024796,-7.446403,1.098650,0.062623,0.071656,1.050309
1409,-24.780652,-5.127031,2.685588,0.023438,-0.018311,1.083024
1410,-14.160372,-2.014191,2.441444,0.066896,0.004273,0.960342
1411,-20.325017,-1.403830,3.234913,0.003418,-0.012573,1.028214
1412,-13.427939,-1.586938,2.746624,0.028565,0.009766,1.003311
1413,-14.892805,-0.488289,2.075227,0.029786,0.046632,0.983047
1414,-21.240558,-1.709010,0.915541,-0.030762,-0.008057,1.000015
1415,-17.029068,-3.234913,0.122072,0.010254,-0.002441,0.998184
1416,-19.714656,-2.990768,-0.122072,0.030518,-0.017212,1.015885
1417,-18.432898,-1.770047,0.671397,0.020996,-0.038575,1.044938
1418,-12.817578,-1.403830,0.793469,0.011109,-0.020264,1.029435
1419,-12.634470,-1.403830,1.037613,0.031739,-0.036133,1.028214
1420,-9.826810,-1.037613,0.854505,0.015259,-0.037354,1.013809
1421,-7.507439,-0.976577,0.366217,0.017700,-0.021485,0.981582
1422,-8.972305,-1.220722,0.000000,0.019409,-0.020020,1.001968
1423,-9.399557,-1.098650,-0.366217,0.011719,-0.020996,1.001236
1424,-9.765774,-0.976577,-0.549325,0.021241,-0.021241,0.994400
1425,-10.070954,-0.549325,-0.427253,0.013062,-0.024170,0.990127
1426,-11.779965,-0.305180,-0.122072,0.014038,-0.026978,0.987808
1427,-12.085145,-0.549325,-0.244144,0.017823,-0.041016,0.992813
1428,-11.291676,-0.305180,0.122072,0.021973,-0.038209,1.018570
1429,-9.704738,0.061036,0.671397,0.009400,-0.040650,1.042008
1430,-6.713970,0.122072,0.793469,0.019287,-0.072145,1.028458
1431,-2.624552,0.122072,0.488289,0.026001,-0.037842,1.014908
1432,-1.831083,0.122072,0.366217,0.019898,-0.036866,0.985489
1433,-1.953155,-0.427253,0.366217,0.013550,-0.018311,0.977920
1434,-3.906310,-0.732433,0.366217,0.015381,-0.012085,0.973404
1435,-6.347753,-0.915541,0.366217,0.012940,-0.023682,0.999405
1436,-6.775006,-0.732433,0.793469,0.014771,-0.038697,0.992447
1437,-7.751583,-0.976577,0.732433,0.010376,-0.024414,0.998795
1438,-8.056764,-1.098650,0.671397,0.015869,-0.047730,1.013077
1439,-6.897078,-0.915541,0.671397,0.020264,-0.054444,1.022599
1440,-5.004959,-0.732433,0.671397,0.027466,-0.052857,1.018082
1441,-3.723201,-0.305180,0.549325,0.022950,-0.051392,1.003555
1442,-2.258335,-0.061036,0.305180,0.019654,-0.047852,1.018082
1443,-1.647974,-0.183108,0.000000,0.012085,-0.042237,0.995621
1444,-1.831083,-0.732433,0.000000,0.004395,-0.031250,0.995254
1445,-2.319371,-1.525902,-0.183108,0.003906,-0.017090,0.964248
1446,-6.347753,-2.136263,-0.305180,0.015625,-0.015259,0.952407
1447,-9.826810,-2.014191,-0.427253,0.028321,-0.031495,0.980728
1448,-11.169604,-1.525902,0.000000,0.014160,-0.044190,0.995499
1449,-11.902037,-1.464866,0.244144,0.030640,-0.050660,1.000992
1450,-10.620279,-0.732433,-0.183108,0.009644,-0.032349,0.997574
1451,-12.939651,-0.793469,-1.220722,0.014405,-0.046754,1.018204
1452,-13.611048,-0.732433,-1.953155,0.022217,-0.047242,1.021988
1453,-10.193027,0.122072,-2.075227,0.019898,-0.045655,1.010513
1454,-13.000687,0.427253,-2.563516,0.012696,-0.056519,1.022110
1455,-12.085145,0.671397,-2.624552,0.033082,-0.078981,1.054093
1456,-10.193027,1.709010,-1.770047,0.029664,-0.100832,1.056779
1457,-4.150454,2.258335,0.000000,-0.017456,-0.062989,0.903212
1458,-2.929732,1.586938,0.854505,0.018799,0.067384,0.887953
1459,-27.222095,2.441444,2.746624,0.062379,0.011719,1.052018
1460,-24.597543,3.723201,2.014191,0.015259,-0.044190,0.984512
1461,-21.118486,5.737392,1.586938,0.028931,0.022827,0.967300
1462,-38.696880,6.530861,3.051804,0.003174,-0.001221,0.994644
1463,-39.551385,6.897078,0.732433,-0.004517,0.004273,0.968521
1464,-39.429313,8.117800,-5.554284,-0.025635,0.043458,0.956558
1465,-46.631571,6.836042,-14.282444,-0.080568,0.010010,0.854871
1466,-52.796216,0.000000,-28.320745,-0.156252,-0.018921,0.957900
1467,-68.116274,-5.859464,-46.692607,-0.051270,0.012940,0.851209
1468,-99.794003,-2.319371,-50.720989,0.232914,-0.122683,1.003677
1469,-93.018997,1.281758,-30.884260,0.132937,-0.079347,0.993790
1470,-109.925994,4.760815,-24.597543,0.005493,-0.003418,0.949722
1471,-137.209125,0.000000,-11.963073,-0.154910,0.023438,0.936782
1472,-164.980545,-11.596857,6.042573,-0.149416,-0.073121,1.238544
1473,-207.766842,-26.306554,4.943923,-0.077394,-0.093874,1.097063
1474,-237.857633,-31.067369,11.169604,-0.057130,-0.062867,1.130388
1475,-273.197528,-75.562676,7.934691,-0.405035,-0.290166,0.932143
1476,-304.325933,-120.241093,14.526589,-0.132082,-0.400031,0.908095
1477,-307.377737,-142.885481,28.442817,0.027222,-0.259281,1.118914
1478,-326.298924,-157.656214,36.682689,0.162112,0.000488,1.292988
1479,-302.372778,-143.923095,36.865797,0.287236,0.523201,1.999969
1480,-286.015106,-96.742199,36.255436,0.162234,0.109255,1.999969
1481,-230.411231,-48.828870,34.973678,-0.211673,0.285405,1.999969
1482,84.412909,35.828183,-40.039673,-0.037110,0.342779,1.999969
1483,206.546120,64.820325,-64.576181,-0.212894,0.501595,1.155413
1484,129.091325,50.171664,-33.447776,-0.316411,0.303960,0.360479
1485,93.324178,41.870756,-18.432898,-0.303716,-0.040284,0.236576
1486,133.485924,50.904097,-14.709697,-0.224125,0.031617,0.210941
1487,119.081407,46.570535,-6.469825,-0.122560,0.160525,0.507942
1488,113.954376,41.565576,-1.953155,-0.043214,0.126955,0.943374
1489,148.134585,45.410849,-5.554284,0.025513,0.158938,1.053117
1490,167.849241,51.331350,-10.437171,0.107424,0.173709,1.004776
1491,175.783932,55.298695,-14.831769,0.147951,0.082887,0.968032
1492,192.202640,55.725948,-20.386053,0.188479,0.001221,0.883070
1493,202.395666,52.063783,-25.329976,0.200809,-0.062501,0.791516
1494,203.616388,45.349813,-29.053178,0.209842,-0.103273,0.855360
1495,206.363012,42.664225,-32.349126,0.156130,-0.166140,0.957778
1496,212.344549,42.969406,-33.325704,0.029664,-0.240726,0.935439
1497,214.785992,40.772107,-28.870069,-0.136721,-0.266606,0.983413
1498,211.734188,34.790570,-18.310826,-0.308354,-0.326055,1.151629
1499,215.762570,30.518044,-4.333562,-0.392706,-0.396735,1.206561
1500,223.270008,35.950256,9.521630,-0.324712,-0.425788,1.183001
1501,218.875410,54.505226,20.325017,-0.148562,-0.457771,1.120623
1502,206.424048,72.571908,29.480430,-0.066041,-0.542367,1.089494
1503,192.385748,81.666285,37.781338,-0.037354,-0.688975,1.150408
1504,185.305562,82.093538,47.852293,0.071778,-0.794324,1.100847
1505,172.915236,81.605249,56.641489,0.166018,-0.854505,1.023453
1506,149.965667,78.919661,62.684062,0.266606,-0.940688,0.960830
1507,132.753491,70.435645,65.613794,0.316289,-0.956680,0.831556
1508,113.466087,51.087205,64.026856,0.337896,-0.998428,0.445930
1509,80.750744,24.597543,57.618067,0.350591,-1.033463,0.123903
1510,-41.748684,-50.904097,44.495308,-0.144656,-2.000031,-2.000031
1511,-227.420462,-55.542840,66.956588,0.255741,-2.000031,-1.600366
1512,-533.028153,-253.421836,98.634318,-1.846220,0.302373,1.999969
1513,-438.117037,-125.246052,-17.639429,1.999969,-2.000031,1.999969
1514,663.523308,62.134737,-19.714656,-0.458015,0.412726,1.566796
1515,467.963684,89.600977,-215.091173,-0.252323,1.999969,-0.191165
1516,-24.841688,33.936065,-64.026856,-1.019547,0.732189,-0.490486
1517,-304.509041,-73.670558,124.940871,-0.000366,-0.635630,-0.277958
1518,-383.611811,-84.901198,162.600137,0.410529,-0.291508,1.999969
1519,-67.566949,3.601129,-11.169604,-0.005982,-1.056291,1.999969
1520,179.140917,11.963073,-34.607462,0.151125,0.125246,0.031373
1521,-24.719615,-10.742351,2.868696,0.210819,0.541146,0.936660
1522,-97.779812,-10.376135,14.526589,-0.084718,-0.171389,1.106828
1523,25.207904,1.403830,-2.136263,-0.072145,0.043336,1.134661
1524,-10.864424,-6.836042,-0.305180,0.043580,0.134279,0.932631
1525,-21.423667,-6.897078,-1.159686,-0.057618,-0.041871,1.035416
1526,-1.098650,-6.164645,-2.563516,0.038697,0.025879,1.079362
1527,-8.545052,-2.746624,-1.098650,0.057740,-0.014038,1.079728
1528,1.403830,2.746624,-0.122072,-0.005859,0.018799,1.000626
1529,-1.586938,3.173877,0.671397,-0.016724,0.055299,0.955703
1530,-7.263294,2.014191,1.037613,-0.032471,0.041138,0.937270
1531,-8.056764,0.488289,0.915541,-0.012451,0.042969,0.960220
1532,-13.611048,-0.183108,1.464866,0.007691,-0.006714,1.044205
1533,-5.615320,1.098650,1.037613,-0.016846,-0.002564,1.023819
1534,-2.685588,0.488289,0.732433,-0.015747,0.030396,0.964126
1535,-5.615320,-1.464866,0.305180,-0.040406,0.033936,0.959731
1536,-7.873655,-4.333562,-0.305180,-0.034546,0.032715,0.968399
1537,-8.850233,-6.408789,-1.098650,-0.011475,0.013550,1.002090
1538,-8.300908,-6.713970,-1.159686,0.003296,-0.004883,1.024186
1539,-5.493248,-6.042573,-0.915541,0.004639,-0.007568,1.021256
1540,-2.258335,-3.845274,-2.197299,-0.001465,-0.084596,0.909071
1541,-2.441444,-4.272526,0.183108,-0.006104,0.061646,1.034928
1542,-4.028382,-3.784237,-0.427253,0.004883,-0.009766,1.036515
1543,-1.892119,-2.441444,-0.732433,0.018555,0.007568,1.005142
1544,-1.647974,-1.464866,-0.549325,0.006470,0.010132,1.009781
1545,-0.366217,-0.488289,-0.549325,0.016846,0.010986,1.013443
1546,-0.122072,0.366217,-0.183108,0.007446,0.008545,1.008682
1547,0.244144,1.159686,0.000000,-0.001709,0.011841,1.004898
1548,-0.427253,1.098650,0.183108,-0.009888,0.009522,0.993912
1549,-0.122072,0.793469,0.000000,-0.003052,0.015015,1.001602
1550,-0.732433,0.427253,-0.244144,-0.005493,0.007080,1.003433
1551,0.305180,0.427253,0.000000,-0.002686,0.006470,1.006973
1552,0.671397,0.671397,0.061036,-0.001221,0.017700,0.997940
1553,0.244144,0.671397,0.305180,-0.001465,0.006958,1.011368
1554,1.342794,0.854505,0.061036,0.008545,0.012940,1.005875
1555,1.403830,1.037613,0.061036,0.002686,0.007446,1.024308
1556,2.746624,1.892119,0.061036,0.009522,0.004517,1.014786
1557,4.333562,2.685588,0.122072,0.001709,0.001587,1.013199
1558,4.699779,3.234913,0.183108,0.008423,0.012940,1.005142
1559,5.798428,3.662165,0.305180,-0.000977,0.008301,1.013931
1560,6.713970,4.150454,0.366217,-0.006470,0.020752,0.995499
1561,6.713970,3.906310,0.488289,-0.011963,0.024781,0.971206
1562,5.371176,2.929732,0.427253,-0.017456,0.037720,0.957534
1563,2.502480,1.770047,0.427253,-0.025269,0.036133,0.952895
1564,0.793469,0.244144,0.122072,-0.018677,0.027955,0.982315
1565,0.305180,-0.854505,-0.366217,-0.017090,0.038087,0.971328
1566,-1.525902,-1.770047,-0.610361,0.000610,0.023316,0.994644
1567,-1.281758,-1.403830,-0.427253,-0.010132,0.014527,1.006119
1568,-0.305180,-1.464866,-0.488289,-0.003906,0.025635,1.013199
1569,-1.098650,-1.586938,-0.732433,-0.006348,0.010010,0.997208
1570,-0.244144,-1.647974,-0.732433,-0.011109,0.021241,0.991836
1571,-0.366217,-2.197299,-0.427253,-0.013916,0.009522,0.986221
1572,0.610361,-2.868696,-0.244144,-0.020752,0.016358,0.953994
1573,-0.732433,-4.333562,0.000000,-0.017823,0.034546,0.952041
1574,-3.662165,-5.798428,0.000000,-0.018799,0.041016,0.967788
1575,-5.676356,-6.408789,-0.305180,0.015503,0.033692,1.002823
1576,-6.103609,-4.699779,-0.427253,0.003052,0.030274,1.004044
1577,-7.019150,-4.699779,-0.549325,-0.000977,0.020630,1.010269
1578,-7.263294,-4.150454,-0.671397,0.024903,-0.014527,1.055802
1579,-0.915541,-1.831083,-0.610361,0.030396,-0.017456,1.057877
1580,1.709010,0.915541,-0.122072,0.033448,-0.004639,1.048356
1581,3.723201,2.746624,0.671397,-0.003540,-0.014893,1.008560
1582,7.141222,2.807660,1.220722,-0.017700,0.016724,0.989517
1583,8.056764,0.671397,0.915541,-0.067628,0.062745,0.886488
1584,-2.258335,-4.211490,0.671397,-0.005615,0.045289,0.955825
1585,-2.929732,-4.272526,0.183108,0.011963,0.021851,0.980240
1586,-2.929732,-2.868696,-0.122072,0.031983,0.017090,1.006363
1587,-6.836042,-1.586938,0.976577,0.032837,-0.056519,1.129534
1588,11.291676,3.540093,0.427253,0.034180,0.014282,1.007950
1589,5.676356,4.760815,0.976577,-0.037842,0.101808,0.915053
1590,-5.859464,1.281758,0.671397,-0.025391,0.050294,0.948867
1591,-6.042573,-1.831083,-0.915541,-0.061524,0.032349,0.937881
1592,-7.141222,-5.737392,-2.197299,-0.002808,0.027100,0.961685
1593,-9.887846,-5.859464,-2.075227,-0.005615,0.012451,1.011124
1594,-7.080186,-5.432212,-1.647974,0.013184,0.024659,0.957778
1595,-13.427939,-4.211490,-0.366217,0.016358,-0.024659,1.047257
1596,-6.408789,-3.295949,-0.366217,0.017578,-0.015625,1.043229
1597,0.488289,-1.831083,-1.770047,0.014405,0.070924,0.944228
1598,-14.709697,-2.685588,-0.793469,0.036988,-0.019043,1.054459
1599,-1.220722,2.014191,-0.915541,0.006348,0.030884,0.987198
1600,-12.146181,1.281758,0.244144,-0.000732,0.026246,0.989639
1601,-9.094377,0.427253,0.000000,-0.035645,0.006104,0.979507
1602,-8.728161,-2.624552,-0.854505,-0.025025,0.015259,0.975845
1603,-9.826810,-5.493248,-1.770047,-0.014649,-0.027588,1.022477
1604,-4.882887,-5.920500,-1.892119,0.029786,-0.063600,1.141619
1605,4.333562,-2.502480,-1.525902,0.047364,-0.055421,1.066423
1606,8.606088,0.854505,-0.549325,0.023072,-0.004150,0.988174
1607,8.178836,2.502480,0.488289,-0.002319,0.058717,0.953872
1608,-1.037613,2.624552,0.732433,-0.008789,0.042847,0.969986
1609,-4.333562,1.586938,0.671397,0.009644,-0.007691,1.011246
1610,0.793469,2.075227,0.000000,-0.001343,0.011597,0.987930
1611,-2.380407,0.793469,0.000000,-0.033692,0.032471,0.940932
1612,-4.638743,-2.746624,-0.915541,-0.041382,0.008301,0.987320
1613,-5.676356,-5.004959,-1.159686,0.019287,-0.037720,1.058854
1614,3.662165,-2.624552,-1.403830,0.011109,0.000244,1.009537
1615,-0.915541,-3.112840,-0.732433,0.002319,-0.013550,1.017472
1616,4.882887,-2.807660,-1.220722,0.003662,-0.001099,1.004898
1617,3.418021,-2.685588,-0.915541,0.014282,0.008911,1.014542
1618,4.516670,-1.953155,-0.793469,0.005737,0.006958,0.996231
1619,5.004959,-0.793469,-0.732433,0.022950,0.035279,0.971206
1620,-0.793469,-0.732433,-0.183108,-0.013062,0.020264,0.978286
1621,-0.854505,-1.220722,-0.488289,0.009888,-0.004395,1.023575
1622,2.502480,-0.732433,-0.915541,0.019043,-0.001953,1.020768
1623,3.051804,0.366217,-0.671397,0.021851,-0.004761,1.028946
1624,4.943923,1.831083,-0.244144,0.013428,0.001221,1.019059
1625,6.042573,2.685588,0.122072,0.008545,0.004639,1.003433
1626,6.713970,2.441444,0.488289,-0.019043,0.029175,0.930678
1627,3.601129,0.793469,0.549325,-0.012573,0.065064,0.908949
1628,-5.004959,-1.831083,0.305180,-0.023194,0.043580,0.956924
1629,-7.568475,-3.295949,0.183108,0.002930,0.012818,0.999283
1630,-6.103609,-2.563516,0.366217,0.010010,0.005249,1.004776
1631,-6.836042,-2.197299,0.671397,0.004150,-0.007935,1.013077
1632,-3.418021,-1.770047,0.671397,0.003418,0.017334,1.005020
1633,-5.920500,-2.014191,0.000000,-0.010742,0.016114,0.995621
1634,-6.713970,-3.112840,-1.159686,-0.000732,-0.000732,1.020890
1635,-0.915541,-2.624552,-5.676356,0.012818,-0.018555,1.021988
1636,6.836042,-1.342794,-7.324331,-0.016480,0.022095,0.958145
1637,-13.366903,-5.371176,0.244144,0.020874,-0.042115,1.046036
1638,8.972305,-1.770047,-0.610361,0.002075,0.006592,0.981582
1639,-0.305180,-2.746624,-0.122072,0.029908,0.000732,0.947158
1640,6.286717,-1.586938,-0.305180,-0.019043,0.018799,1.002335
1641,0.610361,-3.662165,-0.305180,0.009522,0.026978,0.987930
1642,1.281758,-4.394598,-0.366217,0.008057,0.014649,0.991958
1643,0.732433,-4.150454,-0.732433,0.005371,0.003784,1.001358
1644,-0.244144,-4.028382,-0.183108,0.017578,0.016480,0.997696
1645,-3.479057,-3.479057,0.305180,0.029908,0.024781,1.021622
1646,-1.892119,-2.380407,0.488289,0.016358,0.003784,1.009903
1647,-3.295949,-1.892119,0.793469,0.020508,0.016602,0.999893
1648,-4.028382,-1.586938,0.732433,0.020630,-0.005982,1.024918
1649,0.000000,-0.671397,0.183108,0.011719,0.008057,1.001602
1650,-0.549325,-0.976577,0.183108,-0.000732,0.010254,1.002457
1651,0.366217,-1.281758,0.366217,0.020020,0.004517,1.004410
1652,1.586938,-0.549325,0.305180,0.014893,0.017823,0.982559
1653,-0.122072,-0.366217,0.671397,0.016114,0.012818,0.998550
1654,0.305180,0.061036,0.793469,0.018067,0.007691,1.006485
1655,0.122072,0.183108,1.159686,0.014405,0.016480,0.983536
1656,-2.258335,0.000000,1.342794,0.020020,0.018555,0.985000
1657,-3.967346,0.427253,0.854505,0.014405,0.011841,0.998672
1658,-4.821851,0.244144,0.000000,0.018921,0.003540,1.040177
1659,-2.868696,0.976577,-0.122072,0.005737,-0.008911,0.989151
1660,-5.981537,0.061036,0.671397,0.018189,-0.000855,1.022477
1661,-1.281758,0.915541,0.671397,0.026734,0.004761,1.002579
1662,-2.807660,2.502480,-0.915541,0.089601,0.059083,0.979019
1663,-8.422980,2.075227,-2.319371,-0.030396,-0.037110,0.976211
1664,-6.408789,-1.892119,-0.122072,0.021363,-0.040284,1.005020
1665,4.333562,-0.122072,-0.488289,0.014405,0.025269,1.012955
1666,-0.427253,-0.061036,-0.122072,0.000244,0.025513,0.972183
1667,-4.089418,-0.976577,0.000000,0.000366,-0.001465,0.990860
1668,-0.854505,-0.671397,0.000000,0.001831,-0.005737,0.999771
1669,0.732433,-1.342794,0.122072,0.013184,-0.008057,0.994644
1670,2.502480,-1.159686,0.000000,0.006470,-0.003418,1.003189
1671,2.075227,-0.976577,0.000000,0.013306,0.010132,0.999283
1672,0.000000,-0.854505,0.000000,0.012573,0.001465,1.008316
1673,0.122072,-0.915541,-0.305180,0.010986,0.009155,0.998672
1674,-2.563516,-1.342794,-0.610361,0.008301,0.004395,1.008316
