Packet number,Gyroscope X (deg/s),Gyroscope Y (deg/s),Gyroscope Z (deg/s),Accelerometer X (g),Accelerometer Y (g),Accelerometer Z (g)
0,1.464866,0.061036,-0.122072,0.002808,-0.001587,1.003433
1,1.770047,0.000000,-0.122072,0.013428,-0.002808,1.008927
2,2.563516,0.732433,-0.183108,-0.014282,0.006592,0.984268
3,2.563516,0.427253,-0.305180,-0.010864,0.027344,0.968643
4,-0.122072,-0.610361,-0.122072,-0.011719,0.015625,0.968521
5,-0.976577,-0.793469,-0.183108,0.000366,0.009644,0.991836
6,-1.403830,-0.854505,-0.183108,0.001099,0.006470,1.000259
7,-1.709010,-0.732433,0.000000,0.000977,0.001099,1.005753
8,-1.098650,-0.549325,0.061036,-0.001709,0.005371,0.998062
9,-1.709010,-0.488289,0.000000,-0.002930,0.002686,1.002335
10,-0.976577,-0.366217,0.000000,0.008789,0.002197,0.998672
11,-0.976577,-0.427253,0.000000,0.002564,0.000000,0.996109
12,-0.793469,-0.488289,0.061036,0.008179,-0.005859,1.008804
13,0.671397,-0.366217,0.000000,0.005493,0.005859,1.007095
14,-0.305180,-0.366217,0.061036,0.004150,0.005615,1.009293
15,0.610361,-0.244144,0.000000,0.003540,0.008057,1.009781
16,0.366217,0.000000,0.000000,0.000732,0.006958,0.996231
17,0.000000,0.000000,0.000000,0.005737,0.004273,1.009415
18,0.305180,0.244144,0.061036,0.005859,-0.000610,1.004044
19,0.549325,0.671397,0.061036,0.001465,0.009644,0.997208
20,-0.244144,0.427253,0.183108,0.001343,0.012818,0.992325
21,-0.854505,0.610361,0.000000,-0.005982,-0.000488,1.008316
22,0.244144,0.671397,0.000000,0.009155,0.003174,1.003555
23,-0.183108,0.671397,-0.122072,-0.018433,-0.000244,0.994522
24,-0.305180,0.305180,0.000000,0.006348,-0.000610,1.004288
25,0.488289,0.732433,-0.305180,-0.003418,0.005737,0.996353
26,-0.305180,0.305180,-0.122072,0.001709,0.000610,1.006851
27,0.305180,0.671397,-0.183108,-0.002808,0.001343,0.994034
28,0.183108,0.427253,0.061036,-0.005982,0.004639,0.996963
29,0.732433,0.488289,0.000000,-0.006836,0.008667,0.990005
30,0.000000,0.183108,0.061036,-0.001099,0.004517,0.997574
31,0.549325,0.183108,-0.183108,-0.000488,0.009277,0.998550
32,-0.122072,0.061036,0.000000,-0.005005,0.009888,0.983169
33,-0.671397,-0.427253,-0.244144,-0.001953,0.010742,0.985122
34,-1.525902,-0.488289,-0.244144,-0.001221,0.005127,1.003799
35,-1.159686,-0.427253,-0.305180,-0.003296,0.003296,0.999161
36,-0.915541,-0.366217,-0.183108,-0.002808,0.002930,0.997208
37,-0.793469,-0.183108,-0.183108,0.000732,0.005127,0.996109
38,-1.037613,-0.244144,0.000000,-0.002930,0.004028,1.002090
39,-0.976577,-0.305180,0.000000,-0.000488,0.001465,1.001724
40,-1.159686,-0.061036,0.000000,0.002197,0.003052,1.000748
41,-0.671397,0.000000,0.000000,0.001221,0.000244,1.003067
42,-0.793469,0.061036,-0.122072,-0.005982,-0.006958,1.005997
43,-0.183108,0.183108,-0.122072,-0.000244,-0.001831,1.005997
44,0.244144,0.305180,0.000000,0.002930,0.005737,0.997574
45,-0.305180,0.366217,-0.244144,0.000000,0.008423,0.972549
46,-1.220722,0.244144,-0.244144,-0.005737,0.010254,0.999283
47,-1.403830,0.183108,0.000000,0.005615,-0.000977,1.005020
48,-0.915541,0.488289,0.000000,-0.005371,0.000977,0.992935
49,-1.342794,0.488289,0.061036,-0.000122,-0.005493,1.007462
50,-0.366217,0.610361,0.061036,-0.007202,-0.001099,0.991348
51,-0.366217,0.305180,0.061036,-0.003296,0.004395,0.998062
52,0.061036,0.122072,-0.183108,-0.007202,0.006104,0.996719
53,-0.366217,-0.366217,-0.122072,-0.002319,-0.002319,1.001602
54,0.122072,-0.427253,-0.244144,-0.003052,0.005127,1.000504
55,-0.061036,-0.732433,-0.305180,-0.007446,0.008423,0.996231
56,0.183108,-0.976577,-0.244144,-0.012573,0.006226,0.986954
57,-0.366217,-1.647974,-0.305180,-0.004273,0.010864,0.983780
58,-1.342794,-2.319371,-0.305180,-0.009400,0.002686,0.984756
59,-1.647974,-2.563516,-0.183108,0.005127,0.000977,0.998306
60,-0.854505,-2.502480,-0.427253,-0.010742,0.007080,0.982071
61,-2.380407,-2.746624,-0.305180,0.019043,0.006592,1.011002
62,-2.258335,-1.709010,-0.427253,-0.003052,-0.006470,1.002213
63,-1.647974,-1.403830,-0.122072,0.032715,0.002808,1.012345
64,-1.342794,0.305180,-0.183108,-0.011231,-0.007324,1.001114
65,-1.037613,-0.061036,0.061036,0.012696,0.000488,1.008316
66,-0.915541,0.610361,0.000000,-0.002686,0.001099,0.997574
67,-0.305180,0.366217,0.000000,-0.007813,0.005859,0.995254
68,-1.831083,0.183108,0.000000,0.006958,-0.008179,0.989883
69,-0.244144,0.305180,-0.183108,-0.014649,0.007080,0.987198
70,-2.624552,-0.732433,0.000000,0.003906,0.000366,1.000015
71,-0.854505,-0.244144,-0.122072,-0.003906,-0.008789,1.001968
72,-0.854505,-0.305180,0.061036,0.004517,-0.005615,1.002823
73,-0.488289,0.000000,0.122072,0.004883,-0.005005,1.019791
74,0.122072,0.305180,0.122072,0.000122,0.002808,0.990249
75,-0.915541,0.244144,0.183108,-0.004273,0.002075,1.011002
76,-0.732433,0.183108,0.061036,0.001587,0.002686,0.995010
77,-1.037613,0.183108,0.244144,-0.005127,-0.002564,0.993668
78,-0.915541,0.122072,0.000000,0.015747,-0.000122,1.005631
79,-0.976577,0.427253,0.000000,-0.012329,-0.003052,1.005020
80,0.000000,0.488289,0.000000,0.006226,0.004028,0.989639
81,-0.915541,0.366217,0.000000,-0.007446,-0.008545,0.999283
82,0.854505,0.427253,0.000000,0.005615,0.004883,1.007462
83,0.122072,0.244144,0.000000,-0.008789,0.000366,0.995743
84,0.061036,0.061036,-0.183108,-0.000488,-0.001953,1.007095
85,0.366217,-0.122072,-0.183108,-0.000977,-0.002564,0.997086
86,-0.061036,-0.305180,-0.244144,-0.001587,0.000000,0.994034
87,-0.061036,-0.366217,-0.244144,-0.004883,-0.000488,1.000259
88,-0.061036,-0.427253,-0.183108,-0.002808,-0.000366,1.000748
89,0.488289,-0.488289,-0.122072,0.001831,-0.003296,1.000748
90,0.366217,-0.366217,0.000000,-0.000122,-0.000610,1.018570
91,1.464866,-0.244144,-0.183108,0.001831,0.003174,1.050919
92,2.685588,0.305180,-0.183108,-0.010010,-0.011597,0.973159
93,2.136263,-0.671397,-0.305180,-0.007446,-0.003296,0.997330
94,2.685588,-0.488289,-0.366217,-0.007813,-0.019043,1.015640
95,6.530861,-0.427253,-0.732433,-0.005493,0.010864,0.988907
96,3.723201,-1.220722,-0.488289,0.001465,-0.001099,0.998306
97,6.042573,-0.915541,-0.976577,-0.001343,0.015381,1.002701
98,2.990768,-0.366217,-1.037613,0.015991,-0.013916,1.078141
99,8.239872,2.685588,-1.586938,-0.009033,-0.008545,1.047379
100,10.193027,2.685588,-1.281758,0.004517,0.003418,1.003067
101,10.742351,2.258335,-1.220722,-0.005005,0.015015,0.989517
102,10.070954,1.525902,-1.281758,-0.008789,0.015259,0.968765
103,9.033341,0.671397,-1.342794,0.002441,0.029175,0.961196
104,6.836042,0.061036,-1.220722,-0.010742,0.021241,0.981338
105,6.652934,-0.488289,-0.976577,-0.010864,0.020752,0.987320
106,5.310140,-0.976577,-0.793469,0.001465,0.014405,0.982681
107,5.065995,-1.159686,-0.671397,0.012451,0.015137,0.994278
108,5.737392,-0.183108,-0.793469,0.006714,0.015625,0.960830
109,5.493248,-0.610361,0.061036,0.003784,0.015625,0.991714
110,5.859464,-0.549325,0.183108,0.014160,0.025757,0.983413
111,4.516670,-0.305180,0.244144,-0.024903,0.022583,0.978531
112,3.845274,-1.220722,0.366217,0.009644,0.030274,0.986099
113,3.662165,-1.037613,0.122072,0.006958,0.021851,0.981094
114,2.136263,-0.732433,0.488289,-0.005982,0.020874,0.989151
115,2.868696,-0.671397,0.549325,0.008057,0.031495,0.993790
116,1.586938,-1.037613,0.671397,-0.009522,0.022461,0.981827
117,2.075227,-0.671397,0.488289,0.009888,0.035401,1.014298
118,0.305180,-0.488289,0.854505,-0.002930,0.012940,1.010391
119,4.699779,0.671397,0.549325,-0.000488,0.047486,0.928481
120,-2.563516,-0.366217,0.854505,-0.012451,0.056519,0.943740
121,-5.371176,-1.159686,0.671397,-0.037842,0.038819,0.980117
122,-6.164645,-2.624552,0.854505,0.019165,0.028077,0.968032
123,-7.080186,-2.319371,0.793469,-0.007935,0.025757,1.022477
124,-5.249104,-3.234913,0.671397,-0.015015,0.014160,0.995743
125,-5.432212,-3.601129,0.488289,0.007324,0.004517,1.031388
126,-1.709010,-3.418021,0.549325,0.004517,0.005859,1.027359
127,0.000000,-3.295949,0.549325,0.003174,0.012329,1.025772
128,2.075227,-3.295949,0.671397,0.001099,0.010620,0.999039
129,2.258335,-3.479057,0.366217,-0.000610,0.025391,0.997086
130,2.685588,-3.234913,0.000000,0.007813,0.034668,0.977188
131,0.488289,-3.662165,0.000000,0.005005,0.042359,0.973281
132,-1.098650,-3.234913,0.244144,0.022705,0.019776,1.024063
133,0.976577,-1.403830,0.305180,0.020020,0.019409,1.013199
134,0.854505,-0.488289,0.427253,0.003906,0.031983,1.000137
135,0.122072,0.183108,0.732433,0.017945,0.018921,1.011856
136,1.220722,0.488289,0.671397,-0.002930,0.027222,0.996109
137,0.976577,0.000000,0.549325,0.005127,0.002686,1.014298
138,2.441444,0.244144,0.488289,0.010254,0.009888,1.015640
139,3.234913,0.549325,0.488289,0.010986,0.017578,1.015885
140,4.699779,1.220722,0.122072,0.004761,0.043214,0.987442
141,3.662165,1.403830,0.366217,0.003784,0.060914,0.964370
142,0.183108,1.403830,0.244144,0.009400,0.032349,0.981949
143,0.000000,1.831083,0.061036,0.010620,0.048585,0.950210
144,-4.394598,2.014191,0.000000,0.007813,0.033204,0.994766
145,-4.577707,2.746624,0.061036,0.005249,0.020508,1.021744
146,-4.150454,3.723201,0.183108,0.008545,0.031983,0.983780
147,-6.042573,3.662165,0.305180,0.002808,0.020996,1.003677
148,-4.699779,4.333562,0.305180,-0.001953,0.022950,1.000504
149,-5.371176,4.089418,0.549325,0.007446,0.017823,0.999405
150,-4.455634,4.211490,0.427253,0.003784,0.026612,0.996963
151,-5.676356,3.845274,0.305180,-0.015015,0.025879,0.982925
152,-6.469825,2.868696,0.183108,-0.012329,0.005371,0.999771
153,-5.004959,2.380407,0.000000,0.000122,0.003784,1.020768
154,-2.929732,2.441444,0.122072,-0.006470,0.006104,1.016495
155,-2.441444,2.258335,0.183108,-0.013306,0.000855,1.007340
156,-0.793469,2.136263,0.305180,-0.009766,0.004395,1.026993
157,0.671397,2.258335,0.244144,-0.010254,0.018921,1.001846
158,0.427253,1.831083,0.427253,-0.011231,0.015503,1.004532
159,2.441444,1.709010,0.183108,-0.018311,0.030396,0.964248
160,0.122072,0.488289,0.427253,-0.016358,0.036378,0.968399
161,-1.586938,-0.854505,0.549325,-0.014038,0.024659,0.952651
162,-2.502480,-1.892119,0.183108,-0.008423,0.035889,0.964981
163,-5.493248,-2.685588,0.488289,-0.006592,0.021241,0.975601
164,-4.699779,-2.868696,0.244144,-0.012696,0.024170,0.985122
165,-6.897078,-3.845274,0.427253,0.001831,0.008057,1.013931
166,-4.577707,-3.051804,0.366217,0.001831,0.010498,1.021744
167,-4.150454,-2.807660,0.427253,0.002197,0.008911,1.019669
168,-3.784237,-2.502480,0.305180,-0.006348,0.010376,1.003067
169,-2.990768,-2.624552,0.305180,-0.007813,0.010864,0.973159
170,-3.723201,-3.295949,0.122072,-0.014527,0.027100,0.969131
171,-6.775006,-4.821851,0.122072,-0.019532,0.038331,0.967910
172,-6.897078,-5.859464,0.427253,-0.014893,0.037720,0.958633
173,-11.108568,-7.202258,0.244144,-0.000977,0.010742,0.963516
174,-10.681315,-7.507439,0.122072,0.002441,-0.022705,0.946670
175,-12.451362,-8.545052,0.488289,-0.001953,0.002441,1.006729
176,-12.085145,-8.361944,0.305180,0.010620,-0.016480,0.986221
177,-11.413748,-8.300908,0.305180,0.014405,-0.006470,1.031510
178,-9.948882,-7.080186,0.366217,0.028687,-0.020142,1.033951
179,-7.629511,-5.737392,0.915541,0.007568,0.002441,1.039445
180,-8.056764,-5.554284,1.586938,0.015869,-0.022461,0.956802
181,-10.376135,-6.591897,2.197299,0.005982,0.013306,0.965347
182,-13.000687,-7.934691,2.563516,0.001465,0.004639,0.944472
183,-16.296635,-9.216449,3.051804,0.013306,0.015381,0.971695
184,-18.616007,-9.948882,2.990768,0.010010,0.022217,0.949233
185,-24.658579,-10.315099,3.418021,0.019898,-0.003174,1.009781
186,-24.658579,-9.521630,3.479057,0.051026,-0.026001,1.025895
187,-20.935378,-7.263294,2.319371,0.012085,-0.052613,1.013077
188,-21.301595,-7.873655,2.746624,0.009033,-0.030030,1.018448
189,-18.616007,-7.324331,2.014191,0.008057,-0.006592,0.985122
190,-21.667811,-8.728161,1.037613,0.007324,-0.001343,0.968276
191,-26.611734,-9.277485,0.854505,0.077882,0.098146,0.935805
192,-40.161746,-5.310140,-1.586938,-0.020020,0.093507,0.956313
193,-54.688334,-9.582666,-0.549325,0.026368,-0.010376,0.951919
194,-54.993515,-7.385367,-1.281758,0.041993,-0.052125,1.006973
195,-50.598917,-5.371176,-2.441444,-0.035645,-0.146731,1.051652
196,-50.171664,-2.807660,-3.051804,0.057374,-0.048341,1.128801
197,-49.073014,0.671397,-3.784237,0.007446,-0.094972,1.014786
198,-45.227741,0.732433,-9.399557,0.049805,-0.190188,0.908217
199,-58.838788,-2.502480,-17.944610,0.021363,-0.144289,0.997208
200,-70.618753,1.647974,-19.470512,0.064210,-0.130373,1.029923
201,-60.120546,1.403830,-16.418708,0.059815,-0.216312,1.100847
202,-53.711757,0.000000,-7.751583,0.082033,-0.174441,1.041398
203,-57.984283,2.258335,-4.638743,0.080201,-0.115969,1.020890
204,-62.317845,7.446403,-3.784237,-0.116945,0.145632,1.292988
205,-39.978637,9.643702,-17.700465,-0.237186,-0.084230,0.958511
206,-97.840848,10.803388,-11.169604,0.160647,0.168215,0.913222
207,-135.805295,9.643702,9.399557,-0.019043,-0.019409,1.008072
208,-142.885481,0.915541,13.611048,-0.054444,0.112428,0.837171
209,-156.008240,-11.718929,-1.342794,-0.158328,0.223880,1.437522
210,-249.820707,-8.300908,-2.685588,0.132326,0.278325,1.094743
211,-369.268330,-12.451362,-5.981537,-0.086671,-0.106935,1.030167
212,-459.418631,-21.240558,17.212177,-0.043824,0.189700,1.999969
213,-485.175860,-21.240558,-5.737392,0.023072,-0.088991,0.995499
214,-562.020295,-45.899138,-3.662165,-0.034791,0.095705,0.977188
215,-646.494240,-49.011978,-5.249104,0.046387,-0.256474,1.006851
216,-743.114366,-67.139696,39.673457,0.405402,-2.000031,1.999969
217,-597.970550,8.789197,90.516518,-1.044327,-0.343267,1.999969
218,23.620966,0.976577,-48.096437,-0.448127,-0.119387,1.999969
219,224.917983,31.311513,-55.481804,-0.655406,0.767834,1.999969
220,65.674830,36.438544,-35.339895,-0.436042,0.460700,1.612451
221,-26.001373,-17.151141,19.653620,-0.305791,0.267704,1.076188
222,60.975052,-18.188754,13.733120,-0.099733,0.187869,0.822644
223,120.607309,-16.601816,5.004959,-0.017456,0.425666,0.417365
224,63.355459,-24.597543,7.690547,0.085939,0.405035,0.574716
225,62.195773,-13.244831,1.647974,0.080812,0.263432,0.803479
226,100.831617,1.220722,-8.606088,0.038453,0.344732,0.747692
227,97.352560,-3.662165,-10.376135,-0.009033,0.360113,0.756115
228,103.578241,-14.160372,-9.826810,-0.072389,0.300175,0.949844
229,130.067903,-21.423667,-9.582666,-0.102907,0.321660,1.166278
230,145.998322,-24.658579,-7.690547,-0.135744,0.338384,1.391135
231,169.558251,-18.982223,-7.263294,-0.130739,0.293095,1.598047
232,201.297017,-3.906310,-8.545052,-0.139162,0.218387,1.607691
233,226.138705,10.742351,-7.751583,-0.138064,0.154055,1.500267
234,244.998856,21.484703,-5.676356,-0.123171,0.058228,1.386618
235,261.051347,25.879301,-2.014191,-0.088991,-0.040284,1.235370
236,272.648203,25.879301,2.075227,-0.036500,-0.090578,1.032731
237,274.662394,18.310826,5.004959,0.065309,-0.081056,0.966567
238,272.281987,8.484016,4.211490,0.180545,-0.061524,1.034318
239,270.939193,2.319371,-2.685588,0.279911,-0.056641,1.099260
240,268.009461,5.615320,-15.869383,0.353277,-0.069093,1.180438
241,258.854047,19.348440,-31.555657,0.342168,-0.165286,1.220722
242,249.576562,37.293050,-46.021210,0.259525,-0.229618,1.305440
243,240.360113,46.509499,-53.711757,0.130983,-0.244999,1.555322
244,237.735561,45.166705,-57.434958,0.048707,-0.306279,1.706325
245,244.876783,43.640803,-58.533608,-0.007935,-0.332525,1.655177
246,239.566644,47.730220,-57.801175,-0.056275,-0.364996,1.618799
247,222.842756,59.632258,-54.749371,-0.115846,-0.425788,1.760647
248,213.199054,69.336996,-49.561303,-0.150149,-0.452399,1.999969
249,216.067750,70.618753,-43.762875,-0.125734,-0.593149,1.999969
250,230.899519,72.388800,-38.513771,-0.004761,-0.664561,1.904692
251,229.800870,69.581140,-35.706111,0.086793,-0.674815,1.677272
252,215.823606,64.515145,-34.485389,0.142947,-0.699718,1.706813
253,212.100404,61.951629,-35.828183,0.145144,-0.676646,1.956573
254,209.292744,60.852979,-35.950256,0.148196,-0.761120,1.999969
255,222.110323,62.256809,-35.339895,0.141238,-0.946059,1.970367
256,231.754025,65.064469,-34.668498,0.118410,-1.136736,1.405783
257,212.954910,64.576181,-30.884260,0.052125,-1.313985,1.072526
258,186.037995,65.003433,-24.597543,0.002319,-1.550195,0.927871
259,161.318380,70.435645,-18.127718,0.055299,-1.780911,0.890028
260,129.640650,79.224842,-11.291676,0.177127,-2.000031,0.850843
261,103.395132,91.432059,-5.493248,0.265507,-2.000031,0.659190
262,83.070115,108.155947,-1.892119,0.264164,-2.000031,0.251591
263,53.955901,109.498741,7.934691,0.196414,-2.000031,-0.219364
264,2.807660,73.609522,26.062409,-0.111330,-2.000031,-0.368780
265,-96.925307,-30.457008,61.890593,-0.041505,-1.903227,-1.351705
266,-180.361639,-161.379416,89.723049,0.541268,-1.818753,-0.313970
267,-220.889601,-146.242466,89.356832,0.900160,-1.136248,0.765515
268,-109.193561,-77.088579,47.852293,0.361822,0.204837,1.922271
269,-130.251011,-64.820325,47.547112,0.387823,0.989395,1.912261
270,-204.898146,-93.018997,49.011978,0.761608,0.488533,0.591806
271,-255.436027,-84.290837,39.673457,0.756237,-0.187747,0.333257
272,-259.952697,-57.495995,27.649348,0.604746,-0.081422,1.554955
273,-272.220951,-44.861524,22.461280,0.595590,-0.100343,1.999969
274,-202.944991,-14.587625,11.047532,0.183108,-0.591073,1.999969
275,-108.339055,-5.371176,3.662165,-0.670420,-0.117189,1.849516
276,-144.594492,-59.205005,33.936065,-1.006363,-0.416999,1.979034
277,-62.439918,-98.573281,31.677729,0.348394,-0.117067,1.851347
278,-42.847333,-70.496681,14.282444,1.421775,0.291508,1.999969
279,-43.396658,-9.094377,4.028382,0.105959,-0.114382,1.185321
280,-37.048905,-16.784924,2.807660,-0.649668,-0.052735,1.105852
281,-35.523003,-46.387427,4.943923,0.277592,-0.010498,1.262226
282,-13.977264,-23.926146,-2.929732,0.346685,0.056031,1.193866
283,-33.020523,-10.009918,0.854505,-0.032105,-0.064576,1.257465
284,-6.530861,-9.826810,0.000000,0.037964,-0.018067,1.096941
285,-1.709010,-7.568475,-0.976577,0.031250,0.078004,0.943862
286,-14.282444,-7.507439,0.671397,0.013550,0.031983,1.046647
287,-7.263294,-5.554284,0.793469,0.066041,0.016480,1.051652
288,-5.371176,-0.854505,1.586938,0.042481,0.014405,1.008804
289,-8.728161,2.807660,3.540093,0.078492,0.026978,1.052995
290,-6.652934,7.080186,4.272526,0.030640,0.046143,1.009415
291,-8.117800,8.789197,4.211490,-0.021729,0.154788,1.084489
292,-13.427939,7.568475,4.943923,0.029541,0.023682,0.988296
293,-12.939651,7.507439,3.479057,0.012207,0.019654,0.989883
294,-12.329290,5.310140,3.479057,-0.021241,0.023194,1.006973
295,-10.131991,2.075227,2.258335,-0.006104,0.051392,1.019303
296,-9.704738,0.244144,2.014191,0.013550,0.008301,1.020768
297,-6.286717,0.976577,1.586938,0.012451,0.011597,1.026139
298,-6.042573,1.709010,1.770047,0.015259,0.047242,1.025528
299,-6.225681,2.014191,2.136263,0.010254,0.013062,1.016251
300,-4.577707,2.868696,1.831083,0.014893,0.013794,1.003799
301,-3.967346,3.356985,1.586938,0.011231,-0.005127,0.956191
302,-5.127031,2.685588,1.464866,0.000855,0.016602,0.964004
303,-6.652934,1.586938,1.403830,0.004028,0.024292,0.984512
304,-7.568475,0.732433,1.342794,-0.003052,0.020142,0.983902
305,-8.422980,-0.305180,1.464866,-0.005615,0.023072,0.991104
306,-7.873655,-0.915541,1.220722,-0.000122,0.022950,0.966323
307,-10.803388,-2.136263,1.770047,0.006592,0.030762,0.985489
308,-11.108568,-2.502480,1.342794,-0.001709,0.009644,0.997086
309,-11.718929,-3.356985,1.709010,0.000000,0.002930,1.019913
310,-8.117800,-3.295949,1.342794,0.010864,-0.000122,1.001236
311,-8.300908,-3.967346,0.854505,0.010376,-0.038331,0.961196
312,-7.324331,-3.723201,-0.488289,0.068727,-0.121218,0.816785
313,-4.089418,-5.798428,0.122072,-0.005737,-0.000855,0.981094
314,-8.361944,-8.484016,0.549325,-0.009155,-0.015869,0.932509
315,-9.643702,-10.498207,0.366217,0.001099,-0.014893,0.953750
316,-12.512398,-11.657893,0.671397,0.010010,-0.005737,0.975723
317,-13.122759,-11.535821,1.342794,0.030396,0.009400,0.979507
318,-15.259022,-10.437171,2.075227,0.040040,0.014893,0.995987
319,-19.592584,-8.545052,2.868696,0.050782,0.016724,0.959487
320,-26.123445,-8.056764,3.723201,0.030030,0.003418,0.982559
321,-29.480430,-7.263294,3.784237,0.065675,0.001465,1.005753
322,-29.724575,-4.943923,3.418021,0.040406,-0.002930,1.010880
323,-31.738766,-3.601129,4.028382,0.049928,-0.031373,0.971084
324,-29.053178,-2.014191,3.601129,0.011353,0.002564,0.964858
325,-30.884260,-3.662165,2.685588,-0.004395,0.004150,0.963272
326,-37.109941,-4.150454,2.929732,0.005615,-0.014649,0.965835
327,-39.917601,-4.577707,3.356985,0.026978,-0.036378,0.991958
328,-41.382467,-3.723201,4.455634,0.072877,-0.001953,1.007462
329,-43.396658,0.793469,4.699779,0.000000,-0.019532,0.960830
330,-53.955901,-1.586938,7.812619,0.052491,-0.084230,1.189349
331,-46.631571,3.479057,4.699779,-0.014771,-0.078248,0.998917
332,-44.556344,2.502480,-0.183108,-0.006592,-0.020752,0.991348
333,-48.035401,-0.244144,-3.784237,-0.051270,-0.097169,0.903700
334,-48.279545,-5.249104,-9.399557,-0.077394,-0.044678,0.984146
335,-53.345541,-11.963073,-19.592584,-0.077760,0.000000,1.085222
336,-58.289464,-10.803388,-37.781338,0.009155,-0.163577,0.973159
337,-80.811780,0.305180,-44.495308,0.115358,-0.194095,1.094377
338,-61.097124,6.652934,-35.400931,0.135866,-0.427497,1.101701
339,-24.353399,0.061036,-8.361944,0.113527,-0.211551,1.068620
340,-30.762188,2.075227,-3.051804,0.025391,0.044190,0.989883
341,-62.806134,8.667124,-9.948882,0.059693,0.132326,0.916274
342,-109.803922,13.550011,-8.422980,0.136965,0.145510,0.879042
343,-131.227588,12.695506,6.958114,-0.072267,0.541634,0.748180
344,-156.618601,-8.728161,-24.231327,-0.152956,0.409552,0.706310
345,-245.609216,-15.930419,-21.972992,0.088380,1.266865,1.240009
346,-494.209201,-8.239872,-53.650721,0.256352,0.622080,1.391501
347,-690.745403,-41.077287,1.647974,-0.152590,0.150149,1.391501
348,-794.872969,-72.693980,45.349813,0.156741,-0.011353,1.396750
349,-866.651408,-84.596017,51.819638,0.226200,-0.672862,1.103655
350,-1093.339437,-117.433433,172.426947,-1.410178,-0.228031,1.999969
351,-356.206607,-57.251850,10.742351,-0.835950,-1.664942,1.999969
352,293.156329,-5.676356,-55.848020,-0.419928,0.798108,1.999969
353,225.162127,21.362631,-66.712444,-0.146487,1.229267,1.046281
354,3.723201,-26.184482,0.671397,-0.716075,0.826307,0.636484
355,-115.175097,-79.407950,40.344854,-0.310674,0.432746,0.543343
356,29.846647,-37.537194,13.427939,-0.324712,0.196658,0.878920
357,105.043107,-8.300908,0.732433,-0.188479,0.618784,0.595346
358,29.175250,0.366217,4.943923,-0.236210,0.498421,0.857679
359,57.923247,11.413748,1.770047,-0.250858,0.324102,1.091936
360,117.250324,15.320058,-1.586938,-0.240970,0.463386,0.946304
361,115.175097,1.220722,3.234913,-0.180423,0.467048,0.978286
362,135.317006,-5.737392,3.356985,-0.116091,0.419318,1.196429
363,171.694514,-1.525902,-1.281758,-0.048951,0.441169,1.328389
364,193.911650,6.347753,-5.737392,-0.024659,0.390265,1.366842
365,220.218204,16.662852,-10.315099,0.004883,0.292729,1.371969
366,247.440299,26.001373,-15.075914,0.008423,0.214725,1.348531
367,268.070497,30.518044,-17.273213,0.005493,0.102785,1.225360
368,284.733349,31.677729,-18.554971,0.022583,0.019165,1.052018
369,293.400473,28.992142,-19.104295,0.066773,-0.008667,0.974014
370,295.292592,23.193713,-20.996414,0.160037,-0.011597,1.015640
371,298.588540,15.991455,-25.085832,0.218631,0.011719,1.161517
372,302.922103,11.963073,-34.485389,0.285405,-0.051637,1.166888
373,301.091020,19.165332,-47.547112,0.321416,-0.205570,1.016739
374,290.104524,35.828183,-61.219196,0.280400,-0.307988,0.921035
375,273.136492,50.843061,-69.275959,0.228153,-0.306645,0.955703
376,250.858320,57.984283,-76.844434,0.251225,-0.274662,1.148699
377,234.683757,63.843748,-83.375296,0.125490,-0.232425,1.538354
378,220.523384,70.862898,-83.558404,-0.085328,-0.270268,1.999969
379,217.654688,80.201419,-75.318532,-0.288823,-0.431403,1.999969
380,241.641871,91.126879,-62.500954,-0.376471,-0.690806,1.999969
381,272.648203,103.822385,-45.960174,-0.385992,-0.767468,1.999969
382,270.206760,101.319905,-27.283131,-0.331182,-0.809583,1.999969
383,273.502708,95.094224,-13.244831,-0.232914,-0.925917,1.999969
384,292.179751,101.380941,-5.859464,-0.160037,-0.972793,1.999969
385,287.663081,112.062257,0.671397,-0.078370,-0.957290,1.965362
386,277.164874,122.072175,4.760815,0.268681,-0.921645,1.812528
387,271.610590,140.383001,0.671397,0.583017,-0.855238,1.665919
388,244.815747,143.434806,-4.089418,0.594125,-0.968887,1.568139
389,225.467308,133.730068,-2.990768,0.402350,-1.264179,1.476585
390,205.386435,110.231174,5.371176,0.242191,-1.742092,1.269306
391,172.549020,85.267414,17.517357,0.436896,-2.000031,1.123308
392,117.982757,71.900511,21.301595,0.913954,-2.000031,0.907729
393,88.502327,96.742199,-11.902037,1.130999,-2.000031,0.323369
394,122.987716,134.340429,-49.378195,0.754284,-2.000031,-0.621103
395,43.762875,103.028916,-43.274586,0.217533,-2.000031,-1.207050
396,-78.919661,2.929732,3.234913,-0.264042,-1.890776,-0.353277
397,-157.473106,-128.175784,32.532235,-0.133059,-2.000031,-1.294331
398,-249.759670,-243.045701,58.228428,0.746349,-0.997086,1.025040
399,-172.060731,-180.300603,34.668498,0.417487,-0.337163,1.685573
400,-88.380255,-138.612955,5.554284,-0.313603,0.823377,1.999969
401,-122.743572,-134.767681,23.010605,-0.608408,0.682383,0.550179
402,-256.595712,-118.898299,76.966506,-0.127687,0.193240,-0.396368
403,-346.929122,-114.076448,85.877775,0.782605,-0.584237,0.215824
404,-351.445792,-83.619440,73.731594,1.127214,-0.320806,1.999969
405,-282.536049,-47.547112,49.561303,1.564111,-0.307988,1.999969
406,-153.505760,1.709010,5.065995,0.290166,-0.500618,1.999969
407,-157.778286,-48.340581,18.921187,-1.307881,-0.617075,1.999969
408,-67.078660,-78.858625,39.673457,-0.816785,-0.543343,1.778470
409,-20.508125,-97.901884,37.598230,1.446189,0.265385,1.999969
410,-3.845274,-25.146868,7.812619,1.235737,0.246952,1.613428
411,-22.278172,19.836728,0.549325,-0.689586,-0.052979,1.004166
412,-26.794842,-22.827497,16.784924,-0.341070,0.013184,0.929580
413,-12.817578,-31.799802,6.469825,0.587533,0.253544,1.241962
414,-30.701152,-5.065995,0.244144,0.033814,0.029664,1.117693
415,-25.452049,-7.873655,2.685588,-0.186770,-0.024903,1.082170
416,-14.526589,-12.024109,1.159686,0.148196,0.071656,1.092668
417,-19.226368,-2.075227,1.892119,0.068727,0.025513,1.093400
418,-13.366903,1.403830,2.807660,-0.052491,0.024048,1.060319
419,-9.704738,-0.549325,2.441444,0.016358,0.045167,1.012833
420,-10.254063,0.244144,3.356985,0.008423,0.032227,1.034806
421,-7.263294,0.671397,3.356985,-0.006958,0.042481,1.009659
422,-6.836042,0.061036,3.356985,0.012207,0.054078,0.983169
423,-8.606088,0.732433,3.112840,0.016236,0.071534,0.976211
424,-13.000687,1.159686,3.112840,0.002686,0.058595,0.957534
425,-16.174563,1.953155,3.234913,-0.001099,0.072267,0.964858
426,-22.583352,1.342794,3.906310,-0.028077,0.028809,1.000259
427,-20.202945,0.061036,3.356985,-0.017578,0.023316,1.025284
428,-18.860151,0.000000,2.990768,0.008301,0.018311,1.007706
429,-18.432898,-0.183108,3.234913,-0.022217,0.011719,1.001846
430,-17.578393,-1.281758,3.234913,-0.010986,0.011231,1.003311
431,-16.235599,-1.831083,3.051804,-0.020264,0.013916,0.972793
432,-14.892805,-1.098650,-0.854505,0.003052,-0.241825,0.723033
433,-15.259022,-5.432212,0.854505,-0.061036,0.051881,1.058000
434,-20.325017,-8.545052,2.075227,-0.026001,0.017334,0.987320
435,-16.601816,-8.911269,1.037613,-0.016968,0.009033,0.982315
436,-17.212177,-6.958114,-1.525902,0.073365,-0.237186,0.741222
437,-17.395285,-7.629511,0.488289,-0.008667,0.024781,1.065324
438,-23.193713,-8.361944,2.868696,-0.006470,-0.007813,0.968765
439,-22.156100,-8.117800,3.234913,-0.006226,0.004395,0.980240
440,-25.635157,-8.300908,3.540093,0.013062,-0.016968,1.037613
441,-23.804074,-7.141222,4.028382,0.007568,-0.030152,1.029068
442,-19.592584,-6.530861,3.234913,-0.011719,-0.024537,1.004288
443,-19.531548,-7.324331,2.929732,0.006226,-0.021241,1.012345
444,-17.334249,-7.141222,2.014191,-0.005249,-0.028321,0.999283
445,-17.395285,-7.995727,1.892119,0.009766,-0.024048,0.990738
446,-17.578393,-8.422980,1.709010,0.019165,-0.025147,0.991592
447,-17.334249,-8.239872,1.159686,0.003052,-0.031128,0.990494
448,-18.677043,-8.972305,1.464866,0.005249,-0.036622,0.993301
449,-18.493935,-9.582666,1.525902,0.008667,-0.036378,1.006363
450,-18.249790,-9.887846,1.220722,0.013428,-0.021851,0.981827
451,-21.240558,-9.765774,1.098650,0.005859,-0.015991,0.970108
452,-22.400244,-10.742351,0.488289,0.009400,-0.005249,0.996597
453,-26.611734,-10.254063,0.244144,0.012085,-0.023682,0.971939
454,-29.358358,-9.948882,-0.183108,0.040162,-0.056275,0.973770
455,-31.250477,-9.765774,0.366217,0.027222,-0.042359,1.014786
456,-31.311513,-9.216449,0.122072,0.034791,-0.028809,0.955825
457,-37.232013,-8.606088,1.709010,0.018921,-0.031250,0.952041
458,-42.481117,-9.582666,3.906310,-0.024659,-0.078126,0.981949
459,-42.481117,-4.455634,7.812619,0.133669,-0.085573,1.043717
460,-42.969406,0.122072,7.568475,0.001709,-0.085573,1.039567
461,-44.007019,3.051804,8.606088,0.070192,-0.054932,0.983047
462,-49.195087,3.418021,6.103609,-0.037110,-0.082399,1.008560
463,-48.340581,2.380407,2.685588,-0.028321,-0.013916,1.002701
464,-46.387427,0.610361,-5.004959,-0.064942,-0.071534,0.984024
465,-46.448463,-3.418021,-12.451362,-0.124269,-0.199344,1.224018
466,-47.302968,-5.737392,-24.170291,-0.066041,-0.111818,1.115618
467,-62.439918,1.831083,-41.443503,0.077028,-0.224979,1.032975
468,-46.326390,0.732433,-32.043946,0.090822,-0.314702,1.072648
469,-25.757229,0.000000,-13.244831,0.105348,-0.175174,1.110246
470,-32.166018,-1.403830,-7.934691,-0.005249,0.039429,0.980362
471,-65.430686,1.647974,-19.165332,0.026123,0.215824,0.898085
472,-97.779812,1.953155,-21.118486,0.128420,-0.032837,1.024796
473,-119.386587,4.638743,-2.319371,-0.006104,0.533700,0.706065
474,-164.431220,-9.033341,-28.870069,-0.022705,0.426032,0.746838
475,-270.450904,-18.799115,-26.916915,0.093263,0.932509,1.340719
476,-529.854276,-2.807660,-9.826810,0.205814,0.932998,1.612696
477,-724.376288,-33.569848,37.842374,-0.389410,0.209476,1.334127
478,-833.691920,-68.360418,78.797589,0.256352,0.122194,1.552270
479,-891.676204,-58.533608,63.599603,0.125368,-0.061646,0.656626
480,-1055.069810,-97.657740,99.977111,0.316167,-2.000031,1.999969
481,-662.790875,-41.931792,93.751431,-1.554223,-1.485618,1.999969
482,108.583200,-33.997101,-57.984283,-0.691783,0.491341,1.999969
483,219.913024,-21.484703,-47.241932,-1.066178,1.260273,1.999969
484,-3.723201,-28.809033,-29.175250,-0.810071,0.784436,1.999969
485,-90.089265,-86.732280,66.224155,-0.640757,0.610239,1.919585
486,17.334249,-73.792630,69.459068,-0.283330,0.501350,1.860014
487,174.441138,-44.495308,45.105669,-0.261112,0.603281,1.464988
488,170.962081,-36.560616,42.908370,-0.090455,0.677745,1.118914
489,149.721523,-32.959487,40.527962,-0.091310,0.430060,1.070085
490,204.470893,-20.019837,26.184482,-0.033936,0.303349,0.820447
491,231.998169,-12.512398,13.183795,-0.033814,0.290898,0.502571
492,217.837797,-13.061723,6.469825,0.006836,0.193240,0.411749
493,223.147936,-9.399557,-3.234913,0.011475,0.138430,0.496345
494,230.960555,-3.967346,-12.268254,-0.032105,0.140139,0.685801
495,231.082628,-1.709010,-15.381094,-0.133425,0.080079,0.911879
496,243.350881,-1.647974,-14.526589,-0.238529,0.017212,1.066545
497,259.464408,-1.525902,-10.376135,-0.305425,-0.047852,1.135027
498,270.023651,-0.671397,-3.173877,-0.309453,-0.084474,1.196307
499,280.643931,5.493248,3.051804,-0.230594,-0.104860,1.344503
500,288.517586,16.968032,6.713970,-0.073243,-0.128664,1.579736
501,298.649577,27.588312,4.089418,0.168582,-0.199832,1.752834
502,319.462882,39.795529,-8.300908,0.293339,-0.293828,1.865019
503,338.445106,50.782025,-23.620966,0.372808,-0.398566,1.753689
504,345.525292,56.641489,-39.551385,0.457771,-0.494514,1.546410
505,337.407492,65.491722,-57.557031,0.541268,-0.666636,1.235248
506,316.350042,75.501640,-74.891279,0.560067,-0.780407,1.005264
507,284.794385,75.013352,-90.333410,0.488045,-0.815808,0.939590
508,255.374990,59.571221,-101.380941,0.368170,-0.761730,1.119280
509,232.669566,37.842374,-108.705272,0.284184,-0.647837,1.607813
510,217.715724,27.466239,-115.114061,0.243290,-0.533700,1.999969
511,221.866178,34.058137,-122.133211,0.147097,-0.645151,1.999969
512,253.910124,55.176623,-128.603037,0.010132,-0.805188,1.999969
513,271.793698,78.858625,-125.978485,-0.156985,-0.927016,1.999969
514,270.511940,91.309987,-111.146716,-0.312871,-1.049577,1.999969
515,268.802930,93.995575,-87.647822,-0.368658,-1.094621,1.728176
516,258.243687,89.967193,-59.205005,-0.293828,-1.048722,1.576196
517,237.979706,82.154574,-33.936065,-0.101686,-1.043107,1.596948
518,227.725643,80.994888,-18.005646,0.058961,-1.103410,1.563867
519,217.410544,84.046693,-9.338521,0.164675,-1.215839,1.384421
520,198.184176,86.610208,-3.784237,0.258671,-1.427634,1.177874
521,169.130999,87.342641,-0.671397,0.417853,-1.777127,1.067521
522,133.485924,88.380255,0.976577,0.625376,-2.000031,1.010513
523,101.869230,98.329137,0.000000,0.786389,-2.000031,0.712902
524,93.263142,107.362478,-15.320058,0.738293,-2.000031,0.094118
525,80.994888,89.845121,-12.695506,0.502327,-2.000031,-0.666514
526,0.000000,25.146868,9.521630,0.009400,-2.000031,-2.000031
527,-152.346075,-134.645609,61.646448,0.406622,-2.000031,-1.721462
528,-268.558785,-242.496376,75.196460,1.084245,-2.000031,-0.527352
529,-172.182803,-191.409171,38.147555,0.753063,-0.067262,1.999969
530,-160.585946,-117.677577,10.376135,-0.156252,0.979141,1.999969
531,-230.167086,-80.994888,44.007019,-0.464851,0.678233,1.553857
532,-302.433814,-103.150988,57.618067,-0.153567,-0.533089,0.580941
533,-269.474327,-82.276646,68.970779,0.334478,-0.519905,0.976577
534,-265.690089,-68.360418,66.834516,1.100114,-0.069825,1.999969
535,-241.092546,-31.311513,45.899138,1.456687,-0.082155,1.999969
536,-166.811627,4.516670,10.070954,0.269902,-0.213260,1.999969
537,-183.657588,-45.716030,22.217136,-1.150530,-0.766857,1.999969
538,-75.989929,-86.610208,36.499580,-0.411505,-0.304936,1.857572
539,-32.166018,-99.855039,27.588312,1.441794,0.400763,1.999969
540,-63.721675,-29.785611,15.320058,0.656992,0.135988,1.253559
541,-80.689708,-16.479744,9.582666,-0.729747,-0.104494,1.184100
542,-54.505226,-53.650721,13.550011,0.031861,-0.049439,1.321065
543,-23.743038,-37.048905,-0.610361,0.500740,-0.044190,1.349874
544,-28.015564,-22.156100,-0.488289,-0.160891,-0.075319,1.154803
545,-13.061723,-29.602502,2.746624,0.064698,-0.029053,1.083268
546,-5.432212,-22.156100,0.183108,0.139284,0.066651,1.047623
547,-18.554971,-16.662852,1.464866,0.024659,-0.019287,1.049821
548,-7.141222,-14.343481,2.685588,0.072145,0.021729,1.035782
549,-9.155413,-9.033341,2.807660,0.103639,0.036988,1.001968
550,-16.662852,-4.455634,4.150454,0.055055,-0.014893,1.046281
551,-9.582666,-1.770047,4.394598,0.068482,0.007202,1.026383
552,-12.329290,-0.061036,4.272526,0.036744,0.005737,1.025895
553,-10.315099,0.183108,4.577707,0.044068,0.013794,1.037858
554,-8.300908,0.976577,3.662165,0.033082,0.018799,1.002701
555,-8.850233,-0.061036,3.112840,-0.005249,0.020020,0.976822
556,-10.009918,-1.831083,2.502480,-0.001831,-0.005127,0.956558
557,-12.573434,-3.723201,2.197299,-0.001953,0.005737,0.992935
558,-9.948882,-4.150454,2.136263,0.021363,0.004761,1.002213
559,-10.986496,-4.272526,1.892119,0.025391,-0.002564,1.002701
560,-10.376135,-3.784237,1.342794,0.042115,-0.007324,1.007462
561,-9.460594,-2.807660,1.709010,0.045045,-0.023438,0.985367
562,-9.460594,-2.868696,1.770047,0.022095,0.005127,0.974990
563,-13.183795,-4.333562,1.709010,0.018799,-0.015991,0.987930
564,-12.390326,-5.127031,1.403830,0.025391,-0.009888,1.002090
565,-13.122759,-5.554284,1.159686,0.014282,-0.017823,0.991226
566,-13.061723,-6.347753,0.915541,0.021363,-0.017090,0.975479
567,-14.038300,-7.141222,0.671397,0.032349,-0.011719,0.976944
568,-15.625238,-7.629511,0.122072,0.032227,-0.018067,0.973648
569,-16.845960,-8.300908,-0.122072,0.027710,-0.018189,0.981094
570,-17.944610,-7.934691,-0.366217,0.027344,-0.027710,0.930556
571,-22.156100,-9.521630,-0.366217,0.050538,-0.030274,1.007828
572,-20.447089,-9.277485,-0.793469,0.038575,-0.035889,0.975845
573,-22.156100,-9.948882,-0.793469,0.038697,-0.029053,0.980972
574,-25.818265,-10.009918,-0.854505,0.055055,-0.050904,1.022110
575,-22.339208,-9.155413,-0.549325,0.067506,-0.079591,1.013931
576,-18.554971,-7.263294,0.671397,0.072999,-0.072267,1.010636
577,-19.226368,-6.042573,2.197299,0.063722,-0.046021,0.992325
578,-21.850919,-2.929732,2.990768,0.084962,-0.113283,0.975845
579,-19.165332,-0.183108,2.746624,0.064210,-0.053712,1.012345
580,-21.667811,1.770047,3.112840,0.067018,-0.052247,1.017594
581,-24.963760,2.075227,2.868696,0.048341,-0.059205,0.994888
582,-27.710384,5.737392,4.089418,0.090944,-0.040284,0.880751
583,-31.128405,1.647974,2.014191,0.045777,-0.032227,1.031754
584,-29.297322,1.770047,0.976577,0.013550,-0.052735,0.996963
585,-32.898451,0.793469,-0.366217,0.048463,-0.071046,0.919936
586,-33.142596,1.037613,-0.732433,0.119875,-0.003784,0.987442
587,-54.322118,5.432212,1.647974,0.023194,-0.053834,1.000748
588,-62.806134,6.775006,2.807660,0.091798,-0.222904,1.098772
589,-40.588998,8.422980,7.812619,0.041627,-0.136110,1.047501
590,-32.349126,9.216449,6.591897,0.034180,-0.071046,1.005020
591,-41.321431,9.460594,0.305180,-0.001831,-0.060548,1.007584
592,-45.960174,9.887846,-6.225681,-0.030030,-0.102541,0.931411
593,-52.796216,8.300908,-19.348440,-0.050294,-0.165042,0.987076
594,-43.335622,6.164645,-30.884260,-0.017700,-0.288334,1.053361
595,-40.405890,5.554284,-32.776379,0.137942,-0.235599,0.997574
596,-17.334249,0.610361,-21.240558,0.151492,-0.304204,1.201312
597,-10.254063,5.371176,-4.577707,0.145022,-0.158694,1.084245
598,-17.578393,7.446403,0.854505,0.019532,0.166995,1.022232
599,-80.384527,22.095064,-16.906996,0.060548,0.317266,0.886732
600,-134.767681,29.724575,-22.461280,0.045045,0.528939,0.671885
601,-196.719310,15.930419,-23.498894,-0.139773,0.455695,0.020874
602,-193.667506,-28.503853,19.226368,0.053223,0.883436,1.002090
603,-370.183871,-37.537194,-51.026169,0.219242,0.666636,1.719509
604,-605.294881,-86.182956,-45.471885,-0.734142,-0.025757,1.171527
605,-756.481270,-170.534829,40.894179,-0.278325,0.151247,1.533104
606,-849.134051,-270.328832,63.538567,-0.334356,-0.359136,1.144060
607,-1056.290532,-211.306935,201.846342,0.809583,-2.000031,1.999969
608,-605.111772,-35.400931,198.794537,-1.180804,0.098878,1.999969
609,154.543374,20.019837,-37.964446,-0.443732,0.345708,1.999969
610,266.544595,49.317159,-32.837415,-0.629648,1.365133,1.814359
611,49.011978,30.762188,-16.479744,-0.571176,0.686168,1.349020
612,-106.202792,-59.693294,58.228428,-0.395758,0.596445,1.018082
613,-55.481804,-65.980011,69.336996,-0.105715,0.509895,1.099992
614,100.587472,-34.180209,30.212863,-0.084840,0.472297,0.987442
615,100.892653,-18.005646,19.043259,0.048951,0.637461,0.870985
616,52.185855,-13.183795,18.860151,-0.092653,0.437629,1.203632
617,109.620813,-7.019150,9.948882,-0.108400,0.333135,1.231952
618,168.520638,-6.713970,1.525902,-0.081910,0.416632,0.943496
619,164.919509,-16.784924,-0.122072,-0.029053,0.388190,0.816297
620,174.563211,-14.587625,-5.981537,0.000732,0.281987,0.831312
621,196.902419,-4.516670,-14.892805,0.019776,0.262455,0.778576
622,201.602197,3.540093,-21.911955,0.015991,0.244022,0.818128
623,205.874723,13.427939,-26.550698,-0.020996,0.179324,0.978042
624,220.340276,22.705425,-29.602502,-0.059815,0.131838,1.137102
625,236.331731,29.724575,-28.381781,-0.106569,0.080812,1.257465
626,252.201114,31.860838,-23.193713,-0.094484,0.011841,1.331075
627,272.159915,30.823224,-18.249790,-0.023682,-0.009277,1.330587
628,287.235828,28.809033,-16.296635,0.101686,-0.029664,1.330343
629,295.963989,30.457008,-19.165332,0.244633,-0.052857,1.378561
630,304.753185,38.513771,-27.710384,0.342290,-0.101686,1.430320
631,311.284047,50.110628,-39.368276,0.384039,-0.198978,1.311788
632,312.016480,60.181582,-51.758602,0.393072,-0.349004,0.913466
633,295.780880,63.660639,-61.036088,0.413458,-0.425055,0.639902
634,263.981079,58.716716,-67.017624,0.393072,-0.389044,0.770642
635,236.148623,52.491035,-74.036774,0.370367,-0.269780,1.296040
636,222.049287,53.650721,-81.177996,0.319463,-0.186038,1.999969
637,220.645457,63.965820,-87.098497,0.179690,-0.238651,1.999969
638,241.519799,79.774166,-87.769894,0.092287,-0.416510,1.999969
639,270.389868,89.723049,-84.473945,0.068605,-0.542123,1.999969
640,280.216678,88.075074,-78.614481,0.152224,-0.569467,1.999969
641,277.103838,82.398718,-74.341955,0.347173,-0.666270,1.999969
642,286.198215,85.389487,-79.468986,0.606088,-0.739269,1.999969
643,283.146410,98.207065,-91.248951,0.730236,-0.782605,1.802396
644,259.769589,104.066529,-100.953689,0.670298,-0.832776,1.674708
645,241.458763,100.221256,-108.155947,0.515023,-0.939467,1.666041
646,225.955596,91.798276,-108.155947,0.236210,-1.146624,1.619898
647,203.677424,85.267414,-99.427787,-0.035645,-1.524804,1.520043
648,179.568170,87.159533,-81.971466,-0.143435,-2.000031,1.409689
649,151.064317,101.747158,-57.129778,0.040528,-2.000031,1.158953
650,96.559091,120.119020,-26.855879,0.283452,-2.000031,0.834363
651,94.483864,149.294270,-8.850233,0.262089,-2.000031,-0.095705
652,106.080720,134.645609,17.090105,-0.284550,-2.000031,-2.000031
653,-81.971466,-18.249790,83.070115,-0.126833,-2.000031,-2.000031
654,-228.580148,-162.111849,141.603723,0.555673,-2.000031,-0.720348
655,-233.340963,-206.912337,128.358892,1.182269,-2.000031,0.593881
656,-214.297704,-159.304189,93.141070,0.872572,-0.537606,1.624903
657,-136.781872,-129.335470,50.476844,0.702281,0.589364,1.999969
658,-212.039368,-114.869917,75.196460,0.960830,0.811902,1.934356
659,-285.099565,-110.780499,63.721675,1.563622,-0.112062,1.206683
660,-258.487831,-57.557031,31.067369,1.309102,-0.337407,1.161883
661,-234.927901,-41.687648,4.821851,0.789319,0.052979,1.999969
662,-238.223850,-4.516670,3.356985,-0.196170,-0.603281,1.999969
663,-134.462501,-20.080873,11.596857,-1.659083,-0.456428,1.999969
664,-123.842222,-108.827344,50.965133,-1.350851,-0.425422,1.190570
665,-91.859312,-168.032349,47.241932,1.540063,0.227909,1.999969
666,-61.829557,-72.510872,15.197986,1.999969,0.133059,1.956329
667,-62.134737,17.517357,-2.502480,-0.615122,-0.033570,1.133074
668,-72.816052,-32.227054,15.320058,-0.441291,0.056641,1.499779
669,-27.222095,-34.119173,2.685588,0.645518,0.073365,1.141375
670,-33.508812,-3.051804,-4.150454,-0.013306,0.040284,1.102922
671,-50.782025,-9.765774,4.577707,-0.033692,-0.100710,1.148211
672,-13.183795,-6.897078,-1.525902,0.082033,0.029786,1.029801
673,-36.743725,-5.676356,2.563516,0.037110,-0.059937,1.113176
674,-17.639429,-4.821851,0.915541,0.017090,-0.103029,1.018814
675,-14.587625,-3.845274,0.976577,0.062989,0.013794,1.012345
676,-21.850919,-3.295949,3.906310,0.019654,-0.027832,1.078874
677,-10.986496,-2.014191,3.051804,0.027588,0.006348,0.971572
678,-16.968032,-0.915541,3.906310,0.052857,0.003540,0.983413
679,-16.784924,-0.061036,4.028382,0.015503,-0.054200,1.051041
680,-14.648661,0.061036,4.028382,0.042115,0.023316,0.956802
681,-22.461280,0.915541,3.479057,0.035279,0.010498,0.967910
682,-26.245518,0.610361,3.356985,0.015381,-0.020264,0.993057
683,-26.794842,1.037613,3.234913,0.039185,-0.035279,0.999893
684,-28.015564,2.868696,1.770047,0.043702,-0.166018,0.991592
685,-26.977951,3.540093,2.563516,0.031495,-0.080446,1.040787
686,-22.400244,3.845274,2.929732,0.024537,-0.073610,1.042374
687,-21.423667,4.821851,3.051804,0.034791,-0.086549,1.034318
688,-15.808347,6.164645,2.990768,0.015259,-0.066896,1.014420
689,-12.756542,6.164645,2.746624,0.005615,-0.046387,0.994766
690,-15.075914,5.004959,2.014191,-0.003906,-0.040894,0.985977
691,-14.526589,3.601129,1.770047,-0.006714,-0.069337,1.004166
692,-11.841001,2.868696,1.586938,-0.003174,-0.058473,0.998306
693,-11.779965,1.281758,1.586938,-0.002441,-0.074830,1.018814
694,-9.826810,0.427253,1.647974,0.002197,-0.080323,1.001114
695,-7.934691,-0.427253,1.831083,0.011841,-0.085817,1.026261
696,-5.798428,-0.793469,1.647974,0.008667,-0.088991,1.032364
697,-3.906310,-0.793469,1.403830,0.029786,-0.105837,1.030900
698,0.549325,0.000000,0.976577,0.010376,-0.085817,1.007584
699,2.746624,-0.244144,0.671397,-0.005615,-0.047242,0.960464
700,-1.953155,-1.525902,0.793469,-0.000610,-0.040284,0.930068
701,-5.798428,-2.990768,0.854505,-0.016968,-0.028199,0.950942
702,-10.070954,-5.676356,0.122072,-0.009888,-0.024903,0.948379
703,-15.442130,-7.080186,-0.488289,0.010010,-0.060670,0.987076
704,-15.442130,-7.324331,-0.549325,0.028687,-0.077272,0.970230
705,-15.197986,-7.080186,0.000000,0.034424,-0.082887,1.015763
706,-14.892805,-5.798428,-0.122072,0.015747,-0.074952,1.008438
707,-15.564202,-5.737392,-0.305180,0.024170,-0.073976,0.996597
708,-15.442130,-5.737392,-0.915541,0.022339,-0.072267,1.009659
709,-16.357671,-4.089418,-1.037613,0.046998,-0.070680,0.988540
710,-19.104295,-2.929732,-1.770047,0.020752,-0.105837,0.908095
711,-20.813306,-0.671397,-0.244144,0.047120,-0.021363,0.927626
712,-34.424353,1.159686,2.380407,0.037476,-0.035767,0.995132
713,-39.246204,1.709010,4.089418,0.013184,-0.090089,0.980117
714,-40.894179,4.516670,6.591897,0.057374,-0.085939,0.980850
715,-49.683375,6.775006,10.864424,0.017945,-0.161990,1.035172
716,-45.716030,8.117800,13.977264,0.015015,-0.151980,1.045060
717,-35.095750,8.972305,11.963073,-0.031250,-0.110231,1.052018
718,-29.358358,6.836042,4.150454,-0.096925,-0.123659,0.988907
719,-17.456321,2.380407,0.793469,-0.063355,-0.075807,1.028458
720,-10.498207,3.295949,-13.305867,-0.081300,-0.117678,1.003555
721,-39.490349,7.873655,-39.612421,0.027832,-0.118166,0.948745
722,-43.640803,5.554284,-39.551385,0.070558,-0.288334,1.048966
723,-26.794842,-2.563516,-20.935378,0.128298,-0.286870,1.045060
724,-8.606088,-7.385367,-5.432212,0.011719,-0.094972,1.004166
725,-25.818265,-8.728161,-12.878614,0.009522,0.052125,1.041520
726,-56.092164,-2.136263,-21.301595,0.060670,0.184939,0.907973
727,-90.882734,1.953155,-21.362631,0.135378,0.236576,0.996841
728,-139.528496,6.836042,-28.076600,-0.089357,0.522347,0.820935
729,-190.249485,-18.066682,-44.861524,-0.226566,0.150393,0.402350
730,-290.409705,-41.809720,-23.437858,-0.108766,0.873182,1.541161
731,-515.693904,-34.546426,-32.715343,0.102174,0.863783,1.958770
732,-700.083925,-96.437018,-18.982223,-0.661021,-0.002686,1.139910
733,-843.701839,-191.653315,66.102083,-0.172610,0.213626,1.145403
734,-959.609369,-237.125200,79.591058,0.253544,0.126345,1.058488
735,-1301.350424,-311.833371,167.055772,0.393805,-0.703990,1.999969
736,-403.570611,-134.035248,124.147402,-0.920058,0.235111,1.999969
737,363.653010,-15.259022,-105.287251,-0.128298,1.252338,1.999969
738,415.777829,31.433585,-102.418555,-0.807507,1.586816,1.999969
739,173.037308,33.142596,-95.948730,-0.753918,1.027237,0.718639
740,20.325017,-17.029068,-10.681315,-0.703746,0.336919,-0.379522
741,-27.222095,-39.185168,3.906310,-0.485481,0.127932,0.047730
742,63.599603,-20.141909,-0.976577,-0.511238,0.115724,0.407355
743,118.226902,-8.850233,-1.709010,-0.328130,0.374640,0.428840
744,82.825971,-10.803388,5.676356,-0.300053,0.403937,0.679332
745,84.779126,-10.193027,9.277485,-0.263188,0.337407,1.071183
746,133.424887,-3.906310,6.225681,-0.235111,0.388067,1.271382
747,160.952163,-1.281758,5.004959,-0.185428,0.455451,1.416526
748,181.887541,3.234913,3.112840,-0.144656,0.394293,1.570092
749,220.889601,14.099336,-1.953155,-0.123537,0.290898,1.489158
750,254.520485,26.489662,-7.568475,-0.100221,0.223270,1.263203
751,267.765316,37.109941,-10.681315,-0.083742,0.138430,1.117815
752,277.653162,45.654994,-12.573434,-0.064576,0.028443,1.059953
753,288.334478,51.941711,-13.488975,-0.022827,-0.025025,1.071916
754,295.231556,48.950942,-13.183795,0.032471,-0.056153,1.154681
755,302.494850,40.222782,-13.855192,0.113161,-0.065797,1.292744
756,313.359274,34.912642,-18.493935,0.212894,-0.082643,1.364034
757,316.960403,38.818952,-29.175250,0.311772,-0.227787,1.180072
758,307.377737,59.449149,-42.969406,0.376715,-0.413214,0.990005
759,289.921416,85.206378,-53.101396,0.369268,-0.429816,0.959365
760,266.727703,93.202106,-62.195773,0.396490,-0.395880,0.927871
761,250.308995,93.751431,-71.900511,0.394537,-0.289677,1.004288
762,220.889601,92.347601,-77.393759,0.304204,-0.228031,1.639551
763,192.141604,94.544900,-75.440604,0.191409,-0.251591,1.999969
764,213.321126,94.789044,-75.257496,0.145754,-0.472175,1.999969
765,262.882429,105.531395,-76.539254,0.147219,-0.626596,1.999969
766,269.413291,114.991989,-70.801862,0.129274,-0.714488,1.999969
767,265.201801,107.423514,-61.646448,0.086427,-0.875380,1.999969
768,289.555200,98.756390,-54.688334,0.153811,-0.981094,1.999969
769,307.377737,102.113375,-52.063783,0.290654,-0.976822,1.999969
770,295.841917,114.198520,-48.889906,0.538460,-0.932631,1.743679
771,277.531090,117.067216,-45.532921,0.468147,-0.965103,1.688746
772,264.164187,101.380941,-36.438544,0.293339,-1.114519,1.737209
773,253.727016,82.581827,-21.179522,0.019776,-1.370748,1.685939
774,237.552453,68.299382,-2.014191,-0.206790,-1.781277,1.473045
775,211.856260,66.346227,19.348440,-0.244877,-2.000031,1.189960
776,178.103304,83.070115,37.170977,0.075685,-2.000031,0.863294
777,125.246052,111.146716,39.307240,0.426520,-2.000031,0.581674
778,92.408637,163.515679,21.789883,0.606088,-2.000031,-0.015259
779,67.811093,176.760510,27.588312,0.392096,-2.000031,-0.714977
780,-20.874342,94.789044,58.106355,0.267094,-2.000031,-0.678599
781,-81.971466,-18.066682,94.666972,0.349371,-1.869657,0.171878
782,-81.727321,-90.577554,108.705272,0.348638,-1.218280,0.566537
783,-211.367971,-153.871977,37.109941,1.474876,-0.976333,0.075685
784,-179.140917,-104.615854,52.613108,0.239750,-0.260868,1.431785
785,-123.781186,-75.928893,42.908370,-0.247807,0.975967,1.543603
786,-145.510033,-84.962234,38.879988,-0.493660,0.616464,0.320439
787,-283.024338,-84.657053,69.398032,-0.240238,-0.289311,-1.168231
788,-348.516060,-84.840162,95.155261,0.570565,-0.350103,0.733898
789,-399.542229,-60.425727,95.826658,1.602930,-0.419928,1.999969
790,-246.097505,-28.259709,48.096437,1.964996,-0.478767,1.999969
791,-139.467460,6.408789,-7.629511,0.735119,0.109743,1.999969
792,-177.920195,-5.004959,11.047532,-1.465476,-0.390387,1.999969
793,-94.300755,-46.570535,45.227741,-1.787503,-0.675669,0.945937
794,-58.899825,-122.682536,53.650721,0.346197,0.572763,1.719020
795,-96.375982,-113.160906,35.950256,1.999969,0.333989,1.999969
796,-59.510185,-17.517357,6.286717,-0.014527,-0.184085,1.518578
797,-52.124819,-41.077287,8.728161,-0.805188,-0.073487,1.118425
798,-43.640803,-72.205692,-1.342794,0.629770,0.141115,1.539940
799,-42.664225,-31.738766,1.342794,0.242924,0.171145,1.138811
800,-56.214237,-21.118486,-0.549325,-0.269780,-0.123903,1.073381
801,-28.686961,-33.020523,-4.211490,0.056153,0.028077,1.114031
802,-31.311513,-23.498894,-3.662165,0.199344,0.022461,1.133928
803,-30.457008,-13.366903,0.000000,0.003174,-0.035401,1.140642
804,-17.212177,-7.568475,-1.647974,0.157717,0.023560,1.044938
805,-22.766461,2.014191,2.197299,0.077394,-0.012329,1.048356
806,-18.860151,5.859464,4.150454,0.099977,0.120974,1.050675
807,-23.376822,8.239872,6.958114,0.077150,0.044434,0.999283
808,-25.513085,11.108568,6.591897,-0.000855,0.002441,0.994888
809,-25.146868,9.887846,6.958114,0.032593,0.039063,0.977188
810,-28.564889,9.460594,6.469825,0.004028,-0.049928,0.983780
811,-28.259709,8.422980,6.347753,-0.011841,-0.028809,1.016495
812,-23.804074,7.080186,5.249104,0.013062,-0.008301,1.034073
813,-24.048219,6.103609,5.127031,0.004639,-0.031250,1.019669
814,-21.484703,5.004959,4.577707,-0.000366,-0.021241,1.021988
815,-19.226368,4.760815,4.150454,0.011719,-0.027222,1.017227
816,-16.784924,5.004959,3.723201,-0.020630,-0.028931,1.012711
817,-15.136950,3.540093,3.356985,-0.015015,-0.025757,0.997086
818,-14.282444,2.502480,2.380407,-0.001343,-0.008057,0.977676
819,-18.982223,1.647974,2.258335,-0.003784,-0.021973,0.993790
820,-17.395285,0.854505,1.525902,-0.014160,-0.028809,0.969986
821,-18.493935,-0.244144,1.709010,-0.006958,-0.022217,0.974136
822,-20.141909,-1.709010,1.525902,-0.010620,-0.037476,0.985122
823,-18.677043,-3.112840,1.220722,-0.005005,-0.046876,1.017960
824,-17.700465,-3.418021,1.159686,0.001221,-0.057008,1.012345
825,-16.601816,-3.051804,1.342794,0.014038,-0.073121,1.005509
826,-14.160372,-2.258335,1.647974,0.024170,-0.088258,1.026749
827,-11.902037,-1.586938,1.770047,0.012085,-0.074586,1.035050
828,-7.690547,-1.220722,1.464866,-0.002075,-0.050294,1.003555
829,-8.300908,-1.281758,1.220722,0.002564,-0.038575,0.974868
830,-10.803388,-2.014191,1.098650,-0.004517,-0.031373,0.956313
831,-14.709697,-3.356985,1.159686,-0.013794,-0.015137,0.938369
832,-19.714656,-6.103609,0.671397,-0.028321,-0.022705,0.944472
833,-26.611734,-7.995727,0.671397,0.003174,-0.034913,0.983291
834,-27.588312,-7.385367,0.183108,0.004517,-0.065797,1.046036
835,-24.414435,-5.798428,-0.671397,0.031250,-0.093141,1.040177
836,-23.376822,-4.394598,-1.098650,0.025757,-0.052369,1.030167
837,-22.766461,-2.990768,-0.732433,0.027832,-0.074586,1.008438
838,-21.667811,-2.136263,-0.854505,-0.004883,-0.053956,0.959487
839,-25.879301,-2.685588,0.122072,0.016236,-0.020874,0.930800
840,-39.246204,-4.150454,1.342794,-0.051148,-0.056764,1.005509
841,-35.645075,-4.821851,3.234913,0.033204,-0.090455,1.060441
842,-40.588998,-0.244144,3.112840,0.009644,-0.105348,0.973159
843,-42.969406,0.976577,6.042573,0.044434,-0.128786,1.048966
844,-39.185168,3.295949,5.798428,0.000122,-0.125978,1.055192
845,-35.461967,3.295949,3.356985,-0.050294,-0.055421,1.002579
846,-36.682689,0.305180,-1.709010,-0.052979,-0.057496,0.981827
847,-29.785611,0.915541,-11.474784,-0.091310,-0.136233,1.023453
848,-30.762188,-7.019150,-17.395285,-0.082155,0.075319,1.056168
849,-48.096437,-6.530861,-35.400931,0.019532,-0.121462,0.990494
850,-54.016938,1.709010,-31.250477,0.109621,-0.308110,0.994888
851,-39.917601,0.000000,-18.921187,0.129274,-0.308476,1.114397
852,-18.982223,-1.647974,-4.272526,0.020874,-0.092164,1.078386
853,-33.386740,-0.427253,-13.427939,-0.000732,0.107912,0.928481
854,-65.918975,1.647974,-18.066682,0.144778,0.249882,0.860609
855,-100.892653,5.554284,-8.300908,-0.049805,0.252689,0.821790
856,-132.326238,-5.737392,-17.639429,-0.099245,0.446906,0.785046
857,-225.406271,-8.422980,-17.456321,0.111086,0.944106,1.135760
858,-433.295186,-11.474784,-33.203632,0.153933,0.979995,1.539818
859,-663.035019,-21.667811,12.085145,-0.393805,0.398199,1.999969
860,-763.012131,-68.116274,51.087205,0.074220,-0.070314,1.188373
861,-837.720302,-57.862211,52.674144,0.100954,-0.210330,0.886610
862,-884.290837,-67.933165,40.772107,0.449714,-1.502098,1.520775
863,-1081.437400,-87.037461,165.224689,-0.719982,-0.613779,1.999969
864,-267.460136,-58.289464,-31.189441,-0.399420,-1.841703,1.999969
865,243.045701,-24.597543,-50.904097,-0.240848,0.772717,1.999969
866,203.555352,-31.006332,-55.786984,-0.521004,1.116594,1.999969
867,51.941711,-25.268940,-19.836728,-0.362188,0.579965,1.720607
868,25.940337,-40.344854,17.639429,-0.309697,0.339239,0.872206
869,112.855726,-15.320058,5.493248,-0.205325,0.259770,0.472663
870,135.317006,-2.746624,-0.427253,-0.190188,0.375250,0.110353
871,82.337682,-6.958114,5.249104,-0.183230,0.299931,0.301396
872,85.328450,-11.047532,5.920500,-0.164065,0.208988,0.612558
873,124.269474,-16.357671,1.709010,-0.099489,0.318486,0.715221
874,130.006867,-29.053178,-0.244144,-0.057984,0.371099,0.880507
875,141.908904,-38.330663,-5.676356,-0.007446,0.357916,1.119768
876,173.220417,-33.081559,-17.334249,0.026734,0.375738,1.260639
877,193.728542,-20.630198,-29.175250,-0.010620,0.333989,1.340475
878,212.466621,-4.028382,-38.147555,-0.075319,0.263188,1.460349
879,236.758984,12.939651,-43.640803,-0.146120,0.102907,1.504906
880,264.042115,25.024796,-44.861524,-0.225834,-0.039063,1.475486
881,286.503395,31.799802,-39.612421,-0.266972,-0.165164,1.312764
882,301.396201,32.715343,-31.555657,-0.255741,-0.256718,1.111345
883,304.509041,24.536507,-21.728847,-0.172244,-0.258427,1.068742
884,305.058366,13.305867,-16.418708,-0.030518,-0.249149,1.127214
885,307.621881,10.070954,-18.310826,0.146242,-0.206058,1.250263
886,306.157015,18.554971,-28.686961,0.284550,-0.182742,1.457664
887,306.462196,36.682689,-43.640803,0.322026,-0.239872,1.466453
888,307.194629,59.327077,-61.280232,0.322393,-0.416754,1.169818
889,294.438087,82.642863,-72.083619,0.273564,-0.474739,0.948135
890,265.201801,83.863584,-76.356146,0.221805,-0.439948,1.075700
891,243.106737,74.280919,-79.224842,0.237064,-0.385992,1.349630
892,235.721370,69.886320,-84.779126,0.277226,-0.240970,1.999969
893,223.941405,76.234073,-88.136110,0.258305,-0.271489,1.999969
894,248.966201,90.150301,-89.906157,0.154299,-0.487068,1.999969
895,300.602731,98.512245,-88.868544,0.127321,-0.630747,1.999969
896,320.561532,97.718776,-83.314260,0.157595,-0.687022,1.999969
897,312.870985,90.089265,-76.600290,0.273198,-0.775402,1.999969
898,310.673686,90.455482,-73.243305,0.373053,-0.844739,1.999969
899,301.518273,92.835889,-71.290150,0.346685,-0.924086,1.999969
900,284.367132,90.821698,-66.224155,0.294072,-1.103166,1.935576
901,272.098878,87.891966,-59.937438,0.191165,-1.327535,1.760281
902,250.247959,85.755703,-51.880674,0.113283,-1.673610,1.484398
903,217.776761,96.559091,-41.199359,0.171267,-2.000031,1.157977
904,165.590906,119.447623,-32.288090,0.431281,-2.000031,0.902480
905,91.798276,152.956436,-35.889220,0.647593,-2.000031,0.957168
906,71.168078,200.137331,-35.339895,0.555306,-2.000031,0.388800
907,107.484550,201.663233,-23.193713,0.295659,-2.000031,-0.707408
908,40.405890,123.476005,16.662852,0.004517,-2.000031,-1.283101
909,-86.671244,-10.070954,76.661326,-0.393072,-2.000031,-1.432761
910,-232.059205,-183.657588,103.150988,0.799817,-2.000031,-1.104753
911,-237.125200,-221.927214,99.183642,0.941421,-0.134157,1.999969
912,-132.875563,-126.405737,58.167391,0.203250,0.770764,1.999969
913,-112.123293,-113.221942,61.219196,-0.309941,0.904311,0.913466
914,-223.331044,-150.576028,93.263142,0.575937,0.170291,-0.735363
915,-322.148470,-126.344701,92.286564,1.355123,-0.301274,-0.029541
916,-358.037690,-75.806821,73.670558,1.306050,-0.135500,1.999969
917,-309.819181,-63.904784,50.232700,1.709865,-0.395392,1.999969
918,-138.857099,-1.647974,-7.995727,0.728161,-0.406134,1.999969
919,-142.458228,-29.785611,-4.394598,-1.482200,-0.118166,1.999969
920,-157.106889,-85.145342,55.664912,-1.860258,-0.798962,1.412985
921,-65.369650,-148.867018,48.401617,0.914443,0.215335,1.999969
922,-71.473259,-97.291524,22.766461,1.999969,0.220829,1.999969
923,-38.086519,12.695506,-5.188067,-0.223148,0.034302,1.047745
924,-58.228428,-21.606775,10.864424,-0.994644,-0.122560,1.290547
925,-29.846647,-59.510185,13.977264,0.715099,0.040650,1.431174
926,-10.254063,-15.381094,-3.112840,0.338628,0.124880,1.216815
927,-34.973678,-7.141222,8.056764,-0.294682,-0.130861,1.087785
928,-4.638743,-19.226368,3.356985,0.097414,0.039429,1.125383
929,-5.798428,-13.427939,0.122072,0.054200,0.059571,0.892103
930,-15.442130,-11.413748,1.831083,0.000366,0.030396,1.077775
931,-8.361944,-10.437171,2.319371,0.066651,0.032349,1.048234
932,-7.080186,-4.821851,2.563516,0.078859,-0.034546,1.022232
933,-10.864424,-0.915541,5.249104,0.050172,0.001953,1.033341
934,-4.943923,1.709010,5.371176,0.053956,0.079103,0.956680
935,-15.320058,3.295949,6.469825,0.038575,0.073243,0.973037
936,-18.677043,3.356985,6.286717,-0.011475,0.061158,0.924697
937,-21.728847,1.953155,5.798428,0.015259,0.068727,0.954116
938,-23.987182,1.098650,4.699779,-0.014649,0.036622,0.978897
939,-21.789883,-2.014191,3.051804,-0.035767,0.037476,0.985733
940,-19.897765,-4.760815,2.136263,0.015137,0.020264,0.982925
941,-19.226368,-5.615320,1.220722,-0.003296,0.044923,1.044083
942,-19.165332,-6.652934,1.647974,0.042115,0.014771,1.026261
943,-19.714656,-5.371176,2.014191,0.018921,0.038087,1.043473
944,-17.761501,-4.699779,2.136263,0.014649,0.034058,1.007584
945,-18.799115,-4.577707,1.831083,0.008545,0.018067,0.972915
946,-20.325017,-5.249104,1.342794,0.020142,0.016480,0.999039
947,-21.423667,-5.493248,0.671397,0.012329,0.006836,0.999283
948,-20.141909,-6.225681,0.305180,0.031250,-0.007324,1.009049
949,-20.447089,-6.164645,0.366217,0.013672,-0.012940,0.984512
950,-20.935378,-6.713970,0.488289,0.014893,-0.007446,0.986709
951,-22.034028,-7.568475,0.915541,0.025269,-0.021241,1.020523
952,-20.508125,-7.019150,0.488289,0.037720,-0.014771,1.009415
953,-19.470512,-6.958114,0.244144,0.033448,-0.026734,0.996841
954,-20.141909,-7.324331,0.122072,0.032593,-0.016358,0.996597
955,-21.972992,-6.958114,0.061036,0.038941,-0.037598,0.993912
956,-21.667811,-6.469825,0.366217,0.019287,-0.045777,1.064347
957,-22.095064,-5.981537,0.793469,0.028443,-0.021851,0.976089
958,-24.109255,-6.408789,0.976577,0.030762,-0.015503,0.972427
959,-26.367590,-6.408789,1.220722,0.050538,-0.038453,0.996597
960,-27.649348,-5.859464,1.831083,0.032837,-0.063478,1.010269
961,-24.353399,-4.760815,2.319371,0.070436,-0.015991,1.005386
962,-31.555657,-3.479057,2.563516,0.045655,-0.026001,0.965469
963,-33.325704,-2.014191,2.685588,0.056397,-0.038697,0.982193
964,-35.706111,-2.868696,2.380407,0.017823,-0.090333,0.994156
965,-34.790570,0.610361,2.136263,0.046387,-0.092042,0.981827
966,-34.790570,0.122072,1.831083,-0.007080,-0.052369,1.033829
967,-32.043946,-0.915541,1.709010,0.019654,-0.028565,0.987564
968,-34.973678,1.525902,2.319371,0.086061,-0.040406,0.976089
969,-48.950942,1.831083,5.493248,0.042969,-0.110353,1.003799
970,-39.856565,4.394598,6.469825,0.042237,-0.120485,0.999649
971,-41.870756,6.225681,6.042573,0.030762,-0.072511,1.020035
972,-47.302968,5.371176,4.577707,0.012451,-0.067018,0.964614
973,-47.486076,5.981537,1.403830,0.014282,-0.078248,0.999893
974,-53.040360,2.746624,-3.356985,-0.062013,-0.112673,1.041520
975,-48.950942,-0.488289,-10.925460,-0.107546,-0.162112,1.074968
976,-44.251164,1.403830,-18.432898,-0.072267,0.057008,1.077897
977,-63.355459,4.516670,-42.969406,0.056275,-0.210330,1.003799
978,-52.674144,2.868696,-35.156786,0.152590,-0.341558,1.050187
979,-29.053178,1.098650,-12.695506,0.177737,-0.257450,1.098405
980,-17.029068,4.882887,0.427253,0.058228,0.121340,0.986709
981,-62.561990,13.794156,-15.930419,0.069703,0.203250,1.028824
982,-123.048753,24.841688,-21.240558,0.081178,0.263676,0.884413
983,-174.624247,22.461280,-15.381094,-0.124025,0.515999,0.425666
984,-179.934386,-21.484703,5.554284,-0.106203,0.774670,0.888319
985,-383.306630,-24.719615,-43.884947,0.145022,1.146990,1.909331
986,-635.751888,-51.636530,-38.757916,-0.827405,0.408698,1.789334
987,-793.591211,-144.899672,38.513771,-0.524544,-0.103639,1.546532
988,-904.249638,-199.832151,83.070115,-0.078492,-0.051148,0.909804
989,-1092.729076,-233.279927,140.566110,1.531640,-2.000031,1.999969
990,-713.572900,-150.392920,222.842756,-0.409796,-0.977554,1.999969
991,165.102617,-57.373922,-72.877089,0.039918,0.000732,1.999969
992,394.659342,15.869383,-56.702525,-0.327520,1.193622,1.999969
993,190.188449,27.100023,-81.422141,-0.289555,0.851698,1.285908
994,27.405203,-17.944610,-3.295949,-0.597543,0.597299,0.134035
995,-55.848020,-55.054551,14.343481,-0.338750,0.461799,0.328740
996,32.166018,-30.334936,7.263294,-0.301640,0.285161,0.443732
997,101.930266,-10.070954,-7.385367,-0.196536,0.466926,0.472908
998,66.407263,-7.141222,-6.652934,-0.163088,0.486824,0.641367
999,62.378882,-8.056764,-6.347753,-0.217288,0.383917,1.023453
1000,114.747845,-6.897078,-11.047532,-0.228885,0.416022,1.203388
1001,143.739986,-13.061723,-11.963073,-0.222049,0.467170,1.265278
1002,161.623560,-14.343481,-12.451362,-0.157961,0.416754,1.438743
1003,197.573816,-2.929732,-18.677043,-0.124636,0.345342,1.457420
1004,229.861906,14.526589,-26.184482,-0.102541,0.275639,1.310079
1005,244.632639,29.053178,-30.701152,-0.126955,0.181399,1.258442
1006,261.051347,39.124132,-32.776379,-0.157473,0.059205,1.215839
1007,280.216678,46.021210,-32.593271,-0.137697,-0.023316,1.127214
1008,291.203174,46.814679,-30.151827,-0.113893,-0.063233,1.032242
1009,297.428855,40.466926,-27.710384,-0.059205,-0.069215,1.042008
1010,302.372778,34.973678,-28.503853,0.042237,-0.076051,1.107805
1011,304.509041,37.476158,-34.180209,0.137575,-0.106203,1.136126
1012,300.114443,48.828870,-44.983597,0.208499,-0.268925,0.959365
1013,285.893034,76.234073,-56.641489,0.283207,-0.431891,0.892836
1014,263.553826,104.615854,-63.904784,0.291142,-0.425055,1.075212
1015,244.937819,104.737926,-68.970779,0.318975,-0.383062,1.198016
1016,245.120928,91.248951,-75.745785,0.313115,-0.314458,1.458274
1017,229.373617,86.854353,-77.027543,0.221073,-0.331670,1.928862
1018,222.171359,94.361791,-74.036774,0.097414,-0.432502,1.999969
1019,238.162814,103.700313,-68.421454,0.029297,-0.540658,1.999969
1020,255.008774,107.606622,-58.167391,-0.009277,-0.667124,1.999969
1021,273.563745,107.118334,-46.204318,0.003052,-0.837659,1.999969
1022,283.451591,101.380941,-32.715343,0.046387,-0.876844,1.999969
1023,290.287633,91.737240,-20.630198,0.154910,-0.946426,1.999969
1024,305.180438,89.295796,-14.526589,0.427253,-0.956924,1.999969
1025,303.654536,93.080034,-14.831769,0.633310,-0.893324,1.790188
1026,280.338750,86.549172,-19.348440,0.650034,-0.967300,1.763943
1027,266.117342,77.698940,-24.292363,0.534066,-1.158831,1.801053
1028,256.839857,71.473259,-26.428626,0.333135,-1.502220,1.631983
1029,232.547494,70.313573,-22.766461,0.197024,-2.000031,1.275044
1030,192.019532,80.933852,-12.817578,0.398322,-2.000031,0.847547
1031,130.739300,98.146029,-12.512398,0.813489,-2.000031,0.479622
1032,87.342641,136.476692,-28.747997,0.989517,-2.000031,-0.043702
1033,85.206378,162.661173,-37.598230,0.695811,-2.000031,-0.642832
1034,4.455634,99.488823,-12.207218,0.465095,-2.000031,-0.991958
1035,-75.501640,-31.616693,32.043946,0.077394,-2.000031,-2.000031
1036,-214.358740,-228.580148,73.670558,1.032120,-1.659449,-0.749645
1037,-223.331044,-257.267109,40.039673,0.987564,-0.690806,1.999969
1038,-112.428473,-81.971466,15.869383,-0.222538,0.940566,1.999969
1039,-118.776226,-57.434958,30.151827,-0.861341,0.711315,0.497078
1040,-257.145037,-122.987716,65.674830,-0.059083,-0.018433,-0.996841
1041,-326.665141,-92.408637,78.431373,0.371344,-0.526986,-0.104616
1042,-389.105058,-88.258183,91.004807,1.259541,-0.236820,1.999969
1043,-322.819867,-33.630884,63.660639,1.874907,-0.560189,1.999969
1044,-126.039521,21.301595,3.784237,0.207279,-0.099733,1.999969
1045,-200.137331,-47.608148,22.217136,-1.397360,-0.837903,1.999969
1046,-53.467613,-88.929580,30.457008,-0.338628,-0.530037,1.999969
1047,-2.746624,-89.051652,9.155413,1.841337,0.537362,1.999969
1048,-35.584039,-2.197299,4.211490,0.521859,0.231205,1.096574
1049,-50.598917,4.394598,8.484016,-0.999405,-0.159792,1.152728
1050,-32.715343,-41.382467,11.413748,0.248173,-0.023316,1.381735
1051,-10.131991,-15.197986,-0.915541,0.521614,0.133791,1.270527
1052,-27.344167,4.150454,4.028382,-0.307744,-0.047730,0.993790
1053,-13.183795,-11.535821,3.662165,-0.007935,0.032959,1.134783
1054,-8.789197,-7.080186,0.671397,0.120607,0.067872,0.976577
1055,-15.381094,-2.380407,2.929732,-0.074952,0.031495,1.043839
1056,-9.460594,-5.737392,2.685588,0.017700,0.051392,1.028824
1057,-8.300908,-2.563516,1.647974,0.067384,0.077760,0.936294
1058,-14.099336,-1.709010,3.601129,-0.062379,0.015991,0.948501
1059,-13.122759,-5.371176,4.455634,0.040528,0.083986,1.011490
1060,-15.869383,-3.662165,4.882887,0.041016,0.061036,1.003311
1061,-18.921187,-3.173877,6.286717,-0.013794,0.045899,0.987686
1062,-18.432898,-4.394598,5.371176,0.009888,0.031617,0.949599
1063,-20.569162,-5.188067,5.004959,-0.033814,0.059815,1.028336
1064,-22.644388,-8.667124,6.591897,0.005005,0.038087,0.970596
1065,-28.686961,-10.681315,5.676356,-0.027832,0.031983,0.943252
1066,-29.297322,-12.817578,3.906310,-0.016480,0.045411,0.970230
1067,-32.715343,-13.305867,3.234913,-0.020752,0.051881,1.063127
1068,-27.466239,-13.244831,2.990768,0.041993,0.061891,0.960830
1069,-28.870069,-10.437171,2.258335,0.039063,-0.022583,1.030411
1070,-22.766461,-7.629511,1.342794,0.037232,0.000244,1.053605
1071,-23.193713,-6.469825,1.709010,0.026856,0.001465,1.007584
1072,-24.109255,-5.981537,1.525902,0.007691,-0.018433,0.996963
1073,-22.583352,-5.859464,2.014191,0.026490,-0.028077,1.027848
1074,-20.630198,-5.432212,2.258335,0.001709,-0.027955,0.995010
1075,-20.752270,-6.347753,2.807660,0.004395,-0.036866,1.010269
1076,-18.249790,-6.836042,2.319371,-0.002808,-0.033204,0.991226
1077,-18.616007,-9.094377,1.892119,-0.010742,-0.038453,0.984268
1078,-17.273213,-10.864424,1.037613,0.004273,-0.049195,0.985000
1079,-15.991455,-11.963073,0.183108,0.024781,-0.044678,1.007095
1080,-15.808347,-11.718929,-0.610361,0.026856,-0.048951,1.011612
1081,-14.892805,-10.498207,-0.732433,0.034424,-0.028687,1.029923
1082,-14.709697,-8.728161,-0.366217,0.055787,0.002075,1.023209
1083,-11.902037,-7.873655,-0.183108,0.039796,-0.040040,1.032609
1084,-12.390326,-7.019150,0.061036,0.045777,-0.054200,0.994766
1085,-11.779965,-6.164645,0.244144,0.031006,-0.041871,0.968765
1086,-13.488975,-5.737392,0.488289,0.036866,-0.026368,0.973892
1087,-17.395285,-5.798428,0.305180,0.023194,-0.026123,0.963638
1088,-20.263981,-6.713970,0.183108,0.018067,-0.013672,0.934829
1089,-24.841688,-8.484016,0.488289,0.044068,-0.010986,0.960464
1090,-29.541466,-8.972305,-0.244144,0.020142,-0.013550,0.937270
1091,-33.447776,-9.765774,0.915541,0.081178,-0.002564,1.077043
1092,-35.095750,-5.615320,-0.549325,0.041016,-0.058839,1.016007
1093,-34.363317,-4.455634,-0.427253,0.037476,-0.070802,0.998795
1094,-33.630884,-3.234913,0.732433,0.063355,-0.043580,1.005631
1095,-36.133364,1.831083,4.699779,0.089357,-0.062867,1.015640
1096,-47.486076,2.929732,8.178836,0.034302,-0.114504,1.025895
1097,-41.443503,7.629511,9.948882,0.123659,0.078981,0.836927
1098,-53.955901,5.310140,9.948882,-0.008911,-0.084352,1.067033
1099,-54.688334,3.540093,8.484016,-0.012940,-0.094606,0.977188
1100,-47.608148,2.075227,3.356985,-0.027710,-0.121096,0.997696
1101,-37.903410,0.793469,-4.089418,-0.027832,-0.092897,1.000992
1102,-43.213550,0.915541,-20.386053,-0.028687,-0.073121,0.912612
1103,-58.533608,3.295949,-44.800488,0.002930,-0.279667,1.036393
1104,-51.636530,0.183108,-37.476158,0.115480,-0.334844,1.089494
1105,-17.639429,-6.164645,-17.456321,0.142458,-0.381231,1.100359
1106,2.319371,-5.859464,-2.258335,0.129274,-0.082521,1.040909
1107,-20.508125,1.647974,-5.432212,0.081666,0.139406,1.068009
1108,-75.684749,17.639429,-18.982223,0.141970,0.087404,1.037613
1109,-113.588159,29.541466,-18.371862,-0.007202,0.456306,0.846448
1110,-203.860533,27.527276,-47.058824,-0.059449,0.776501,0.060548
1111,-207.278553,-33.813993,-13.366903,-0.151858,0.809583,1.332906
1112,-383.611811,-40.650034,-45.105669,0.001099,1.493919,1.999969
1113,-585.275044,-105.470359,-69.459068,-1.039689,0.150027,1.367453
1114,-768.871595,-193.850614,34.424353,-0.337041,0.164431,1.402731
1115,-909.803922,-238.345922,81.483177,0.074830,0.051148,0.967788
1116,-1073.746853,-238.529030,123.537041,1.694484,-2.000031,1.999969
1117,-737.499046,-112.367437,201.419089,-0.720592,-0.942275,1.999969
1118,187.136645,-7.446403,-91.004807,-0.302373,0.111940,1.999969
1119,428.351263,52.979324,-72.144656,-0.640024,1.206683,1.999969
1120,210.269322,52.674144,-83.192187,-0.605234,0.628550,0.917983
1121,45.471885,-20.569162,16.662852,-0.913710,0.500252,-0.047242
1122,-30.884260,-81.971466,45.288777,-0.449104,0.445563,0.215091
1123,40.466926,-65.613794,39.673457,-0.333135,0.319707,0.498909
1124,105.043107,-38.025483,22.095064,-0.212039,0.451667,0.587289
1125,80.445563,-16.784924,17.456321,-0.141115,0.512825,0.813733
1126,76.783398,0.671397,12.512398,-0.216922,0.383429,1.099504
1127,127.626459,12.085145,4.943923,-0.224002,0.385260,1.174701
1128,158.937972,11.169604,2.319371,-0.227909,0.418585,1.137835
1129,171.755550,4.455634,3.234913,-0.193240,0.364385,1.239033
1130,201.541161,6.469825,1.220722,-0.153689,0.307866,1.315084
1131,231.509880,16.662852,-2.685588,-0.093996,0.258183,1.250507
1132,246.280613,29.480430,-4.943923,-0.073365,0.188235,1.229877
1133,258.609903,39.917601,-5.676356,-0.050416,0.085206,1.222431
1134,277.347982,47.486076,-6.042573,0.029419,0.006348,1.143084
1135,290.959030,47.974365,-6.408789,0.078004,-0.022095,1.061784
1136,294.743267,40.833143,-6.469825,0.160403,-0.041505,1.115496
1137,299.443046,35.034714,-10.498207,0.274907,-0.096681,1.059342
1138,298.100252,42.481117,-22.522316,0.404181,-0.303960,0.739025
1139,280.460822,68.787671,-35.889220,0.574960,-0.348150,0.719249
1140,247.745480,80.933852,-46.875715,0.477790,-0.282109,0.982437
1141,238.712139,70.862898,-58.716716,0.430304,-0.235599,1.331441
1142,239.810788,66.895552,-67.811093,0.337163,-0.225223,1.692531
1143,232.486458,71.717403,-72.327764,0.275395,-0.339117,1.999969
1144,236.942092,80.933852,-75.501640,0.150637,-0.470100,1.999969
1145,250.431067,89.906157,-74.647135,0.065309,-0.549569,1.999969
1146,258.609903,94.361791,-67.994202,0.028687,-0.667002,1.999969
1147,272.770275,89.845121,-59.815366,-0.039429,-0.836072,1.999969
1148,294.132906,93.080034,-54.627298,-0.018555,-1.026139,1.869657
1149,273.136492,104.188602,-44.678416,-0.008301,-0.972061,1.883818
1150,245.181964,103.028916,-33.569848,0.102174,-0.984634,1.999969
1151,265.751125,101.136797,-28.320745,0.435920,-0.911025,1.999969
1152,274.113069,101.930266,-29.175250,0.648081,-0.837171,1.969635
1153,258.182651,96.131838,-30.884260,0.700084,-0.930800,1.849760
1154,250.064851,81.788357,-31.738766,0.530404,-1.188006,1.719020
1155,242.069123,64.759289,-28.442817,0.265019,-1.583764,1.484031
1156,221.133745,58.106355,-17.517357,0.197635,-2.000031,1.098039
1157,179.629206,63.233387,-3.051804,0.566293,-2.000031,0.672374
1158,118.348974,74.525063,-4.394598,1.028824,-2.000031,0.093141
1159,94.239719,100.221256,-41.809720,1.127947,-2.000031,-0.596078
1160,74.341955,95.460441,-47.180896,0.719493,-2.000031,-1.140276
1161,-44.861524,17.822538,-14.404517,0.218143,-2.000031,-0.421637
1162,-99.855039,-71.900511,28.076600,-0.112795,-1.595972,0.955459
1163,-77.210651,-121.522850,47.974365,0.197635,-1.786526,-2.000031
1164,-202.029450,-185.793851,59.021897,0.294560,-0.059937,1.075700
1165,-154.787518,-117.921721,38.757916,-0.130617,-0.479011,1.525780
1166,-94.117647,-41.199359,41.809720,-0.486091,1.102556,1.102434
1167,-210.025177,-104.737926,67.627985,-0.014649,0.801038,-0.064210
1168,-326.054780,-116.151675,73.365377,0.724498,-0.265507,0.438849
1169,-322.026398,-81.605249,64.820325,1.025895,-0.337530,1.999969
1170,-274.418250,-61.341268,44.434272,1.378927,-0.247807,1.999969
1171,-182.070649,-7.507439,9.277485,0.869520,-0.484749,1.999969
1172,-107.789731,13.550011,-6.836042,-0.477424,-0.327276,1.999969
1173,-112.794690,-19.714656,24.048219,-1.331319,-0.195560,1.999969
1174,-70.923934,-69.520104,42.847333,-0.240238,-0.043946,1.593408
1175,-50.049592,-83.741512,25.574121,1.406882,0.439216,1.993683
1176,-55.664912,-19.531548,0.976577,0.810681,-0.082277,1.430198
1177,-43.213550,3.723201,2.563516,-0.756359,-0.000488,1.256611
1178,-43.701839,-46.387427,10.498207,-0.166995,0.012573,1.177874
1179,-20.569162,-44.434272,-2.807660,0.521126,0.208988,1.284199
1180,-40.222782,-18.799115,4.028382,0.042237,0.018799,1.140276
1181,-29.358358,-17.029068,2.929732,-0.023194,-0.039918,1.340597
1182,-7.263294,-18.005646,-0.732433,0.087404,0.070680,1.099626
1183,-10.070954,-14.038300,-0.427253,0.047364,0.086061,0.977798
1184,-15.625238,-11.963073,-0.549325,-0.001831,0.044190,0.998795
1185,-13.733120,-11.108568,-0.305180,0.042359,0.075074,0.961440
1186,-19.958801,-7.141222,1.342794,0.105470,0.009400,0.978775
1187,-17.883574,-2.258335,3.662165,0.076295,0.051148,1.067887
1188,-16.540780,-0.061036,5.249104,0.056031,0.048951,0.985733
1189,-20.202945,1.647974,5.371176,0.023316,0.023438,1.031266
1190,-18.982223,1.953155,5.249104,0.018799,-0.046632,1.016495
1191,-12.634470,2.441444,4.394598,0.030152,-0.044434,1.036515
1192,-12.512398,2.014191,3.784237,0.022217,0.008301,1.030289
1193,-10.681315,1.464866,2.502480,-0.015259,0.001953,1.015152
1194,-7.751583,-0.305180,1.770047,0.010254,0.006592,1.023453
1195,-5.981537,-0.427253,1.403830,0.003174,0.019654,1.019181
1196,-2.319371,0.610361,0.549325,0.020142,0.000855,0.982193
1197,-1.586938,1.770047,-0.122072,0.042969,-0.072267,0.875257
1198,-2.075227,2.014191,0.854505,0.049073,0.013184,0.977066
1199,-3.051804,2.685588,2.014191,0.015259,0.058839,1.018082
1200,-2.563516,2.319371,2.075227,-0.000122,0.051514,0.953750
1201,-5.737392,0.366217,2.014191,0.001465,0.016968,0.946181
1202,-8.972305,-1.403830,1.464866,-0.011719,0.041871,0.976822
1203,-10.803388,-2.990768,1.098650,0.002686,-0.004639,0.945083
1204,-11.352712,-4.394598,0.915541,-0.005249,0.037110,0.959854
1205,-14.648661,-6.042573,1.098650,0.007446,-0.001831,0.979751
1206,-14.465553,-6.591897,1.159686,-0.000855,-0.000610,0.991592
1207,-12.329290,-7.446403,0.976577,0.013672,0.026123,0.965713
1208,-17.456321,-8.422980,1.220722,0.019654,-0.002930,0.980117
1209,-16.784924,-8.239872,1.220722,0.015015,-0.011475,1.005264
1210,-15.869383,-8.056764,1.037613,0.059449,-0.005982,1.029068
1211,-15.991455,-6.286717,1.220722,0.043946,-0.004028,0.996109
1212,-16.479744,-5.737392,1.647974,0.042725,0.006958,0.948867
1213,-21.118486,-6.286717,1.709010,0.005249,0.020752,0.951186
1214,-26.977951,-8.361944,1.342794,0.024903,0.012451,0.949233
1215,-30.518044,-8.300908,1.098650,0.015991,-0.027466,1.034806
1216,-33.508812,-7.629511,1.770047,0.064088,-0.037598,1.022110
1217,-32.837415,-5.371176,1.770047,0.044434,-0.044068,1.040055
1218,-30.212863,-4.272526,2.014191,0.045533,-0.052857,1.017350
1219,-28.320745,-2.807660,2.075227,0.048341,-0.022583,1.015030
1220,-31.677729,-2.136263,2.014191,0.030518,-0.042359,0.982193
1221,-31.555657,-2.563516,1.342794,0.011231,-0.008545,0.954116
1222,-36.255436,-4.943923,2.075227,-0.017456,-0.007080,0.959731
1223,-46.265354,-3.479057,3.356985,0.077028,-0.080079,1.077897
1224,-41.321431,-0.366217,4.028382,0.019654,-0.124269,1.042496
1225,-34.119173,1.586938,5.920500,0.125856,0.016724,0.960220
1226,-57.434958,6.775006,8.606088,-0.010742,-0.058595,1.002579
1227,-57.007706,3.967346,7.690547,0.014649,-0.083253,0.990982
1228,-50.110628,4.882887,1.037613,0.004028,0.001343,1.021134
1229,-56.702525,3.051804,-4.455634,-0.022461,0.000488,0.992081
1230,-64.454108,-0.976577,-12.695506,-0.050416,-0.093507,0.970474
1231,-63.660639,-4.272526,-21.423667,-0.082277,-0.209476,1.151629
1232,-73.975738,5.615320,-43.701839,0.001709,-0.162966,1.102312
1233,-56.824598,-0.366217,-41.748684,0.107057,-0.376837,1.046036
1234,-32.166018,-4.028382,-15.136950,0.255375,-0.234745,1.116472
1235,-29.968719,3.295949,1.586938,0.127687,0.161501,1.037858
1236,-86.427100,23.315785,-18.860151,0.092653,0.262577,0.926894
1237,-142.336156,32.654307,-24.902724,0.006592,0.466926,0.730114
1238,-202.578775,13.122759,-25.574121,-0.276127,0.466316,0.053834
1239,-228.763256,-43.579767,10.070954,-0.128054,0.874037,1.364767
1240,-457.404440,-54.261082,-45.838102,0.121584,0.977554,1.999969
1241,-613.717861,-139.894713,-23.559930,-1.086687,0.237430,1.904082
1242,-840.222782,-240.238041,71.107042,-0.396979,-0.060304,1.248310
1243,-936.842908,-288.395514,131.227588,0.036988,0.201053,0.957290
1244,-1169.939727,-312.260624,174.868391,1.482200,-2.000031,1.999969
1245,-635.873961,-160.463874,231.509880,-0.671397,-0.508431,1.999969
1246,237.003128,-46.326390,-64.209964,-0.016724,0.545663,1.999969
1247,410.528725,44.251164,-44.312200,-0.384283,1.506493,1.999969
1248,225.589380,56.397345,-75.867857,-0.495979,0.835462,1.412619
1249,87.769894,7.812619,10.376135,-0.704845,0.611093,0.079835
1250,7.080186,-29.053178,28.870069,-0.318975,0.365972,0.130617
1251,70.984970,-12.207218,24.536507,-0.338262,0.200687,0.331914
1252,137.026017,2.868696,11.596857,-0.128664,0.356939,0.360723
1253,105.348287,7.568475,9.826810,-0.034913,0.448859,0.590829
1254,91.737240,9.155413,6.591897,-0.030152,0.358038,0.983413
1255,140.016785,14.953841,-2.990768,-0.017334,0.398322,1.220478
1256,174.258030,14.343481,-10.193027,0.010986,0.455818,1.249042
1257,188.662547,10.742351,-15.197986,0.057130,0.430304,1.344137
1258,217.532616,15.503166,-23.865110,0.092287,0.360723,1.489769
1259,249.576562,26.672770,-33.447776,0.116945,0.290288,1.490501
1260,273.624781,39.063096,-42.542153,0.119631,0.182010,1.484642
1261,294.499123,50.659953,-48.279545,0.119265,0.038453,1.414572
1262,316.655222,58.655680,-52.124819,0.131716,-0.081422,1.245136
1263,332.524605,57.007706,-53.711757,0.146365,-0.156374,0.994522
1264,333.257038,46.997787,-53.772793,0.177249,-0.196658,0.847059
1265,324.162661,38.452735,-57.312886,0.238407,-0.279057,0.680919
1266,302.311742,45.227741,-66.712444,0.271244,-0.533822,0.395270
1267,268.497749,75.745785,-72.999161,0.318730,-0.543954,0.433967
1268,226.382849,93.629358,-78.004120,0.337652,-0.378912,0.886976
1269,205.874723,89.051652,-86.915389,0.419684,-0.247318,1.487449
1270,209.719997,87.525750,-94.666972,0.195682,-0.205447,1.999969
1271,208.987564,94.544900,-93.018997,0.021729,-0.339727,1.999969
1272,239.444572,112.245365,-85.023270,-0.110475,-0.685557,1.999969
1273,281.681544,128.969253,-72.693980,-0.083742,-0.821668,1.999969
1274,269.047074,126.588846,-53.772793,-0.087526,-0.846693,1.999969
1275,255.558099,110.170138,-36.072328,0.005127,-0.993790,1.999969
1276,274.967575,107.789731,-24.536507,0.085695,-1.041886,1.999969
1277,286.320287,114.869917,-15.564202,0.240726,-1.045182,1.999969
1278,276.920729,122.865644,-7.690547,0.536263,-0.957656,1.969390
1279,268.314641,118.104829,-2.807660,0.539803,-1.021866,1.993439
1280,271.549554,93.751431,3.479057,0.507332,-1.154681,1.906767
1281,268.741894,63.904784,10.620279,0.369757,-1.410666,1.732204
1282,255.436027,45.288777,19.775692,0.188968,-1.813382,1.432029
1283,229.312581,43.396658,26.611734,0.099977,-2.000031,1.020768
1284,185.305562,53.528649,35.706111,0.193240,-2.000031,0.685557
1285,130.006867,74.402991,27.954528,0.697765,-2.000031,0.274052
1286,85.267414,110.292210,4.150454,0.864393,-2.000031,-0.099245
1287,67.689021,132.814527,-0.244144,0.176150,-2.000031,-1.616480
1288,-93.080034,-3.784237,46.265354,0.361456,-2.000031,-2.000031
1289,-308.598459,-187.869078,96.253910,1.347799,-2.000031,-0.957168
1290,-209.048600,-172.854200,53.284504,1.387594,-0.193118,1.999969
1291,-126.710918,-72.388800,5.371176,0.155642,1.148821,1.999969
1292,-151.430533,-58.716716,18.188754,-0.617197,0.953994,1.119036
1293,-277.531090,-101.686122,39.795529,-0.552010,-0.348028,-0.117433
1294,-281.742580,-85.999847,64.698253,-0.108888,-0.704479,0.675059
1295,-287.174792,-87.769894,76.050965,0.984634,-0.086793,1.999969
1296,-237.857633,-41.260395,54.566262,1.610254,-0.210330,1.999969
1297,-113.344015,14.709697,2.380407,1.060197,-0.116945,1.104997
1298,-175.478752,24.719615,1.831083,-0.777111,0.134035,1.912261
1299,-208.377203,-37.903410,37.354086,-1.567773,-0.840223,1.999969
1300,-59.876402,-107.118334,24.780652,0.371954,-0.296269,1.999969
1301,-24.902724,-74.158846,1.831083,1.560693,0.004517,1.999969
1302,-21.484703,2.075227,-1.525902,-0.206546,0.197757,0.924941
1303,-58.289464,-24.963760,9.399557,-0.651621,-0.079469,0.998062
1304,-37.109941,-51.697566,3.723201,0.378912,0.072145,1.367941
1305,-31.250477,-23.559930,-4.638743,0.309209,-0.000732,1.169207
1306,-31.067369,-13.672084,-0.854505,-0.198489,-0.015747,1.079850
1307,-19.775692,-23.926146,-1.831083,0.120729,0.043824,1.021012
1308,-23.132677,-18.005646,-1.464866,0.060914,0.027222,1.119036
1309,-21.972992,-15.320058,1.647974,0.033570,-0.034791,1.131853
1310,-9.277485,-12.024109,0.976577,0.053468,0.043702,1.014298
1311,-17.151141,-9.399557,3.784237,0.080812,0.054688,1.061051
1312,-12.817578,-6.042573,4.577707,0.038453,0.000000,1.027237
1313,-13.794156,-3.784237,4.150454,0.105348,0.098268,1.017716
1314,-14.038300,-2.807660,5.676356,0.061646,0.006104,1.037369
1315,-15.014878,-1.647974,4.028382,-0.003052,0.000122,0.940322
1316,-14.709697,-3.051804,4.699779,0.043946,0.005615,1.008804
1317,-15.503166,-2.319371,4.089418,0.000977,0.005982,1.029923
1318,-11.352712,-3.173877,3.356985,0.005005,-0.041260,0.956680
1319,-10.315099,-4.577707,3.234913,0.027955,0.029786,1.022232
1320,-10.437171,-5.004959,3.356985,0.030274,0.063478,1.084977
1321,-6.347753,-3.845274,2.868696,0.031006,-0.036011,1.047745
1322,-4.699779,-2.624552,2.014191,0.039673,-0.027466,0.962539
1323,-5.859464,-2.502480,2.136263,0.013672,0.026368,1.070817
1324,-2.685588,-1.647974,1.586938,0.042237,-0.013184,0.955581
1325,-5.493248,-1.770047,2.014191,0.029786,0.022095,1.030900
1326,-5.737392,-1.403830,1.525902,0.041993,-0.061524,0.973648
1327,-6.408789,-1.342794,1.220722,0.027222,-0.010254,0.984512
1328,-8.911269,-1.709010,1.342794,0.003662,0.041138,1.030289
1329,-7.019150,-2.014191,1.647974,0.036500,-0.027955,0.959243
1330,-7.202258,-2.075227,1.709010,0.022950,-0.010620,0.997086
1331,-9.033341,-2.136263,2.014191,0.013306,-0.000488,0.993423
1332,-7.812619,-2.624552,2.014191,0.011963,0.018921,0.949966
1333,-11.963073,-4.943923,1.647974,0.000977,0.036988,0.951064
1334,-18.493935,-6.958114,1.647974,0.038087,-0.008545,1.016739
1335,-17.090105,-6.713970,0.793469,0.029541,-0.029419,1.011124
1336,-14.282444,-6.286717,0.488289,0.046387,-0.003662,1.005875
1337,-16.235599,-5.615320,0.427253,0.038575,-0.021607,0.985611
1338,-16.113527,-5.188067,0.244144,0.044190,-0.018555,0.990005
1339,-16.296635,-3.845274,0.427253,0.015869,-0.019409,0.973526
1340,-19.226368,-4.760815,0.061036,0.023926,-0.008423,0.990127
1341,-20.691234,-5.859464,-0.549325,0.023926,-0.003174,0.953628
1342,-24.597543,-6.958114,-1.342794,0.020874,-0.003540,0.937514
1343,-29.968719,-8.422980,-1.342794,0.041627,-0.026368,0.990372
1344,-29.236286,-7.995727,-1.159686,0.050172,-0.040040,1.000870
1345,-28.503853,-7.873655,0.000000,0.037720,-0.066285,0.906508
1346,-31.372549,-4.943923,-0.976577,0.099001,-0.033326,1.034073
1347,-35.767147,-1.586938,0.244144,0.027588,-0.034424,1.058610
1348,-35.034714,-0.366217,1.403830,0.053590,-0.110475,0.976455
1349,-33.020523,0.793469,3.356985,0.049317,-0.106081,1.018326
1350,-31.067369,3.051804,6.958114,0.083619,-0.053346,1.010758
1351,-36.072328,8.667124,9.155413,0.013062,-0.037110,1.002213
1352,-44.556344,6.042573,9.826810,-0.001587,-0.072389,0.982193
1353,-38.330663,5.737392,4.699779,-0.004639,-0.013794,1.006485
1354,-43.640803,4.516670,-0.488289,-0.009522,-0.026612,0.985489
1355,-49.439231,0.183108,-4.577707,-0.045045,-0.042237,0.991836
1356,-51.392386,-3.906310,-16.296635,-0.039063,-0.130983,1.004410
1357,-49.378195,0.244144,-24.048219,0.058228,-0.103029,0.785657
1358,-70.557717,0.244144,-42.236973,0.050538,-0.070680,1.025772
1359,-58.899825,-2.807660,-40.527962,0.159060,-0.342779,1.014054
1360,-26.794842,-5.432212,-14.953841,0.245365,-0.233646,1.106828
1361,-39.246204,4.394598,-5.371176,0.102663,-0.058106,1.063981
1362,-64.759289,15.381094,-14.709697,0.014649,0.253910,0.976699
1363,-117.311360,21.789883,-27.222095,0.092409,0.245853,0.844739
1364,-171.206226,20.202945,-40.833143,-0.096803,0.401495,0.350713
1365,-179.568170,-17.334249,-32.166018,-0.253422,0.536629,0.543587
1366,-220.645457,-74.647135,-39.917601,-0.383917,0.718151,1.318990
1367,-357.244221,-141.786831,-44.800488,-0.438972,0.567391,1.507225
1368,-600.228885,-286.015106,13.733120,-0.615610,0.020142,0.753429
1369,-787.426566,-372.503243,110.292210,0.014893,-0.163333,0.600961
1370,-876.844434,-355.657282,151.735714,0.470954,-0.095216,0.636362
1371,-1034.439612,-356.755932,168.947890,1.999969,-2.000031,1.999969
1372,-713.084611,-159.975586,207.461662,0.160769,-0.080446,1.999969
1373,163.820859,-7.995727,-62.806134,0.192386,0.573617,1.999969
1374,370.550088,77.515831,-94.483864,-0.474983,1.301167,1.999969
1375,214.969100,82.887007,-95.704585,-0.769543,0.738903,1.434104
1376,65.003433,8.728161,-11.779965,-0.842786,0.551034,0.453376
1377,19.104295,-11.779965,18.921187,-0.534554,0.138308,0.220096
1378,93.568322,10.193027,22.217136,-0.561532,0.069947,0.365362
1379,135.866331,28.625925,25.574121,-0.382818,0.281132,0.310430
1380,102.296483,34.546426,33.936065,-0.317754,0.313115,0.534066
1381,96.559091,36.621653,39.673457,-0.318486,0.244633,0.983658
1382,140.444038,39.124132,40.222782,-0.259281,0.277592,1.268940
1383,175.844968,40.588998,41.748684,-0.158816,0.359747,1.431418
1384,197.756924,44.129091,42.236973,-0.039307,0.346929,1.547021
1385,227.176318,55.359731,38.696880,0.107179,0.243534,1.518578
1386,252.567330,68.970779,27.527276,0.384649,0.080568,1.416159
1387,270.511940,91.798276,7.812619,0.499275,-0.101686,1.241840
1388,291.691463,107.606622,-12.146181,0.491218,-0.188113,1.002823
1389,292.912184,105.714504,-26.123445,0.492073,-0.236942,0.932021
1390,284.245060,95.460441,-36.133364,0.460334,-0.327886,0.926284
1391,283.390555,81.177996,-45.471885,0.431159,-0.367681,0.990372
1392,279.667353,68.116274,-54.261082,0.450202,-0.358526,1.090837
1393,270.756085,60.669871,-63.843748,0.433967,-0.395758,1.242817
1394,266.117342,61.280232,-72.083619,0.326665,-0.459724,1.334005
1395,267.154955,64.148928,-75.928893,0.174319,-0.518074,1.375875
1396,262.882429,67.078660,-72.632944,0.068727,-0.516976,1.413474
1397,255.985351,69.947356,-65.735866,0.045533,-0.514534,1.474998
1398,248.844129,77.027543,-58.411536,0.098146,-0.510384,1.601587
1399,239.200427,87.769894,-52.063783,0.177493,-0.534920,1.744411
1400,234.378576,96.681163,-46.875715,0.263188,-0.555673,1.864652
1401,235.111009,99.305715,-43.762875,0.351446,-0.570687,1.973053
1402,236.942092,96.864271,-42.481117,0.432990,-0.597421,1.999969
1403,241.519799,94.300755,-43.579767,0.489509,-0.652964,1.988922
1404,245.548180,94.178683,-46.326390,0.496956,-0.700572,1.895659
1405,244.388495,95.521477,-49.073014,0.463386,-0.755261,1.758938
1406,236.942092,95.887694,-49.134051,0.384161,-0.798596,1.618555
1407,225.467308,87.098497,-44.861524,0.240360,-0.848646,1.519921
1408,212.588693,68.848707,-36.560616,0.086061,-0.934096,1.464744
1409,197.573816,51.941711,-26.245518,-0.033692,-1.091814,1.444846
1410,180.727855,44.312200,-15.136950,-0.129030,-1.312154,1.438376
1411,160.158694,47.669184,-3.051804,-0.107912,-1.651392,1.515648
1412,143.678950,63.050278,9.826810,0.013184,-2.000031,1.606714
1413,134.889754,89.539940,15.320058,0.416754,-2.000031,1.498680
1414,134.828717,135.072862,16.662852,0.586923,-2.000031,1.141741
1415,140.566110,174.319066,12.878614,0.566171,-2.000031,-0.012085
1416,104.737926,141.847868,32.227054,0.530526,-2.000031,-1.192279
1417,15.564202,40.711070,57.007706,0.549447,-2.000031,-1.451316
1418,-74.647135,-72.999161,71.717403,0.793469,-2.000031,-2.000031
1419,-234.378576,-194.460975,65.369650,1.651026,-0.702037,-0.395514
1420,-175.295644,-167.055772,12.268254,0.783093,-0.412482,1.691676
1421,-99.122606,-114.076448,-6.530861,0.062745,1.154314,1.999969
1422,-145.998322,-93.080034,1.831083,-0.500008,0.936660,0.726329
1423,-300.968948,-92.103456,24.292363,-0.658457,-0.080201,-0.261845
1424,-324.345769,-101.747158,43.762875,-0.327642,-0.714122,0.679576
1425,-304.448005,-91.737240,55.237659,0.683848,-0.318975,1.999969
1426,-255.680171,-40.527962,38.574807,0.948745,-0.273442,1.999969
1427,-156.069276,2.319371,12.512398,0.379889,-0.461311,1.854276
1428,-180.910964,-35.400931,32.227054,-0.766491,-0.126223,1.999969
1429,-140.444038,-73.853666,47.669184,-0.428595,-0.651255,1.999969
1430,-27.222095,-90.943771,17.578393,1.030900,0.031128,1.999969
1431,-31.799802,-31.555657,1.770047,1.003433,0.023804,1.596826
1432,-43.701839,7.751583,10.254063,-0.418341,0.033814,0.978164
1433,-60.669871,-23.743038,14.953841,-0.373053,-0.065309,1.199237
1434,-22.766461,-29.114214,2.075227,0.374273,0.092897,1.208270
1435,-35.645075,-12.024109,-0.976577,0.050050,0.116091,1.078996
1436,-43.579767,-13.244831,0.122072,-0.100710,-0.033082,1.167498
1437,-19.592584,-12.207218,-3.295949,0.096193,0.022583,1.108415
1438,-26.550698,-6.408789,-0.488289,0.007691,0.020874,1.015640
1439,-27.161059,-5.554284,0.976577,-0.020264,0.001099,1.073259
1440,-20.263981,-4.028382,0.366217,0.027710,-0.004517,1.065446
1441,-18.982223,-1.464866,1.525902,0.013794,0.005371,1.018570
1442,-17.578393,0.244144,1.709010,0.038087,0.017334,1.044083
1443,-18.616007,2.685588,2.746624,0.032471,-0.012573,1.064103
1444,-13.488975,4.943923,2.929732,-0.004395,0.019165,0.991226
1445,-17.578393,5.004959,3.540093,0.016358,0.030274,0.993912
1446,-19.226368,7.995727,-0.549325,0.042969,-0.354253,0.617197
1447,-17.578393,5.432212,1.709010,-0.037720,0.018799,1.077653
1448,-19.714656,4.516670,3.906310,-0.022095,0.002808,1.025284
1449,-18.127718,4.333562,3.601129,-0.029053,-0.020264,1.015274
1450,-15.503166,4.394598,3.234913,-0.018433,-0.026978,1.026139
1451,-12.268254,4.516670,2.685588,-0.025025,-0.009277,1.011368
1452,-13.244831,3.540093,2.380407,-0.028443,-0.019409,1.005509
1453,-11.535821,3.173877,2.014191,-0.020752,-0.002686,1.000015
1454,-13.550011,2.685588,1.586938,-0.028565,-0.009888,0.983169
1455,-14.343481,2.197299,1.403830,-0.031495,-0.015381,0.994400
1456,-12.329290,0.488289,1.098650,-0.039551,0.118288,1.010513
1457,-14.709697,0.976577,2.075227,-0.042603,0.000000,0.971450
1458,-16.418708,-0.061036,1.403830,-0.034546,-0.027710,1.037003
1459,-14.953841,-1.159686,1.037613,-0.036866,-0.038941,1.003189
1460,-15.075914,-2.441444,1.342794,-0.015503,-0.055665,1.013687
1461,-11.657893,-2.136263,1.525902,-0.036255,-0.056275,1.034928
1462,-8.606088,-2.990768,1.403830,-0.029786,-0.045289,1.005753
1463,-6.530861,-3.967346,0.854505,-0.048585,-0.027344,0.982803
1464,-8.117800,-6.347753,0.366217,-0.029786,-0.024170,0.965713
1465,-9.460594,-7.934691,0.000000,-0.035157,-0.035279,0.988052
1466,-8.911269,-6.775006,-2.075227,0.069947,-0.218509,0.742077
1467,-7.995727,-8.789197,-1.464866,-0.011963,-0.039918,1.052384
1468,-9.887846,-8.972305,0.244144,-0.009400,-0.041871,1.005753
1469,-8.056764,-8.728161,0.366217,-0.011231,-0.058106,0.977066
1470,-9.704738,-8.606088,0.915541,0.007080,-0.042725,1.051896
1471,-7.202258,-6.897078,0.915541,0.004150,-0.033814,1.052873
1472,-6.103609,-5.798428,1.037613,-0.001831,-0.031006,1.024796
1473,-6.591897,-5.065995,1.098650,-0.014893,-0.043580,1.003922
1474,-6.042573,-5.310140,1.037613,-0.010498,-0.034791,0.999893
1475,-7.934691,-5.920500,1.098650,-0.009644,-0.030030,0.977920
1476,-10.681315,-6.713970,0.549325,0.007446,-0.025513,0.977554
1477,-15.014878,-5.920500,0.671397,0.002441,-0.037598,0.985122
1478,-16.845960,-4.760815,0.915541,-0.007813,-0.041871,0.982071
1479,-18.066682,-4.089418,1.098650,0.001099,-0.012207,0.981827
1480,-22.156100,-3.234913,1.098650,-0.008057,-0.054566,0.983291
1481,-23.437858,-3.784237,1.709010,0.006714,-0.065064,1.001968
1482,-21.179522,-1.953155,1.709010,-0.003906,-0.054810,0.994156
1483,-23.926146,-2.441444,2.380407,-0.012940,-0.046998,1.032853
1484,-22.156100,-2.502480,3.112840,0.003784,-0.079957,1.000259
1485,-26.672770,-2.929732,3.906310,-0.025757,-0.068360,0.984756
1486,-24.841688,-4.211490,3.356985,-0.064454,-0.049317,0.958267
1487,-26.001373,-6.652934,1.586938,0.016236,-0.020264,0.979141
1488,-35.461967,-7.812619,-0.244144,-0.029664,-0.050538,0.975601
1489,-36.499580,-8.667124,-1.159686,-0.001221,-0.064088,1.005753
1490,-38.147555,-6.164645,-0.732433,0.040650,-0.090333,1.106462
1491,-36.499580,-2.502480,-3.601129,0.002564,-0.074220,1.024552
1492,-34.607462,1.037613,-7.080186,0.013306,-0.072877,0.994888
1493,-32.715343,5.737392,-6.408789,-0.000855,-0.143191,0.995499
1494,-22.766461,6.530861,-5.615320,-0.067628,-0.006958,1.052384
1495,-51.392386,3.967346,-33.508812,-0.135012,-0.042359,0.962173
1496,-71.656367,6.775006,-39.612421,0.107912,-0.280034,1.047745
1497,-41.992828,-0.671397,-13.061723,0.091066,-0.238163,1.077165
1498,-36.865797,-6.225681,-11.230640,-0.049683,0.120485,0.896620
1499,-63.111315,-8.545052,-23.926146,-0.009888,0.313603,0.840955
1500,-125.551232,-9.765774,-27.344167,0.080323,0.232670,0.805798
1501,-171.877623,-11.596857,-19.104295,0.046387,0.233524,0.777722
1502,-207.522698,-12.329290,-28.442817,0.168704,0.685435,1.049088
1503,-337.529564,-10.131991,-53.223468,-0.146731,0.591318,1.569970
1504,-502.632181,-36.011292,-10.803388,-0.664317,-0.042969,1.504662
1505,-595.345998,-123.598077,31.555657,-0.635508,-0.376226,0.729503
1506,-652.536812,-205.325399,65.674830,-0.228763,-0.568490,0.952041
1507,-673.655299,-276.554513,89.784085,0.024414,-0.627085,0.524544
1508,-753.795682,-319.218738,137.270161,0.815930,-1.971099,1.999969
1509,-518.928817,-234.012360,136.110475,0.016358,-0.286015,1.999969
1510,-36.072328,-165.346761,-4.394598,0.451057,0.515633,1.999969
1511,119.569696,-30.518044,-56.519417,0.522103,1.456443,1.999969
1512,36.499580,47.913329,-71.534295,-0.254154,0.945571,1.999969
1513,-7.446403,39.978637,-42.725261,-0.486580,0.473640,1.814481
1514,90.516518,49.805447,-33.569848,-0.612924,0.221683,1.198260
1515,160.463874,41.321431,-20.569162,-0.543221,0.286625,0.604623
1516,131.960021,25.574121,-0.244144,-0.400519,0.250126,0.478523
1517,124.452583,25.940337,12.207218,-0.297002,0.143801,0.595712
1518,158.022431,38.757916,12.268254,-0.157839,0.218875,0.726940
1519,170.473793,46.204318,10.864424,-0.027222,0.343877,0.880140
1520,182.070649,49.683375,6.042573,0.112306,0.344854,1.110979
1521,211.978332,55.298695,-2.685588,0.139651,0.293584,1.206928
1522,236.758984,57.740139,-12.085145,0.302251,0.169070,1.097429
1523,247.928588,62.256809,-27.710384,0.407721,-0.019654,1.110735
1524,271.793698,83.680476,-46.692607,0.419684,-0.104738,0.937758
1525,273.197528,88.929580,-60.852979,0.438727,-0.183108,0.907485
1526,269.718471,87.098497,-71.229114,0.380011,-0.339117,0.961318
1527,272.648203,77.088579,-77.882048,0.273075,-0.467292,1.045914
1528,277.653162,59.449149,-79.285878,0.202152,-0.516243,1.209369
1529,278.263523,41.931792,-79.224842,0.144289,-0.614267,1.383566
1530,280.155642,38.147555,-77.149615,-0.014893,-0.742321,1.436179
1531,284.000916,43.762875,-71.290150,-0.188602,-0.851698,1.316426
1532,276.005188,55.481804,-59.815366,-0.335943,-0.989151,1.052506
1533,253.788052,72.938125,-43.030442,-0.482551,-1.112810,0.813367
1534,224.002441,84.962234,-16.906996,-0.563241,-1.122087,0.559091
1535,186.282139,83.436332,11.841001,-0.526864,-0.985977,0.666026
1536,147.096971,70.313573,38.574807,-0.441169,-0.818860,1.413107
1537,130.434119,60.181582,60.120546,-0.352667,-0.723522,1.999969
1538,154.116121,62.195773,73.060197,-0.228641,-0.765515,1.999969
1539,195.925841,79.285878,80.384527,-0.141726,-0.877943,1.999969
1540,211.306935,93.080034,87.769894,0.317632,-0.979019,1.989166
1541,221.377890,109.925994,84.962234,0.812757,-0.901991,1.477317
1542,202.456703,100.221256,72.693980,0.939956,-0.924208,1.230732
1543,189.456016,83.558404,58.838788,0.941176,-0.904921,1.118669
1544,172.243839,63.477531,44.312200,0.861463,-0.891859,1.244404
1545,153.627832,50.293736,29.602502,0.714244,-0.984878,1.372335
1546,151.796750,46.204318,10.193027,0.581552,-1.152361,1.333639
1547,143.312734,50.843061,-9.521630,0.491585,-1.340475,1.130266
1548,126.344701,59.388113,-31.006332,0.542367,-1.573144,0.979507
1549,107.972839,77.698940,-51.880674,0.541268,-1.810208,0.836439
1550,64.454108,73.243305,-59.082933,0.149538,-2.000031,-0.898451
1551,-9.460594,-5.127031,-30.701152,0.113893,-2.000031,-0.738170
1552,-61.036088,-68.238346,4.211490,0.397589,-2.000031,-1.160662
1553,-121.095598,-125.062943,20.508125,1.006607,-1.923247,-0.964614
1554,-37.903410,-67.689021,-24.902724,0.633066,0.160403,1.121477
1555,-100.709545,-7.873655,-32.349126,-0.484993,1.143084,1.594018
1556,-175.722896,-59.082933,-4.577707,-0.969253,0.550179,0.633188
1557,-260.013733,-102.479591,20.386053,-0.872694,-0.464607,0.249149
1558,-234.317540,-94.972152,38.391699,-0.522835,-0.476326,0.584237
1559,-252.750439,-148.073548,90.638590,-0.776013,0.351568,1.999969
1560,-359.990845,-200.198367,51.392386,1.999969,-0.780163,1.999969
1561,48.767834,-28.503853,6.836042,0.706188,-0.637095,1.552270
1562,108.094911,34.851606,-57.679103,-0.665293,0.483162,1.334615
1563,-136.171511,-49.256123,41.565576,-0.417731,-0.100710,0.696910
1564,-62.806134,-26.672770,22.156100,0.562631,-0.102296,1.798001
1565,18.860151,3.479057,1.647974,-0.012085,0.156008,0.754040
1566,-64.515145,-10.376135,12.390326,-0.123415,0.051392,1.008560
1567,-31.189441,-11.596857,5.676356,-0.017578,-0.009277,1.064469
1568,-24.170291,-13.550011,1.709010,-0.011353,0.078370,0.895521
1569,-46.631571,-16.479744,3.662165,0.016358,-0.004273,0.980362
1570,-38.391699,-16.296635,0.732433,-0.057374,-0.027710,1.025162
1571,-35.584039,-21.667811,-1.037613,-0.022095,-0.011475,1.002579
1572,-31.616693,-23.132677,-3.479057,0.035157,0.003418,1.012711
1573,-36.926833,-21.606775,-4.699779,0.043580,-0.062867,1.074846
1574,-25.635157,-19.165332,-4.577707,0.079591,-0.069093,1.101457
1575,-18.188754,-14.831769,-4.150454,0.057862,-0.032593,1.052384
1576,-21.606775,-11.169604,-3.112840,0.090700,-0.057740,1.077165
1577,-15.930419,-6.347753,-1.953155,0.065187,-0.064698,1.064958
1578,-14.892805,-3.356985,-0.427253,0.047730,-0.038087,1.058122
1579,-14.526589,-1.953155,0.793469,0.029175,-0.048219,1.029435
1580,-11.413748,-1.709010,0.976577,0.046509,-0.052247,1.024430
1581,-11.108568,-0.915541,0.671397,0.014405,-0.033082,0.988174
1582,-13.611048,-2.197299,0.183108,0.014771,-0.030396,0.979263
1583,-15.197986,-2.746624,-0.427253,0.043091,-0.053223,1.013199
1584,-15.930419,-1.892119,-0.427253,0.042359,-0.078859,1.049088
1585,-10.620279,-0.427253,-0.183108,0.046021,-0.065919,1.019547
1586,-10.742351,0.427253,0.183108,0.036500,-0.064210,1.012345
1587,-10.009918,0.671397,0.244144,0.025879,-0.078614,1.020401
1588,-6.164645,0.122072,0.061036,0.029175,-0.071656,1.019425
1589,-5.737392,-0.549325,-0.549325,0.028443,-0.072755,1.007095
1590,-2.990768,-0.915541,-0.976577,0.032959,-0.069947,1.005386
1591,-2.807660,-0.793469,-0.915541,0.036133,-0.059693,0.988174
1592,-2.685588,-0.854505,-0.671397,0.020996,-0.042481,0.981949
1593,-5.981537,-1.281758,-0.854505,0.030152,-0.062745,0.995743
1594,-5.065995,-1.037613,-0.671397,0.036378,-0.068727,1.003189
1595,-4.821851,-0.549325,-0.122072,0.040040,-0.067994,1.008682
1596,-4.760815,-0.061036,0.000000,0.044434,-0.076417,1.011856
1597,-2.685588,0.244144,0.061036,0.035767,-0.069825,0.993912
1598,-3.234913,0.183108,0.061036,0.028931,-0.066529,0.998795
1599,-2.624552,-0.061036,-0.122072,0.030274,-0.070680,1.005631
1600,-1.709010,-0.427253,-0.366217,0.031739,-0.068849,1.006607
1601,-1.159686,-0.671397,-0.610361,0.025025,-0.061280,0.992447
1602,-1.647974,-1.464866,-0.793469,0.025757,-0.055299,0.997330
1603,-3.051804,-1.647974,-0.976577,0.035767,-0.061402,1.001968
1604,-4.577707,-1.159686,-0.671397,0.040772,-0.081056,1.019913
1605,-1.770047,-0.305180,-0.244144,0.042115,-0.066896,1.017838
1606,-2.319371,0.305180,0.000000,0.043580,-0.071778,1.004654
1607,-2.990768,1.342794,0.366217,0.056275,-0.080934,1.035294
1608,0.854505,2.868696,1.220722,0.052369,-0.087648,1.038590
1609,2.014191,3.784237,1.586938,0.032349,-0.080934,1.021012
1610,4.028382,3.234913,1.464866,0.014527,-0.064576,1.015885
1611,4.211490,2.319371,0.488289,0.031739,-0.071901,1.026993
1612,6.713970,1.709010,-0.427253,0.014771,-0.070802,0.999161
1613,6.469825,0.549325,-1.220722,0.025147,-0.096559,1.026627
1614,13.061723,0.427253,-0.976577,0.020020,-0.071168,0.960098
1615,14.099336,0.244144,-1.220722,0.015747,0.025391,0.887343
1616,-4.394598,-1.525902,-0.915541,0.039185,-0.048341,0.966445
1617,1.831083,-0.183108,-1.098650,0.045655,-0.072145,1.012222
1618,0.671397,0.976577,-0.305180,0.059937,-0.056397,1.025772
1619,0.793469,2.380407,0.122072,0.049805,-0.084718,1.029191
1620,4.577707,3.601129,0.549325,0.050050,-0.076051,1.029068
1621,5.127031,4.943923,0.915541,0.041016,-0.070192,1.024308
1622,7.019150,5.798428,0.915541,0.045289,-0.070192,1.023575
1623,10.193027,6.591897,1.159686,0.029175,-0.038575,0.981582
1624,7.141222,6.469825,0.976577,0.023438,-0.027832,0.965591
1625,1.403830,6.042573,0.976577,0.038209,-0.097414,1.052506
1626,10.498207,7.629511,1.525902,0.050904,-0.098268,1.067887
1627,15.197986,9.155413,1.647974,0.022950,-0.065553,1.024552
1628,15.869383,9.399557,1.220722,0.007446,-0.056153,1.005875
1629,18.127718,8.300908,0.671397,0.009766,-0.025147,0.977066
1630,14.953841,7.019150,0.183108,0.027100,-0.029541,0.989395
1631,14.160372,7.263294,0.427253,0.031495,-0.054078,1.025650
1632,17.029068,8.178836,0.671397,0.025269,-0.043580,1.021744
1633,18.554971,8.300908,0.793469,0.019043,-0.026734,1.019547
1634,19.043259,8.606088,0.976577,0.023926,-0.037354,1.021744
1635,20.752270,9.399557,1.220722,0.012696,-0.033082,0.993912
1636,20.813306,9.704738,1.220722,0.007080,-0.000732,0.961563
1637,16.906996,8.850233,1.342794,-0.003662,0.007202,0.952041
1638,12.878614,6.836042,1.098650,-0.034180,0.014282,0.880629
1639,8.056764,2.990768,1.037613,-0.058839,0.063966,0.885878
1640,-3.601129,-1.647974,0.671397,-0.005859,0.047608,0.916640
1641,-10.498207,-3.112840,0.366217,0.007691,-0.035035,1.001114
1642,-5.920500,-2.258335,0.244144,0.016480,-0.051270,1.063249
1643,-0.366217,-0.976577,0.366217,0.024781,-0.034546,1.029801
1644,0.244144,0.305180,0.671397,0.020386,-0.030152,1.025284
1645,2.685588,1.037613,0.671397,0.011597,-0.028565,1.025772
1646,3.662165,1.342794,0.793469,-0.000244,-0.019287,1.004532
1647,3.723201,0.854505,0.732433,-0.012573,-0.016236,0.985245
1648,3.540093,-0.732433,0.427253,-0.021241,-0.003418,0.954849
1649,1.281758,-3.479057,0.122072,-0.035523,0.010010,0.944961
1650,-1.342794,-7.080186,-0.549325,-0.037720,0.025879,0.901747
1651,-8.239872,-10.437171,-0.915541,0.026123,-0.002075,0.974746
1652,-10.254063,-8.850233,-0.305180,0.061158,-0.057496,1.067887
1653,-3.723201,-5.065995,0.488289,0.042115,-0.057130,1.055558
1654,0.610361,-2.380407,1.220722,0.047120,-0.043946,1.051652
1655,4.760815,-0.488289,0.732433,0.014527,-0.025635,1.011124
1656,5.493248,-0.549325,-0.183108,0.014282,-0.007568,0.998672
1657,3.845274,-0.549325,-0.427253,0.022583,-0.002075,1.006607
1658,3.540093,0.488289,-0.305180,0.018433,0.004395,0.987564
1659,0.305180,1.037613,0.000000,-0.002197,0.007324,0.965347
1660,-2.563516,-0.183108,-0.183108,-0.003540,-0.007446,0.982193
1661,-3.601129,-0.671397,-0.183108,0.027710,-0.033082,1.025284
1662,-0.122072,0.488289,0.000000,0.011719,-0.038087,1.014420
1663,2.014191,0.183108,0.244144,-0.014649,-0.013184,0.983047
1664,0.427253,-0.732433,0.305180,0.029419,-0.019287,1.006363
1665,1.525902,0.122072,0.122072,0.007446,-0.032227,1.033463
1666,5.310140,-0.122072,-0.488289,0.008301,-0.007324,0.984268
1667,2.075227,-1.403830,-1.098650,0.010742,-0.024781,1.024918
1668,5.615320,-1.281758,-1.342794,0.024292,-0.035889,1.052995
1669,10.498207,0.183108,-1.220722,0.025391,0.001221,0.987564
1670,6.713970,0.427253,-1.098650,0.011109,0.031128,0.932021
1671,1.831083,-1.525902,-1.586938,-0.022339,0.049683,0.891615
1672,-7.812619,-3.723201,-1.647974,0.040528,0.026978,0.934463
1673,-12.207218,-1.403830,-1.037613,0.055543,-0.029053,1.009537
1674,-9.643702,1.342794,-0.183108,0.032105,-0.039185,1.066789
1675,-6.652934,3.173877,0.305180,0.025147,-0.045289,1.041398
1676,-1.525902,3.295949,0.305180,-0.001221,-0.027588,1.018326
1677,-0.549325,2.014191,0.000000,-0.012940,-0.026978,1.005264
1678,1.770047,0.305180,-0.915541,0.001953,-0.011109,0.996475
1679,-0.061036,-0.244144,-0.854505,0.016480,-0.030640,1.027237
1680,4.333562,0.671397,-0.915541,0.003418,0.005737,0.970474
1681,-1.342794,-0.793469,-0.793469,0.000732,0.004150,0.973159
1682,-2.868696,-2.319371,-1.220722,0.002808,-0.033448,1.021012
1683,2.014191,-2.563516,-1.403830,0.009766,-0.024414,1.021134
1684,0.671397,-2.929732,-1.098650,0.022339,-0.056153,1.072892
1685,8.667124,-1.586938,-0.976577,0.019409,-0.040040,1.048112
1686,11.108568,-1.159686,-0.793469,0.018677,-0.009888,1.005264
1687,10.009918,-0.366217,-0.244144,0.023194,-0.013794,1.012345
1688,11.535821,0.671397,-0.183108,0.013306,0.003052,0.988418
1689,7.751583,-0.305180,0.061036,0.003052,-0.014649,1.006241
1690,10.193027,-0.366217,0.000000,0.004395,-0.014282,0.999283
1691,11.474784,-1.037613,-0.244144,-0.009766,0.001221,0.964126
1692,7.995727,-2.624552,-0.122072,0.010864,0.012451,0.972427
1693,8.178836,-2.929732,-0.610361,-0.005005,0.038087,0.941421
1694,2.136263,-4.699779,-0.549325,0.000977,0.044190,0.917983
1695,-3.906310,-5.065995,-0.610361,0.034302,0.020020,0.978531
1696,-6.164645,-4.089418,-0.244144,0.031373,-0.017823,1.041642
1697,-1.342794,-2.136263,-0.244144,0.031128,-0.010010,1.015030
1698,-2.014191,-1.709010,-0.122072,0.029541,-0.014405,1.017716
1699,0.915541,-0.610361,-0.122072,0.022705,-0.000244,1.004288
1700,0.244144,-0.915541,-0.366217,0.007813,0.007935,0.982315
1701,-0.854505,-2.014191,-0.732433,0.019898,-0.004028,0.994522
1702,0.061036,-1.709010,-0.854505,0.013428,-0.011353,1.000992
1703,0.244144,-1.647974,-0.366217,0.030518,-0.003784,0.999893
1704,0.366217,-0.854505,0.000000,0.024292,0.001953,0.998428
1705,-0.183108,-0.915541,0.000000,0.018433,0.004639,0.990372
1706,-0.366217,-0.915541,-0.244144,0.021973,0.007813,0.990738
1707,-1.586938,-0.549325,-0.305180,0.020752,0.003418,1.008072
1708,-1.403830,-0.061036,-0.122072,0.025025,-0.014771,1.023087
1709,1.342794,1.159686,-0.122072,0.030030,-0.003784,1.016617
1710,0.854505,1.831083,0.000000,0.021607,0.000488,1.006363
1711,2.014191,2.136263,-0.122072,0.010620,0.004517,0.976211
1712,0.305180,1.037613,-0.305180,0.006226,-0.003906,1.002335
1713,1.709010,0.732433,-0.549325,0.023194,-0.008911,1.012467
1714,3.234913,0.854505,-0.549325,0.014038,-0.002075,1.011368
1715,3.112840,0.488289,-0.549325,0.015869,-0.008301,1.012345
1716,5.493248,0.976577,-0.549325,0.011231,0.017700,0.945937
1717,2.258335,0.000000,-0.610361,-0.003662,0.051514,0.947158
1718,-5.127031,-1.159686,-0.366217,0.034913,0.009644,0.989883
1719,-3.906310,-0.366217,-0.427253,0.014771,-0.008911,1.002090
1720,-1.953155,-0.488289,-0.427253,0.026246,0.000977,0.999893
1721,-3.112840,-0.549325,-0.671397,0.017945,-0.010742,1.008316
1722,-0.976577,-0.305180,-0.854505,0.020752,0.002319,0.995743
1723,-1.770047,-0.061036,-0.854505,0.008789,-0.000610,0.989273
1724,-1.892119,-0.732433,-1.037613,0.016236,-0.001831,0.990372
1725,-0.732433,-0.976577,-1.220722,0.021118,-0.008423,1.011246
1726,0.183108,-0.671397,-1.098650,0.016602,-0.001221,0.993668
1727,-0.488289,-0.671397,-0.732433,0.020996,0.004517,0.994644
1728,-0.732433,-0.427253,-0.671397,0.015869,0.008179,0.993179
1729,-1.770047,-0.671397,-0.610361,0.023316,-0.005371,1.005753
1730,-0.183108,-0.488289,-0.732433,0.023438,-0.007202,1.015152
1731,4.333562,0.000000,-1.586938,0.014527,0.003540,0.990616
1732,-2.136263,-1.464866,0.000000,0.027222,-0.003662,0.999405
1733,3.295949,-0.183108,0.000000,0.016846,-0.013062,1.042130
1734,5.554284,0.366217,-0.122072,0.021241,0.021241,0.969619
1735,0.366217,-0.122072,0.183108,0.023072,-0.010132,0.998062
1736,5.493248,0.427253,0.427253,0.020142,-0.003052,1.008804
1737,4.028382,0.793469,0.427253,0.021729,0.004517,1.010513
1738,2.807660,1.525902,-0.244144,0.008545,-0.010986,1.017838
1739,5.615320,0.671397,0.427253,0.016236,-0.001221,0.985977
1740,5.920500,0.671397,-0.183108,0.021241,0.008667,1.002457
1741,5.676356,0.854505,-0.488289,0.014771,0.006226,0.988663
1742,6.347753,0.671397,-0.915541,0.019776,0.005249,0.993790
1743,6.836042,1.342794,-0.915541,0.027344,0.015015,1.011856
1744,6.042573,1.586938,-0.976577,0.014405,0.023072,0.960464
1745,5.798428,1.709010,-1.892119,0.009644,0.024537,0.986954
1746,4.089418,1.220722,-2.502480,0.010864,0.016602,0.989029
1747,3.234913,0.244144,-1.098650,0.010620,0.005493,1.010636
1748,3.173877,-0.244144,-0.122072,0.018433,0.015381,0.991226
1749,-0.366217,-0.610361,0.122072,0.014527,0.016846,0.994034
1750,-0.427253,-0.671397,0.671397,0.014038,0.008179,0.988540
1751,0.915541,-0.488289,0.671397,0.019287,0.025635,0.973404
1752,-0.671397,-0.549325,0.244144,0.015747,0.024170,0.987442
1753,-2.136263,-0.732433,0.122072,0.014160,0.010376,1.001114
1754,-0.122072,-0.549325,0.183108,0.007080,0.005127,1.012589
1755,1.770047,-0.427253,0.366217,0.016602,0.014038,0.994034
1756,1.586938,-0.610361,0.976577,0.004028,0.008179,0.996963
1757,0.610361,-1.403830,1.586938,0.017945,0.017456,0.989883
1758,0.183108,-1.403830,1.037613,0.016480,0.020020,1.011734
1759,0.366217,-1.647974,1.159686,0.015991,0.010132,0.996475
1760,1.098650,-1.586938,1.586938,0.024170,0.025879,0.999283
1761,-0.854505,-1.342794,1.586938,0.015381,0.023560,0.994522
1762,-0.305180,-1.464866,2.075227,0.020874,0.020264,0.999039
1763,-1.281758,-1.037613,2.075227,0.016724,0.011475,1.004898
1764,0.732433,-0.671397,2.563516,0.036866,0.008057,1.021256
1765,2.136263,0.183108,2.746624,-0.002686,0.011109,0.993545
1766,4.516670,-0.671397,4.455634,-0.006348,-0.004517,1.005509
1767,9.765774,-0.427253,7.263294,0.034668,0.035157,0.989029
1768,7.141222,0.305180,4.028382,0.059571,0.040894,0.993301
1769,5.493248,1.342794,0.793469,0.009155,0.020020,0.997940
1770,5.127031,0.671397,0.305180,0.022461,0.022827,0.979019
1771,4.760815,1.098650,-0.366217,0.029419,0.035157,0.978653
1772,1.220722,1.159686,-1.098650,0.007568,0.029664,0.989273
1773,0.183108,-0.732433,-0.305180,-0.007446,0.014405,1.001846
1774,1.281758,-1.342794,0.183108,0.035889,0.028443,0.988907
1775,0.610361,-0.305180,0.549325,0.027100,0.026246,0.984878
1776,1.098650,0.305180,0.671397,0.012207,0.028809,0.990738
1777,0.000000,0.427253,0.671397,0.018555,0.016968,1.004166
1778,1.342794,0.488289,0.427253,0.024781,0.023438,0.992325
1779,0.976577,0.488289,0.122072,0.011231,0.027222,0.993423
1780,0.671397,0.183108,0.000000,0.016602,0.024414,0.991226
1781,1.464866,0.061036,-0.183108,0.009644,0.019165,0.993423
1782,1.464866,-0.366217,-0.244144,0.019287,0.028321,0.989273
1783,-0.305180,-0.488289,-0.305180,0.019532,0.026612,1.000381
1784,-0.122072,-0.488289,-0.366217,0.024170,0.021241,1.000137
1785,0.488289,-0.122072,-0.610361,0.015259,0.017578,0.993057
1786,0.976577,-0.366217,-0.732433,0.012207,0.035035,0.980484
1787,0.610361,-0.488289,-0.671397,0.005249,0.025513,0.981216
1788,-1.159686,-1.464866,0.427253,0.027588,0.031250,0.986099
1789,-3.173877,-0.793469,1.342794,0.015259,0.012696,1.011612
1790,-0.549325,-0.244144,1.037613,0.018189,0.017456,0.992813
1791,-0.610361,-0.061036,1.037613,0.025025,0.028443,0.996231
1792,-1.525902,0.366217,0.366217,0.021607,0.016480,0.999527
1793,-0.854505,0.610361,-0.366217,0.029297,0.025513,0.991104
1794,-0.610361,0.915541,-0.976577,0.009400,0.021973,0.990860
1795,1.037613,0.671397,-1.281758,0.004639,0.010376,1.006607
1796,2.441444,0.000000,-0.732433,0.019043,0.032349,0.996353
1797,-0.061036,-0.671397,0.854505,0.019776,0.017212,1.001602
1798,0.305180,0.000000,1.464866,0.025757,0.018677,0.996597
1799,-0.183108,0.488289,1.647974,0.018555,0.027955,0.988052
1800,-0.732433,0.610361,1.464866,0.020264,0.028565,0.994644
1801,-1.037613,0.671397,0.732433,0.022461,0.032349,0.984024
1802,-2.319371,1.037613,-0.122072,0.019654,0.018311,0.997208
1803,-2.014191,1.342794,-0.793469,0.015015,0.022217,1.001846
1804,-2.685588,1.525902,-1.342794,0.026978,0.022095,1.001724
1805,-1.220722,2.380407,-1.892119,0.015503,0.020874,0.999527
1806,0.000000,2.136263,-1.647974,0.003418,0.019409,0.994278
1807,1.892119,1.220722,-0.976577,-0.002441,0.016846,1.005509
1808,3.356985,0.549325,-0.366217,0.020874,0.026490,1.005631
1809,2.868696,0.671397,-0.305180,0.007324,0.041871,0.964736
1810,-0.610361,0.183108,-0.549325,0.022095,0.043580,0.967300
1811,-3.906310,0.854505,-1.892119,0.027344,0.047974,0.967300
1812,-5.798428,1.647974,-4.089418,-0.005615,0.016480,0.968521
1813,-4.943923,0.976577,-2.563516,0.041871,0.017945,1.002457
1814,-5.188067,2.319371,-3.356985,0.024170,0.023682,1.016129
1815,-4.882887,2.197299,-2.746624,-0.003906,0.013672,1.005509
1816,-5.127031,0.976577,-1.159686,0.013794,0.004273,1.010513
1817,-0.488289,1.342794,-3.173877,0.023804,0.020508,1.003677
1818,-0.244144,1.098650,-4.211490,0.000366,0.020630,0.996597
1819,-1.709010,0.488289,-3.723201,0.019287,0.015869,0.996353
1820,-2.319371,1.281758,-4.211490,0.032349,0.045777,0.995377
1821,-2.807660,1.831083,-4.882887,0.007568,0.020996,0.994278
1822,-4.516670,1.098650,-4.577707,0.003662,0.016358,0.989029
1823,-5.188067,0.732433,-3.356985,0.007324,0.018555,0.994644
1824,-3.418021,0.732433,-3.845274,0.014405,0.021851,0.979263
