Packet number,Gyroscope X (deg/s),Gyroscope Y (deg/s),Gyroscope Z (deg/s),Accelerometer X (g),Accelerometer Y (g),Accelerometer Z (g)
0,-0.48828900000000003,-0.48828900000000003,0.0,-0.009522,0.006592,1.004532
2,-0.30518,-0.48828900000000003,-0.183108,-0.0035399999999999997,0.005982,0.9942780000000001
4,-0.427253,-0.549325,-0.183108,0.001221,0.008179,0.9945219999999999
6,-0.671397,-0.366217,0.0,-0.001709,0.002075,1.00734
8,-0.732433,-0.244144,0.0,-0.002686,0.0070799999999999995,1.00441
10,-0.30518,-0.061036,-0.122072,-0.006104,0.008545,1.0011139999999998
12,0.061036,0.061036,-0.122072,-0.011963,0.0063479999999999995,0.9950100000000001
14,-0.122072,-0.366217,-0.183108,-0.007568000000000001,0.005615,0.9991610000000001
16,-0.732433,-0.549325,-0.183108,-0.0043950000000000005,0.006958,1.001846
18,-0.854505,-0.48828900000000003,-0.122072,-0.000366,0.010864,0.997086
20,-0.732433,-0.427253,0.0,-0.005493,0.005371,0.996109
22,-0.671397,-0.30518,0.0,-0.003906,0.000244,1.002579
24,-0.6103609999999999,-0.061036,-0.122072,-0.008545,0.000122,0.9987950000000001
26,-0.244144,-0.183108,0.0,-0.00293,0.004639,1.003555
28,-0.427253,-0.427253,-0.122072,-0.001343,0.0035399999999999997,0.9959870000000001
30,-0.549325,-0.427253,-0.183108,-0.0070799999999999995,0.0031739999999999997,0.9983059999999999
32,-0.122072,-0.427253,-0.122072,-0.0043950000000000005,0.008911,0.9909819999999999
34,-0.30518,-0.30518,0.0,-0.002564,0.005982,1.000381
36,-0.30518,-0.30518,0.0,-0.005737,0.002441,0.996353
38,-0.244144,-0.30518,0.0,-0.000732,0.006836,1.0031889999999999
40,-0.061036,-0.244144,-0.122072,-0.007812999999999999,0.0058590000000000005,0.996109
42,-0.061036,-0.244144,0.0,-0.00293,0.003662,1.006729
44,0.244144,-0.30518,0.0,-0.008179,0.013184,0.9979399999999999
46,0.30518,-0.122072,0.0,-0.009276999999999999,0.007812999999999999,0.9942780000000001
48,0.244144,-0.183108,0.0,-0.010254000000000001,0.007691,0.998917
50,-0.061036,-0.244144,0.0,-0.00415,0.006104,0.9942780000000001
52,-0.061036,-0.30518,0.0,-0.006714,0.005371,0.9873200000000001
54,0.6103609999999999,-0.6103609999999999,0.061036,0.003906,0.004639,1.004532
56,1.586938,-0.244144,0.122072,-0.001831,-0.003662,1.01088
58,3.356985,-0.427253,0.061036,0.011109,0.010376,1.013321
60,5.676356,0.122072,0.122072,0.013793999999999999,0.019043,1.0031889999999999
62,5.0049589999999995,0.244144,0.244144,-0.0021969999999999997,-0.000244,1.01442
64,4.8218510000000006,-0.30518,0.0,-0.003418,0.018311,0.996841
66,4.394598,-0.9155409999999999,0.061036,-0.000732,0.011719,1.004166
68,4.882887,-0.671397,0.122072,-0.006958,0.018311,0.995865
70,4.882887,-0.976577,0.0,-0.0035399999999999997,0.025513,0.9858549999999999
72,3.6621650000000003,-1.8310830000000002,-0.183108,-0.003418,0.026489999999999996,0.982925
74,2.380407,-1.7700470000000001,-0.366217,-0.007324,0.022216999999999997,1.002701
76,1.342794,-1.525902,-0.122072,0.001221,0.011597,0.998917
78,2.4414439999999997,-0.549325,0.183108,0.001343,0.018799,1.002335
80,2.624552,-0.549325,0.427253,-0.0051270000000000005,0.023681999999999998,0.999649
82,2.624552,-0.671397,0.244144,-0.009155,0.031495,0.985611
84,1.281758,-0.976577,0.122072,0.003052,0.026368,1.007095
86,2.624552,-0.48828900000000003,-0.122072,-0.009276999999999999,0.029786,0.9867090000000001
88,2.380407,0.0,0.244144,-0.00061,0.026612,0.993423
90,2.075227,0.0,0.48828900000000003,-0.0037840000000000005,0.023072,0.9976959999999999
92,1.7700470000000001,-0.854505,0.427253,-0.003418,0.035644999999999996,0.979507
94,1.281758,-1.525902,0.183108,0.004883,0.033936,0.9820709999999999
96,1.037613,-0.793469,0.30518,-0.006104,0.026001,0.9973299999999999
98,1.281758,-2.4414439999999997,0.183108,0.003662,0.040527999999999995,0.9784079999999999
100,-4.5166699999999995,-2.50248,0.48828900000000003,-0.0043950000000000005,0.034302,0.9831690000000001
102,-1.647974,-2.380407,0.732433,0.000977,0.019653999999999998,1.001602
104,-0.30518,-1.281758,0.732433,-0.006226,0.02417,1.0047760000000001
106,-0.427253,-0.9155409999999999,0.671397,0.010498,0.015015,1.0085600000000001
108,0.061036,-0.793469,0.48828900000000003,0.016114,0.038819,1.0057530000000001
110,1.342794,0.0,0.671397,0.007812999999999999,0.039550999999999996,1.0036770000000002
112,0.122072,-0.48828900000000003,0.48828900000000003,-0.006836,0.041138,0.9837799999999999
114,-0.183108,-1.159686,-0.122072,0.005493,0.028687,1.001968
116,0.061036,-1.40383,-0.30518,-0.004639,0.025147,1.005875
118,0.122072,-2.380407,-0.549325,0.005371,0.029053,1.007462
120,1.647974,-2.319371,-0.793469,0.015137000000000001,0.037598,0.9858549999999999
122,1.464866,-0.671397,-0.732433,0.023194,0.036988,0.9980620000000001
124,-0.671397,1.525902,-0.183108,0.014771000000000001,0.038697,0.995132
126,-1.586938,2.624552,-0.244144,0.026489999999999996,0.022583000000000002,1.01149
128,0.061036,4.760815,0.122072,0.005982,0.042359,0.984634
130,-4.089418,4.943923000000001,0.48828900000000003,-0.001343,0.032715,0.9863430000000001
132,-5.0049589999999995,3.967346,0.48828900000000003,-0.009766,0.026368,0.991958
134,-2.685588,2.4414439999999997,0.0,-0.012451,0.027832,0.995743
136,-1.342794,1.037613,-0.244144,-0.011109,0.025757,0.991592
138,-1.40383,-0.061036,-0.427253,-0.013062,0.040284,0.977676
140,-3.051804,-0.854505,-0.366217,-0.008667,0.041382,0.9749899999999999
142,-7.9957270000000005,-1.586938,-0.244144,-0.00061,0.038331,0.993301
144,-8.361944,-1.525902,-0.183108,0.003662,0.012329000000000001,1.0000149999999999
146,-6.591897,-1.8921189999999999,-0.244144,0.000732,0.018433,1.001236
148,-5.981537,-2.80766,-0.30518,-0.0043950000000000005,0.026368,0.9741360000000001
150,-12.146181,-5.249104,-0.244144,0.004639,0.023194,0.9828030000000001
152,-11.657893,-3.723201,0.244144,0.016846,0.006714,1.017472
154,-10.803388,-2.380407,0.671397,-0.000366,0.010864,0.997574
156,-9.582666,-2.2583349999999998,0.732433,0.013306,-0.007324,1.01796
158,-8.239872,-1.159686,1.342794,0.010498,-0.001099,0.98146
160,-11.291675999999999,-2.80766,2.075227,-0.0094,0.036988,0.926162
162,-18.24979,-6.71397,1.70901,-0.015869,0.007935,0.9282370000000001
164,-25.696193,-6.897078,2.197299,0.044677999999999995,-0.026489999999999996,1.068498
166,-19.836728,-2.014191,2.685588,0.001221,-0.031617,1.058366
168,-15.13695,-1.40383,2.014191,-0.001221,0.009276999999999999,0.9994049999999999
170,-22.095064,-1.70901,-1.281758,-0.0037840000000000005,0.037354000000000005,0.972305
172,-33.997101,-3.6621650000000003,-1.953155,-0.057252,0.021729,0.901625
174,-40.894179,-1.464866,0.854505,0.014282,-0.13586600000000001,1.022965
176,-35.584039000000004,-2.136263,-3.540093,0.004761,-0.034424,1.023819
178,-47.241932,-8.972305,-14.0383,0.011840999999999999,-0.006104,0.9824370000000001
180,-53.223468000000004,-6.836042,-5.0049589999999995,0.050660000000000004,-0.09765800000000001,1.021744
182,-51.880674,-5.0049589999999995,-4.943923000000001,0.03772,-0.147097,1.038834
184,-56.94667,-1.281758,-6.042573,0.044923000000000005,-0.068238,0.9630270000000001
186,-67.017624,5.3101400000000005,-4.8218510000000006,-0.027710000000000002,0.065919,0.913344
188,-85.877775,7.2022580000000005,6.042573,-0.0043950000000000005,0.5930270000000001,0.7293810000000001
190,-161.19630700000002,0.427253,12.756542,0.163333,0.357794,1.013443
192,-335.332265,-2.868696,0.671397,-0.088258,0.37085500000000005,0.819593
194,-512.825208,-16.052491,-7.263294,-0.249516,-0.007568000000000001,1.25832
196,-629.892424,-6.408789,32.776379,-0.070314,-0.679454,1.269306
198,-333.37911,-27.161059,41.199359,-1.113542,-1.075456,1.9999689999999999
200,167.97131299999998,20.996414,-23.071641,-0.026856,1.01149,1.451316
202,-55.054551000000004,-52.67414399999999,47.42504,0.229252,0.44434300000000004,0.6419779999999999
204,62.928206,-25.26894,-13.488975,0.36524,0.580087,0.669932
206,68.36041800000001,-13.916228,-41.321431,0.107424,0.370489,1.073625
208,100.099184,-30.640116,-45.349813,-0.157351,0.320195,0.930312
210,140.99336200000002,-31.128404999999997,-36.804761,-0.274418,0.26099,0.979507
212,166.99473600000002,-11.413748,-23.743038000000002,-0.32398000000000005,0.152712,1.276265
214,203.677424,6.347753,-8.789197,-0.291508,0.034058,1.144305
216,223.20897200000002,9.704738,4.760815,-0.165774,-0.049928,0.9681540000000001
218,229.49568900000003,11.047532,7.385367,-0.033326,-0.042359,1.191791
220,240.48218500000002,22.400244,1.09865,-0.003296,-0.12146199999999999,1.290303
222,236.942092,32.227053999999995,-3.723201,-0.026612,-0.29639099999999996,1.068376
224,206.607156,49.622339000000004,-5.249104,-0.025513,-0.330205,1.28249
226,195.86480500000002,57.49599499999999,-6.469825,0.070069,-0.287968,1.800198
228,210.26932200000002,51.392386,-15.442129999999999,0.22717600000000002,-0.303593,1.85391
230,216.372931,44.678416,-29.724575,0.13135,-0.39710100000000004,1.976837
232,238.10177799999997,40.833143,-30.762188000000002,-0.08520599999999999,-0.530892,1.975006
234,241.21461800000003,37.232013,-21.667811,-0.088136,-0.596933,1.535668
236,218.997482,44.129090999999995,-20.874342000000002,0.018311,-0.663096,1.46157
238,195.071336,54.261081999999995,-27.038987,0.082887,-0.820325,1.101457
240,143.129625,64.759289,-36.438544,0.20825500000000002,-1.1613950000000002,0.870375
242,79.041733,90.943771,-46.204318,0.435431,-1.904814,1.425437
244,96.31494599999999,97.596704,-42.1149,0.401251,-2.0000310000000003,0.183597
246,-7.324331,1.8310830000000002,3.540093,-0.027710000000000002,-2.0000310000000003,-2.0000310000000003
248,-159.060044,-160.341802,42.725260999999996,0.70045,-1.294331,0.542367
250,-78.431373,-60.914015,10.925460000000001,-0.229618,0.411017,1.585107
252,-171.633478,-69.88632,26.062409,-0.124758,0.541146,0.077516
254,-242.74052000000003,-64.759289,35.950256,0.08276499999999999,-0.199466,1.895903
256,-157.839323,-29.541465999999996,17.395285,0.7370720000000001,-0.12365899999999999,1.9999689999999999
258,-114.13748400000001,5.981537,2.4414439999999997,-0.526864,-0.124392,1.598657
260,-58.838788,-55.420768,39.30724,-0.335088,-0.296635,1.315572
262,-40.039673,-36.438544,16.174563,0.8681770000000001,0.093019,1.490501
264,-38.025483,-23.010604999999998,10.925460000000001,-0.45886899999999997,0.014893,0.9143209999999999
266,-26.367590000000003,-31.494621000000002,4.577707,0.252567,0.083009,1.171771
268,-26.67277,-24.96376,4.21149,-0.004883,0.04358,1.038224
270,-22.949569,-20.935378,0.976577,0.060548000000000005,0.04358,1.141009
272,-9.887846000000001,-11.718929,0.549325,0.060548000000000005,0.069215,1.04445
274,-14.831769,-7.01915,1.525902,0.036133,0.018433,0.968032
276,-9.704738,-6.469825,0.976577,0.009522,0.039429,1.019059
278,-5.432212,-6.775005999999999,0.48828900000000003,-0.006714,0.015259,1.018326
280,-7.2022580000000005,-7.141222,0.366217,0.015747,0.032593000000000004,0.9935450000000001
282,-5.188067,-6.225681,1.09865,0.030762,0.042969,0.906874
284,-17.273213000000002,-5.554284,1.647974,0.041260000000000005,0.022705,1.005264
286,-14.648660999999999,-3.784237,0.854505,0.023438,0.024048,1.020035
288,-10.315099,-4.8218510000000006,1.40383,0.030883999999999998,0.020752,1.039567
290,-5.61532,-4.333562000000001,0.549325,0.024659,0.001099,1.025284
292,-5.0049589999999995,-4.089418,0.0,0.027222000000000003,0.066896,1.0040440000000002
294,-8.300908,-5.249104,0.122072,0.014159999999999999,0.049683,0.991226
296,-8.42298,-5.127031,-0.549325,0.039429,0.028076999999999998,0.9741360000000001
298,-10.559242999999999,-3.173877,-0.30518,0.046754000000000004,0.011597,0.985245
300,-11.657893,-3.051804,0.0,0.042847,0.0070799999999999995,0.985367
302,-14.221407999999998,-2.746624,0.061036,0.052003,0.024048,0.9748680000000001
304,-17.517357,-1.647974,0.183108,0.035035000000000004,-0.000732,0.993179
306,-17.395285,-1.647974,0.30518,0.042481,-0.018921,1.001236
308,-18.066682,-2.929732,0.793469,0.025513,-0.012329000000000001,0.976211
310,-21.118485999999997,-5.065995,1.159686,0.052979,0.001099,0.9594870000000001
312,-24.536507,-4.882887,1.525902,0.053101,-0.016114,0.9710840000000001
314,-33.508812,-4.333562000000001,3.479057,0.059815,-0.031983,0.9935450000000001
316,-32.959487,1.70901,4.089418,-0.021851,-0.042847,1.0207680000000001
318,-31.189441,0.183108,2.685588,0.083497,0.083375,0.913222
320,-61.829556999999994,-1.281758,-1.281758,0.067628,-0.096803,0.98085
322,-52.67414399999999,1.953155,-11.902037,0.023194,-0.058106,0.9391010000000001
324,-41.565576,-1.525902,-21.301595000000002,-0.036744,-0.34973699999999996,0.949111
326,-57.06874200000001,2.624552,-13.244831,0.273198,-0.188846,1.084123
328,-64.08789200000001,17.029068,8.239872,0.112673,0.055542999999999995,1.039933
330,-130.861372,31.860838,-6.164645,0.036011,0.340459,0.827405
332,-233.890288,-16.235599,-9.643702000000001,-0.317998,0.306645,0.8213020000000001
334,-502.388037,-98.08499300000001,-3.6011290000000002,-0.877577,0.048707,1.260151
336,-734.019989,-202.700847,28.0766,0.333623,-0.19104300000000002,1.092058
338,-876.3561460000001,-125.307088,198.855573,-1.162249,-0.782971,1.9999689999999999
340,209.536889,57.801175,-49.92752,-0.8403450000000001,0.42090500000000003,1.9999689999999999
342,-135.683223,-3.540093,31.067369,-0.802258,0.705943,1.472923
344,56.641489,-35.339895,47.364004,-0.364874,0.343023,1.550805
346,68.055238,-41.931792,58.716716000000005,-0.11425999999999999,0.501839,1.548363
348,171.633478,-14.770732999999998,35.523003,0.13000699999999998,0.451179,1.201678
350,190.493629,-6.2867169999999994,6.469825,0.301396,0.312627,0.825574
352,204.287785,21.911955,-27.100022999999997,0.174441,0.19372899999999998,0.688975
354,212.71076499999998,35.156786,-32.471199,-0.055665,0.036866,0.800549
356,224.368658,16.662851999999997,-15.808347,-0.051637,0.036866,1.202655
358,260.318914,15.991454999999998,-5.981537,0.092409,0.041749,1.8910200000000001
360,317.265583,31.189441,-12.390326,0.26099,-0.16247799999999998,1.576684
362,324.345769,38.330663,-31.372549,0.421637,-0.47962200000000005,0.303716
364,223.94140499999997,53.589684999999996,-51.026169,0.326421,-0.40271599999999996,0.751965
366,200.13733100000002,57.984283,-62.195772999999996,0.066041,-0.26001399999999997,1.9999689999999999
368,236.881056,76.539254,-54.505226,-0.12732100000000002,-0.633555,1.9999689999999999
370,245.85336099999998,85.755703,-39.30724,0.015137000000000001,-0.7060649999999999,1.9999689999999999
372,257.450217,83.436332,-32.227053999999995,0.273075,-0.843397,1.9999689999999999
374,298.527504,88.746471,-42.664225,0.607187,-0.9038219999999999,1.3824670000000001
376,239.44457200000002,72.755016,-56.763560999999996,0.401862,-0.996719,1.537255
378,229.312581,61.097124,-52.67414399999999,-0.049439,-1.4271459999999998,1.527245
380,187.50286100000002,65.491722,-32.043946000000005,0.170291,-2.0000310000000003,0.723522
382,97.596704,108.40009199999999,-11.596857,0.510262,-2.0000310000000003,-0.42102700000000004
384,-3.784237,35.706111,14.648660999999999,0.070436,-2.0000310000000003,-0.607919
386,-97.901884,-99.732967,62.867169999999994,0.24744000000000002,-1.930449,-1.67068
388,-149.721523,-88.868544,49.988556,-0.148074,-0.12487999999999999,1.895903
390,-147.158007,-84.107729,62.928206,-0.147951,0.743542,0.41992799999999997
392,-246.280613,-68.726635,63.050278000000006,0.8424200000000001,-0.11694500000000001,0.6904399999999999
394,-240.05493199999998,-19.958801,22.827497,1.405783,-0.183474,1.9999689999999999
396,-130.006867,35.461967,-18.005646,-0.424811,0.02356,1.7562520000000001
398,-100.16022,-24.353399,27.832456,-1.076677,-0.662119,1.3237510000000001
400,-59.449149,-78.858625,33.752956,0.888441,0.417121,1.9999689999999999
402,-21.05745,-31.738766,6.71397,-0.363775,0.065187,1.253803
404,-30.334936,-51.819638,6.042573,0.35278899999999996,0.09192,1.3984590000000001
406,-14.770732999999998,-31.677729,1.342794,-0.010864,0.064698,1.063005
408,-21.05745,-28.931106,3.051804,0.100221,0.078248,1.04213
410,-26.550697999999997,-18.24979,1.525902,0.055299,0.065309,1.044816
412,-30.823224,-8.911269,1.40383,0.039673,0.015381,1.033707
414,-28.198672,-7.263294,3.356985,-0.010376,0.0,1.037125
416,-23.132676999999997,-5.981537,1.2207219999999999,0.022095,0.014405000000000001,1.0188139999999999
418,-17.517357,-5.249104,0.061036,0.035889,0.022216999999999997,1.002701
420,-22.827497,-2.4414439999999997,0.427253,0.030518,0.010376,1.010025
422,-21.606775,-0.671397,0.244144,0.025269,-0.0023190000000000003,1.01857
424,-15.564201999999998,0.061036,-0.366217,0.030396,-0.023316,1.0352940000000002
426,-14.465553,0.0,-1.037613,0.031006,-0.009033,1.015396
428,-15.686275,1.40383,-0.9155409999999999,0.023194,-0.002686,0.995132
430,-15.686275,2.990768,0.48828900000000003,0.041505,-0.033569999999999996,1.00209
432,-14.465553,0.9155409999999999,1.342794,0.015137000000000001,-0.028931000000000002,0.987442
434,-11.108568,-0.30518,0.793469,0.030151999999999998,-0.055177,1.036027
436,-5.371176,0.732433,0.48828900000000003,0.025513,-0.037110000000000004,1.00148
438,-6.103609,0.671397,0.671397,0.015625,-0.023681999999999998,0.9869540000000001
440,-10.681315,-0.48828900000000003,0.671397,0.017334,-0.016602000000000002,0.977554
442,-16.723888,-1.70901,0.671397,0.008545,-0.01001,0.9437399999999999
444,-27.527276,-3.356985,1.464866,0.026978,-0.05139199999999999,0.988174
446,-25.635157,-1.342794,2.075227,0.01709,-0.031617,0.968399
448,-28.992141999999998,-2.075227,3.540093,0.021606999999999998,-0.0542,0.9956209999999999
450,-32.654307,-1.09865,5.7984279999999995,0.037110000000000004,-0.082399,0.9826809999999999
452,-34.119172999999996,2.929732,6.042573,-0.068605,-0.064576,1.003555
454,-48.767834,0.30518,3.051804,-0.0043950000000000005,-0.035889,0.981216
456,-57.679103000000005,0.183108,0.9155409999999999,-0.010376,-0.08423,1.014786
458,-52.063783,3.356985,-5.676356,-0.04004,-0.11340499999999999,0.969375
460,-51.392386,3.356985,-18.921187,-0.026246,-0.173587,1.073381
462,-19.226368,0.9155409999999999,-7.629511,0.06347799999999999,-0.221561,1.018082
464,-38.879988,0.0,-5.249104,0.01709,0.02417,0.959731
466,-112.916762,11.23064,-24.109254999999997,0.058595,0.27368600000000004,0.799451
468,-199.404898,-12.32929,-28.259709,-0.362676,0.135256,0.665293
470,-501.228351,-64.393072,-30.395971999999997,-0.333989,0.540291,1.0278479999999999
472,-797.985809,-231.93713300000002,52.73518000000001,0.146242,-0.164431,1.111955
474,-932.509346,-107.057298,283.81780699999996,-0.735485,-0.569955,1.9999689999999999
476,344.97596699999997,47.791257,-3.967346,-0.7121689999999999,0.5454180000000001,1.9999689999999999
478,-87.769894,-19.409476,60.425727,-0.229496,0.6297699999999999,0.625742
480,62.745098,3.418021,29.602502,0.059204999999999994,0.370001,0.735485
482,30.273899,8.178836,9.82681,0.213748,0.615976,0.641245
484,114.01541200000001,-13.855192,-14.465553,0.12695499999999998,0.588022,1.0428629999999999
486,149.843595,-43.762875,-22.46128,-0.020263999999999997,0.408087,1.215106
488,206.607156,-15.13695,-32.166018,-0.118532,0.25085799999999997,1.079484
490,230.838483,4.455634,-23.376822,-0.333623,0.0035399999999999997,0.9708399999999999
492,244.20538599999998,5.432212,-1.464866,-0.3252,-0.072755,1.099626
494,265.262837,16.174563,12.268253999999999,-0.13281500000000002,-0.073365,1.294209
496,283.756771,28.320745000000002,11.291675999999999,0.05712999999999999,-0.152834,1.4533909999999999
498,296.87953,41.260395,-3.723201,0.188479,-0.297124,1.27187
500,273.07545600000003,61.097124,-19.836728,0.28686999999999996,-0.451545,1.146258
502,239.200427,57.557031,-37.415122,0.34070300000000003,-0.431647,1.254292
504,196.963455,43.396658,-53.77279300000001,0.351934,-0.386358,1.9999689999999999
506,242.923629,43.152514000000004,-81.483177,0.23486700000000002,-0.604379,1.9999689999999999
508,240.78736600000002,60.425727,-93.263142,-0.076295,-0.794934,1.9999689999999999
510,257.206073,78.431373,-85.02327,-0.106081,-0.901991,1.831937
512,233.15785499999998,95.765621,-72.51087199999999,0.12341500000000001,-0.9393450000000001,1.524681
514,210.879683,90.63859000000001,-65.247578,0.280034,-1.010147,1.435325
516,191.714351,78.98069699999999,-60.18158199999999,0.173342,-1.40444,1.009415
518,130.495155,86.73228,-49.073014,0.117433,-2.0000310000000003,0.778088
520,87.70885799999999,120.48523700000001,-23.804074,-0.047852,-2.0000310000000003,0.011231
522,-7.751583,45.105669,40.161746,-0.21765500000000002,-1.7051040000000002,-0.36853600000000003
524,-69.703212,-43.762875,89.356832,0.026612,-1.017838,0.937758
526,-206.973373,-147.58526,123.90325800000001,0.349004,0.354742,0.45142299999999996
528,-63.233387,-54.44419,76.90547,0.325689,1.33315,1.042374
530,-319.401846,-124.391547,67.383841,1.434714,-0.18677,0.15552
532,-287.724117,-55.115587,25.452049,1.30251,-0.313725,1.9999689999999999
534,-117.25032399999999,21.362631,-15.503166,-0.512093,-0.066041,1.626001
536,-139.22331599999998,-31.860838,43.21355,-0.8657360000000001,-0.554086,1.6703139999999999
538,-65.186542,-63.050278000000006,29.663539,1.007218,0.281498,1.7518580000000001
540,-41.748684000000004,-29.17525,5.9205,-0.44776099999999996,-0.07715,1.329122
542,-23.926146,-39.978637,-0.854505,0.425666,0.07715,1.486107
544,-13.366903,-16.84596,-1.342794,-0.167605,0.096437,0.995499
546,-19.592584,-7.446403,0.48828900000000003,0.07837000000000001,0.019532,1.142596
548,-16.968032,10.986496,2.990768,0.08203300000000001,0.06640700000000001,1.044938
550,-16.968032,17.273213000000002,4.394598,0.006958,0.017212,1.033341
552,-13.183795000000002,13.916228,4.028382,-0.076417,0.030883999999999998,0.988174
554,-11.352712,1.586938,2.014191,-0.033936,0.048096,0.986099
556,-11.047532,-2.319371,1.342794,-0.02356,0.024048,1.0037989999999999
558,-10.009917999999999,-3.234913,2.014191,-0.030151999999999998,0.034424,0.952407
560,-15.381094000000001,-7.934691,3.356985,-0.038697,0.034546,0.981216
562,-16.601816,-10.009917999999999,2.685588,-0.011963,0.009276999999999999,0.99855
564,-18.493935,-13.672084,1.8921189999999999,-0.011109,0.07067999999999999,0.930312
566,-26.245518,-14.160372,1.09865,-0.001221,0.009276999999999999,1.009781
568,-24.414435,-13.366903,1.647974,-0.001465,0.038697,1.0520180000000001
570,-18.188754,-12.207218,1.342794,-0.000977,-0.019532,1.038712
572,-13.061722999999999,-11.535821,1.037613,0.017334,-0.008545,1.022599
574,-15.564201999999998,-13.305867000000001,0.732433,0.0031739999999999997,0.001953,0.9820709999999999
576,-16.906996,-13.366903,0.671397,0.029541,0.0037840000000000005,1.006485
578,-21.850919,-12.512398,0.244144,0.026489999999999996,-0.041871,0.9834129999999999
580,-26.001373,-10.498207,0.854505,0.027710000000000002,-0.020142,0.993668
582,-31.250477000000004,-9.338521,0.671397,0.031495,-0.034546,1.0031889999999999
584,-32.104982,-6.897078,1.647974,0.031127999999999996,-0.07837000000000001,0.999649
586,-34.302281,-7.01915,2.4414439999999997,0.031006,-0.062013,0.9900049999999999
588,-34.729534,-5.371176,3.234913,0.050782,-0.06225700000000001,0.985977
590,-45.471885,1.342794,9.399557000000001,0.045288999999999996,-0.10009900000000001,0.996597
592,-46.387427,2.624552,7.141222,0.020752,-0.030518,0.9788969999999999
594,-56.031128,-0.976577,0.732433,0.000977,-0.088746,1.068132
596,-49.439231,-2.50248,-11.596857,-0.036744,-0.154299,1.0327309999999998
598,-42.481117,-3.234913,-28.198672,0.061279999999999994,-0.297002,1.055436
600,-23.987182,-0.48828900000000003,-6.347753,0.140261,-0.221073,1.10927
602,-33.020523,7.2022580000000005,-3.967346,0.005493,0.055177,0.98024
604,-88.563363,22.827497,-14.770732999999998,0.034424,0.39758899999999997,0.854994
606,-186.8925,2.624552,-10.193027,-0.018677000000000003,0.557137,0.5356529999999999
608,-500.61799,-32.898451,1.8921189999999999,0.047852,0.377081,1.377951
610,-753.97879,-108.155947,58.960861,0.174197,-0.375494,1.376486
612,-874.830243,-94.5449,79.40795,0.36694899999999997,-2.0000310000000003,1.065934
614,-193.789578,-73.243305,-10.315099,0.061036,-1.431052,1.9999689999999999
616,50.171664,-4.577707,-54.322118,-0.014527000000000002,1.07631,1.9999689999999999
618,53.162431999999995,-26.245518,-1.159686,-0.22204899999999997,0.22485700000000003,1.9999689999999999
620,198.55039299999999,7.629511,-9.52163,-0.10144199999999999,0.37879,0.511604
622,176.943618,11.718929,-3.723201,-0.077638,0.107057,0.403204
624,174.929427,-13.916228,-0.9155409999999999,-0.007324,0.162234,0.539193
626,214.48081200000001,-41.565576,-15.075914000000001,0.22241599999999997,0.264652,1.089616
628,248.661021,-15.747310999999998,-47.058824,0.22974,0.194705,1.504173
630,300.114443,21.667811,-67.017624,-0.008545,-0.08716,1.357931
632,333.86739900000003,20.996414,-59.876402,-0.085573,-0.28931100000000004,1.1023120000000002
634,335.027085,13.672084,-51.697565999999995,0.109499,-0.332403,0.9712059999999999
636,304.814221,45.349813,-63.111315000000005,0.118654,-0.606821,0.41003999999999996
638,218.387121,85.51155899999999,-63.904784,0.196536,-0.47193100000000004,0.769421
640,182.43686599999998,72.755016,-67.627985,0.24805100000000002,-0.259892,1.9999689999999999
642,251.34660899999997,93.263142,-74.219883,0.022583000000000002,-0.82594,1.9999689999999999
644,227.11528199999998,113.03883400000001,-49.256122999999995,-0.11902,-0.977554,1.952422
646,250.003815,101.747158,-26.489662,0.168215,-1.043595,1.9999689999999999
648,263.370718,130.006867,-30.945296000000003,0.526986,-0.9404440000000001,1.5007549999999998
650,226.07766800000002,129.579614,-45.410849,0.414191,-0.965347,1.572656
652,209.536889,102.96788000000001,-42.298009,0.101198,-1.278584,1.9999689999999999
654,226.565957,75.31853199999999,-31.494621000000002,0.373419,-2.0000310000000003,1.183124
656,160.646983,103.27306,-31.982909999999997,0.681529,-2.0000310000000003,-0.413703
658,35.88922,31.555657,-16.479744,0.24060399999999998,-2.0000310000000003,-1.4028530000000001
660,-83.802548,-114.259556,37.964446,-0.126101,-1.3711149999999999,0.6890970000000001
662,-102.784772,-136.781872,48.52369,0.319707,-1.082414,-1.165057
664,-136.110475,-87.098497,48.950942,-0.366217,0.543465,1.6314950000000001
666,-226.565957,-90.33341,59.449149,0.123049,0.183597,-0.334478
668,-277.042802,-56.702525,64.637217,1.365621,-0.045167,1.9999689999999999
670,-179.507134,13.794156,-8.789197,0.9080950000000001,-0.34216799999999997,1.9999689999999999
672,-126.58884599999999,1.953155,13.305867000000001,-1.959625,-0.5848479999999999,1.879789
674,-61.646448,-105.287251,40.40589,1.128191,0.568856,1.9999689999999999
676,-23.620966,-10.559242999999999,4.882887,-0.677012,-0.004761,1.183001
678,-39.368276,-56.031128,-0.30518,0.6368510000000001,0.165774,1.430808
680,-28.503853000000003,-22.583351999999998,-0.854505,-0.181643,0.019776,1.147845
682,-21.545739,-5.859464,-1.525902,0.058227999999999995,-0.009766,1.176898
684,-12.695506,2.746624,0.793469,0.100343,0.078126,0.998184
686,-15.259022,8.1178,3.479057,0.024903,0.020508000000000002,1.049821
688,-13.488975,9.52163,3.90631,0.005005,0.028443,1.025772
690,-13.000687,7.080186,3.234913,-0.042359,0.051881,0.9538719999999999
692,-14.404517000000002,4.150454,2.685588,-0.001343,0.020996,1.010147
694,-12.756542,3.723201,3.234913,-0.026612,0.015625,0.999527
696,-12.024109,2.197299,1.8921189999999999,-0.033692,0.178592,1.263569
698,-13.244831,-1.159686,2.197299,-0.033082,-0.002441,0.9470360000000001
700,-13.122759,-3.295949,1.464866,-0.012085,0.018067,0.9796290000000001
702,-14.709697,-5.065995,1.586938,-0.025879000000000003,0.018189,0.9865870000000001
704,-13.122759,-5.676356,0.427253,-0.024903,0.005737,1.040543
706,-12.695506,-8.056764,0.366217,-0.022095,0.002075,0.9740139999999999
708,-12.939651,-10.070953999999999,-0.244144,-0.005493,-0.024903,0.9969629999999999
710,-9.704738,-9.52163,-0.671397,-0.029419,-0.016114,1.126482
712,-10.681315,-11.596857,-0.6103609999999999,0.012695999999999999,-0.02295,1.048478
714,-7.080186,-7.568475,-0.366217,0.022827,-0.049073,0.9820709999999999
716,-6.103609,-4.5166699999999995,1.09865,-0.00061,-0.044677999999999995,1.002213
718,-9.094377,-5.371176,0.244144,-0.0051270000000000005,-0.010254000000000001,0.9115129999999999
720,-16.357671,-5.188067,-1.647974,0.11303900000000001,-0.127932,0.7411
722,-18.24979,-3.234913,0.366217,0.019287000000000002,-0.044068,1.034684
724,-15.869383,-1.281758,0.793469,0.020386,-0.034546,0.9708399999999999
726,-21.606775,-1.7700470000000001,1.464866,0.019287000000000002,-0.01709,0.9906159999999999
728,-31.738766,-0.976577,4.699779,0.033082,-0.003906,0.959976
730,-40.955215,-2.746624,5.371176,0.0043950000000000005,-0.003662,0.970352
732,-43.579767,-5.61532,4.028382,-0.030762,-0.051637,0.9896389999999999
734,-50.171664,-7.9957270000000005,-8.056764,-0.018311,-0.051759000000000006,0.912734
736,-52.124819,-13.916228,-25.879301,-0.0037840000000000005,-0.13073900000000002,0.9908600000000001
738,-50.2327,-2.990768,0.671397,0.09765800000000001,-0.211063,1.103777
740,-32.776379,0.9155409999999999,0.061036,0.06543099999999999,-0.10974300000000001,1.034562
742,-73.609522,9.765774,-4.5166699999999995,-0.018189,0.357671,0.8169069999999999
744,-200.869764,7.9957270000000005,-8.911269,-0.023681999999999998,0.439826,0.759777
746,-341.92416299999996,-33.69192,4.577707,-0.000244,0.473762,1.404196
748,-662.1194780000001,-91.004807,53.162431999999995,-0.10962100000000001,0.015869,0.9072399999999999
750,-822.034028,-122.255283,74.341955,0.11487,-0.24744000000000002,0.9863430000000001
752,-497.383078,-118.226902,116.21271100000001,-1.075944,-1.804715,1.9999689999999999
754,316.716259,-9.094377,-18.493935,-0.091188,1.625635,1.9999689999999999
756,2.197299,-25.452049,34.912642,-0.347539,0.45301,0.6128020000000001
758,114.19852,5.432212,19.165332,-0.140627,0.386969,0.031738999999999996
760,57.740139,-9.765774,15.991454999999998,-0.013184,0.304082,0.489509
762,98.57328100000001,-14.892805,1.09865,-0.050660000000000004,0.43653000000000003,0.786877
764,139.22331599999998,-31.616692999999998,-8.545052,-0.030396,0.419684,1.273945
766,194.094759,-18.066682,-24.902724,-0.051637,0.33753,1.455589
768,246.95201,14.160372,-36.865797,-0.124025,0.082521,1.4382540000000001
770,286.25925099999995,33.875029,-35.88922,-0.156863,-0.11523599999999999,1.286885
772,302.43381400000004,49.378195,-26.794842,-0.068727,-0.22192699999999999,1.2245059999999999
774,293.095293,49.439231,-38.818952,0.44361000000000006,-0.37598200000000004,1.3368120000000001
776,292.66804,58.838788,-70.49668100000001,0.440558,-0.447517,1.354635
778,277.59212599999995,45.777066,-85.69466700000001,0.16833800000000002,-0.592172,1.560327
780,271.427482,41.687647999999996,-80.567636,-0.071046,-0.575082,1.750759
782,261.84481600000004,63.843748,-69.214923,-0.096193,-0.505989,1.878325
784,246.768902,95.155261,-55.237658999999994,0.011963,-0.528084,1.9999689999999999
786,249.88174300000003,107.48455,-44.678416,0.238285,-0.589975,1.9999689999999999
788,242.801556,98.512245,-35.156786,0.248295,-0.7137560000000001,1.9999689999999999
790,237.247272,63.782712,-22.46128,0.199466,-1.0251620000000001,1.7022959999999998
792,197.02449099999998,55.176623,-19.958801,0.4159,-1.724636,1.4613260000000001
794,130.7393,107.24040600000001,-40.71107,1.117205,-2.0000310000000003,1.469749
796,143.556878,168.15442099999999,-70.069429,0.678843,-2.0000310000000003,-1.186542
798,-65.918975,-60.66987099999999,14.526589000000001,0.088136,-1.87454,-0.667979
800,-120.48523700000001,-228.946365,28.198672,1.139178,-1.0080719999999999,-0.642832
802,-119.569696,-115.785458,-4.272526,-0.514046,0.43262399999999995,1.684352
804,-212.77180099999998,-89.23476,33.508812,-0.987808,0.57496,-0.814588
806,-352.544442,-86.671244,87.83093000000001,0.777722,-0.3617,1.9999689999999999
808,-193.667506,24.048219,13.733120000000001,1.543847,-0.096437,1.9999689999999999
810,-154.360266,10.315099,10.620279,-1.762478,-1.052384,1.9999689999999999
812,-66.956588,-87.403677,42.175937,1.2221870000000001,0.571908,1.533349
814,-48.767834,-8.667124000000001,10.193027,-0.794934,-0.142336,1.292622
816,-20.691233999999998,-50.598917,0.9155409999999999,0.620859,0.291752,1.314107
818,-34.485389,-30.151827,0.671397,-0.207156,-0.020752,1.188983
820,-16.723888,-11.841001,-0.976577,0.033326,0.014771000000000001,0.999527
822,-27.405203000000004,-9.765774,0.427253,0.129274,0.041993,1.068742
824,-26.489662,-2.319371,2.685588,0.032227,0.008423,1.00502
826,-24.292363,0.427253,2.136263,-0.0015869999999999999,-0.008789,0.984512
828,-22.949569,-0.671397,3.6011290000000002,-0.012085,0.023194,1.012833
830,-24.719615,2.50248,3.418021,-0.014771000000000001,0.016968,1.015518
832,-22.583351999999998,5.737392,4.028382,0.013184,-0.026612,1.057267
834,-13.977264000000002,4.333562000000001,4.577707,0.056764,0.110231,0.948501
836,-15.259022,4.943923000000001,2.685588,-0.015503,-0.023316,1.021256
838,-15.747310999999998,3.051804,1.464866,-0.019165,-0.004517,0.973037
840,-18.860151000000002,2.4414439999999997,1.586938,-0.023438,-0.05505499999999999,0.994034
842,-19.104295,2.136263,1.159686,-0.011597,-0.033448,0.9907379999999999
844,-16.906996,1.953155,1.037613,0.017578,-0.047363999999999996,1.026505
846,-17.578393,1.525902,1.342794,-0.027710000000000002,-0.07055800000000001,1.016983
848,-13.427939000000002,-1.2207219999999999,1.70901,-0.039185000000000005,-0.067628,1.006973
850,-12.268253999999999,-4.272526,1.7700470000000001,-0.027832,-0.03418,0.933242
852,-13.611048,-7.324331,0.0,-0.041505,-0.017456,0.97377
854,-19.592584,-10.070953999999999,-0.732433,-0.023681999999999998,-0.057862000000000004,0.988052
856,-23.193713,-11.352712,-0.366217,-0.004639,-0.045533,0.9831690000000001
858,-30.395971999999997,-9.948882000000001,-1.2207219999999999,-0.008301000000000001,-0.058227999999999995,0.984756
860,-37.659265999999995,-9.155413000000001,0.48828900000000003,-0.004883,-0.073365,0.9719389999999999
862,-44.251164,-7.324331,3.90631,0.012206999999999999,-0.105226,1.01796
864,-39.795528999999995,-3.1128400000000003,6.2867169999999994,-0.010620000000000001,-0.139406,1.127947
866,-26.306554,3.6011290000000002,7.141222,-0.038941,-0.09399600000000001,1.015396
868,-22.339208,1.953155,8.850233,-0.082643,-0.062013,1.096941
870,-35.645075,-8.789197,-15.320058,-0.067506,-0.049928,0.9705959999999999
872,-39.551384999999996,-7.873655,-8.300908,0.057984,-0.220462,1.0390780000000002
874,-33.813992999999996,-6.408789,-6.652933999999999,-0.014893,-0.126467,1.006973
876,-56.641489,-7.446403,-18.127717999999998,0.0023190000000000003,0.09485,0.9209120000000001
878,-121.21767,-0.793469,-15.625238000000001,0.117433,0.18616,0.8365610000000001
880,-173.220417,-16.479744,-44.556344,0.048096,0.8298469999999999,1.293477
882,-612.375067,-4.882887,-16.540779999999998,-0.311162,0.760876,1.9999689999999999
884,-830.457008,-62.195772999999996,42.786297,0.002686,-0.28186500000000003,0.89955
886,-786.511025,-94.483864,182.986191,-1.310811,-1.130388,1.9999689999999999
888,308.171206,-88.197147,3.784237,-0.797375,0.9579,1.9999689999999999
890,-29.724575,-67.444877,69.459068,-0.382208,0.752087,0.894423
892,79.71313,-2.50248,31.555657,-0.041260000000000005,0.353277,0.49305
894,41.138323,-16.418708,21.789883,0.042481,0.406744,0.71339
896,119.569696,-48.645762,5.0049589999999995,0.001709,0.5081859999999999,1.078752
898,167.727169,-57.740139,-14.0383,0.059692999999999996,0.435554,1.304341
900,214.724956,-29.907683000000002,-37.415122,-0.08069,0.260502,1.214252
902,253.29976299999998,-12.573433999999999,-44.495308,-0.22937399999999997,0.040162,1.165667
904,280.277714,0.854505,-37.90341,-0.338872,-0.12024100000000001,1.341939
906,312.932021,22.339208,-25.085832,-0.323369,-0.23498899999999998,1.312764
908,320.500496,47.302968,-17.578393,-0.23389000000000001,-0.48059799999999997,0.8570690000000001
910,274.174105,80.018311,-11.169604,0.00647,-0.6204930000000001,0.49329399999999995
912,222.90379199999998,52.979324,-11.535821,0.164797,-0.347173,1.172137
914,203.311208,46.387427,-22.278172,0.209842,-0.24194699999999997,1.9999689999999999
916,249.210346,55.786984,-37.842374,0.10254100000000001,-0.421759,1.9999689999999999
918,294.987411,61.280232,-43.030442,0.083375,-0.649424,1.9999689999999999
920,282.291905,69.03181500000001,-47.73022,0.23022800000000002,-0.673838,1.8457310000000002
922,278.873884,65.857939,-66.895552,0.389288,-0.611826,1.827665
924,263.797971,74.464027,-93.44625,0.36902399999999996,-0.729992,1.6496830000000002
926,229.312581,89.723049,-107.911803,0.190555,-1.076188,1.330343
928,175.844968,104.066529,-95.338369,0.07727200000000001,-1.6489509999999998,1.0851
930,91.371023,124.391547,-65.613794,0.4701,-2.0000310000000003,1.0396889999999999
932,78.065156,125.55123200000001,-35.278859000000004,0.276738,-2.0000310000000003,-0.345708
934,-119.142443,-105.470359,57.984283,0.147341,-2.0000310000000003,-1.8753950000000001
936,-181.338216,-208.194095,81.11695999999999,1.002213,0.084352,1.9999689999999999
938,-125.73433999999999,-82.093538,50.476844,0.003906,0.8333870000000001,0.538949
940,-293.217365,-100.03814799999999,57.312886,0.67042,-0.039307,1.054704
942,-209.90310499999998,-34.058137,19.043259,1.089372,-0.355718,1.9999689999999999
944,-166.872663,6.2867169999999994,8.484016,-0.61854,0.006836,1.6489509999999998
946,-127.870604,-70.679789,47.42504,-0.629404,-0.6046229999999999,1.581201
948,-76.478218,-97.718776,38.757915999999994,1.1423510000000001,0.329473,1.9999689999999999
950,-36.011292,-42.90837,7.263294,-0.31165,0.042847,1.204608
952,-35.828183,-42.664225,-3.540093,0.472053,0.039307,1.270527
954,-35.645075,-17.212177,1.40383,-0.06836,0.049073,1.078264
956,-23.559929999999998,7.2022580000000005,1.037613,0.06836,0.032349,1.0633709999999998
958,-19.531548,14.221407999999998,1.647974,0.058227999999999995,0.0037840000000000005,1.063127
960,-21.362631,17.151141,3.784237,-0.010864,0.019287000000000002,1.016983
962,-18.554971,11.657893,2.136263,-0.021485,0.051148,0.9632719999999999
964,-21.667811,4.760815,1.647974,-0.019532,0.021851,0.976089
966,-21.179522,3.418021,1.525902,-0.001709,-0.010131999999999999,1.045304
968,-15.564201999999998,3.173877,1.647974,-0.005249,0.000732,1.002945
970,-12.817578,2.50248,0.48828900000000003,0.033936,-0.053223,0.859144
972,-15.075914000000001,-1.953155,1.464866,-0.02002,-0.009766,0.976944
974,-13.488975,-3.234913,1.09865,-0.011963,-0.001953,0.988296
976,-13.977264000000002,-4.699779,1.342794,-0.005005,-0.012451,1.008316
978,-13.733120000000001,-3.845274,1.09865,0.006592,0.0063479999999999995,1.080583
980,-11.963073,-6.103609,1.647974,-0.012085,-0.007812999999999999,0.964981
982,-14.648660999999999,-9.338521,-0.183108,-0.000366,0.006592,0.9660790000000001
984,-19.043259,-10.681315,0.061036,0.019898,-0.053834,0.975601
986,-19.104295,-7.9957270000000005,1.159686,0.03772,-0.054688,1.00209
988,-20.447089000000002,-6.2867169999999994,2.075227,0.014038,-0.035035000000000004,1.009293
990,-18.921187,-4.699779,1.40383,0.005615,-0.039307,0.9969629999999999
992,-22.400244,-6.2867169999999994,0.366217,0.0015869999999999999,-0.023194,0.9626610000000001
994,-28.015564,-7.812619000000001,-0.30518,0.006592,-0.057984,0.973526
996,-30.273899,-8.911269,-0.366217,0.030396,-0.039796,1.006729
998,-34.058137,-7.934691,0.671397,0.010742,-0.037110000000000004,0.945205
1000,-41.016251000000004,-1.586938,5.554284,0.037476,-0.10547000000000001,0.984146
1002,-48.218509000000005,3.295949,5.9205,0.038087,-0.09729199999999999,0.9942780000000001
1004,-44.61738,3.418021,3.90631,0.0051270000000000005,-0.072511,1.001846
1006,-51.148241,0.671397,-3.845274,-0.063722,-0.07531900000000001,1.033707
1008,-47.119859999999996,-4.21149,-17.395285,-0.093263,-0.161746,1.115618
1010,-44.190127000000004,-7.01915,-7.629511,0.144533,-0.285893,1.0677649999999999
1012,-43.274586,-1.342794,-10.925460000000001,0.035035000000000004,0.177859,1.0048979999999998
1014,-124.51361899999999,16.113526999999998,-20.080873,0.021606999999999998,0.255375,0.749401
1016,-197.146563,-37.415122,-25.452049,-0.033326,0.744518,0.243412
1018,-468.08575599999995,-92.835889,-26.245518,-0.8740370000000001,0.285283,1.228046
1020,-759.960327,-271.000229,65.857939,0.053101,-0.170047,0.9519190000000001
1022,-1002.3346300000001,-271.000229,246.03646899999998,-0.5212479999999999,-1.520653,1.9999689999999999
1024,192.385748,-36.682689,-22.705425,0.296513,0.665171,1.9999689999999999
1026,30.029754999999998,33.69192,-13.244831,-0.49256099999999997,0.9118790000000001,1.646021
1028,87.464714,22.034028,4.699779,-0.242313,0.235355,0.749035
1030,80.201419,30.212863,7.263294,0.008423,0.395148,0.342657
1032,105.287251,24.902724,0.122072,0.009644,0.346441,0.730236
1034,127.62645900000001,-2.929732,-2.990768,0.028564999999999997,0.407233,1.1349049999999998
1036,185.915923,4.699779,-16.418708,0.017823,0.391241,1.39736
1038,234.37857599999998,28.931106,-26.733806,-0.106447,0.174929,1.326925
1040,270.450904,48.157472999999996,-22.217136,-0.20019800000000001,-0.039550999999999996,1.18703
1042,292.91218399999997,51.209277,-5.188067,-0.181765,-0.20740100000000003,1.247333
1044,311.100938,40.833143,7.141222,0.015259,-0.306157,1.200092
1046,288.578622,56.092164000000004,-1.342794,0.304204,-0.603525,0.882216
1048,259.098192,73.853666,-17.395285,0.38660300000000003,-0.46546099999999996,0.981949
1050,219.485771,57.49599499999999,-35.88922,0.41528999999999994,-0.353765,1.5823
1052,211.00175499999997,44.800488,-52.613108,0.30847600000000003,-0.521736,1.9999689999999999
1054,254.825666,68.17730999999999,-62.317845,0.02002,-0.793469,1.9999689999999999
1056,247.56237099999998,66.956588,-44.495308,-0.119753,-0.9673,1.9999689999999999
1058,247.867552,68.421454,-24.292363,-0.043336,-0.987808,1.9999689999999999
1060,243.65606200000002,76.90547,-18.554971,0.080323,-1.051041,1.643946
1062,216.983291,89.356832,-19.531548,0.19958800000000002,-1.265522,1.520775
1064,185.000381,90.821698,-18.24979,0.5611659999999999,-1.876738,1.298238
1066,139.894713,126.466773,-34.058137,0.899184,-2.0000310000000003,0.58143
1068,80.323491,117.372396,-39.246204,0.484993,-2.0000310000000003,-1.104021
1070,-63.111315000000005,-53.77279300000001,7.812619000000001,0.079591,-1.6859389999999999,-0.06579700000000001
1072,-189.76119599999998,-174.56321100000002,38.269627,-0.039796,-0.20056500000000002,0.563973
1074,-101.075761,-39.978637,47.180896000000004,-0.649546,1.0036770000000002,1.848661
1076,-251.712825,-114.259556,75.989929,0.42883999999999994,-0.264775,-0.312261
1078,-278.14145099999996,-64.08789200000001,63.050278000000006,1.7171889999999999,0.21619000000000002,1.9999689999999999
1080,-107.48455,17.578393,-23.254749,0.54725,-0.091554,1.489647
1082,-163.149462,-8.972305,25.818265,-1.856596,-0.772595,1.832181
1084,-70.49668100000001,-122.072175,43.457694000000004,1.0934,0.480354,1.9999689999999999
1086,-42.542153000000006,-24.597542999999998,2.868696,-0.5413899999999999,-0.016602000000000002,1.121843
1088,-48.279545,-71.16807800000001,-3.723201,0.658213,0.004761,1.3315629999999998
1090,-48.462654,-26.977951,0.671397,-0.058717,-0.083375,1.2487979999999999
1092,-23.86511,-20.019837,-5.127031,0.068482,0.067262,0.937392
1094,-19.409476,-7.141222,2.80766,0.08520599999999999,-0.024659,1.0393219999999999
1096,-24.231327,3.845274,2.563516,0.00647,-0.060303999999999996,1.0724040000000001
1098,-18.677042999999998,4.5166699999999995,4.699779,0.054322,-0.019776,0.970474
1100,-13.550010999999998,3.967346,3.1128400000000003,0.013793999999999999,-0.08838,0.9550930000000001
1102,-17.151141,-0.061036,3.234913,-0.012451,0.007201999999999999,1.015396
1104,-12.573433999999999,-1.159686,2.685588,0.010986,-0.012818000000000001,1.011124
1106,-10.315099,-3.1128400000000003,2.929732,0.039673,0.048463,1.033585
1108,-7.873655,-2.380407,2.319371,0.024903,0.015747,1.053239
1110,-8.728161,-2.624552,1.342794,0.014771000000000001,0.052735000000000004,1.015152
1112,-8.178836,-3.845274,0.183108,0.026978,-0.086671,0.960952
1114,-9.765774,-4.8218510000000006,0.427253,0.023194,-0.02002,0.9950100000000001
1116,-10.070953999999999,-6.347753,-0.366217,0.02356,-0.009155,0.9820709999999999
1118,-12.512398,-7.080186,-0.793469,0.046998000000000005,-0.041627,1.008682
1120,-11.474784,-4.638743,-0.366217,0.049683,-0.039673,1.023575
1122,-13.794156,-3.90631,-0.48828900000000003,0.02356,-0.016846,0.9398340000000001
1124,-24.292363,-6.958114,-0.549325,0.035767,-0.011963,0.939467
1126,-31.860838,-8.545052,-0.183108,0.048585,-0.048096,0.9946440000000001
1128,-31.311513,-5.065995,1.342794,0.056031,-0.043091000000000004,1.0089270000000001
1130,-32.959487,-3.784237,3.051804,0.114748,-0.002564,1.1154959999999998
1132,-34.973678,-1.281758,2.685588,0.056031,-0.11767799999999999,0.977554
1134,-32.349126,1.8310830000000002,6.2867169999999994,0.11133,-0.059692999999999996,0.985489
1136,-45.899138,3.6011290000000002,5.493248,0.026123,-0.072877,1.021256
1138,-52.979324,3.540093,-0.366217,-0.013672,-0.081788,1.050675
1140,-47.486076000000004,-0.732433,-10.620279,-0.001953,-0.132204,1.065202
1142,-41.077287,-3.051804,-24.170291,-0.024537,-0.24622,1.032975
1144,-27.527276,-1.037613,-6.71397,0.211917,-0.23474499999999998,1.137591
1146,-35.034714,9.643702000000001,5.127031,0.038331,0.019532,0.981949
1148,-90.150301,27.222095,-5.554284,-0.018311,0.40283800000000003,0.810681
1150,-187.869078,-7.6905470000000005,0.061036,-0.311772,0.21814299999999998,0.658457
1152,-394.903487,-49.134051,-2.075227,-0.194339,0.49329399999999995,1.655299
1154,-716.68574,-205.264363,55.90905600000001,-0.000488,-0.118288,1.0717940000000001
1156,-850.598917,-175.234607,94.42282800000001,0.375372,-1.770779,1.7960479999999999
1158,-188.052186,-72.022583,30.945296000000003,-0.088991,-1.3393760000000001,1.9999689999999999
1160,235.904479,58.3505,-42.298009,0.185672,1.2061950000000001,1.9999689999999999
1162,35.645075,-12.756542,20.691233999999998,-0.135378,0.24670799999999998,0.748058
1164,144.411383,28.564889,4.699779,0.008423,0.362921,0.037110000000000004
1166,83.802548,18.066682,-0.976577,0.06347799999999999,0.203983,0.439826
1168,122.13321100000002,-13.000687,-15.259022,0.083497,0.401129,0.809949
1170,155.458915,-15.259022,-33.630884,0.076051,0.393194,1.3152059999999999
1172,205.081254,11.718929,-52.063783,0.005982,0.27258699999999997,1.51162
1174,260.37995,35.706111,-56.153201,-0.148806,0.015137000000000001,1.377584
1176,288.090333,47.119859999999996,-38.208591,-0.237308,-0.256718,1.415671
1178,317.448692,46.448463000000004,-14.587625,-0.129641,-0.341924,1.455589
1180,329.472801,45.349813,-5.7984279999999995,0.12451400000000001,-0.43054899999999996,1.320455
1182,302.861067,78.431373,-20.019837,0.401617,-0.644541,0.613046
1184,230.228122,62.928206,-39.246204,0.478889,-0.48303999999999997,0.922377
1186,185.85488700000002,53.467613,-59.14396899999999,0.44971400000000006,-0.31458,1.9999689999999999
1188,262.699321,76.539254,-80.262455,0.206668,-0.7961550000000001,1.9999689999999999
1190,223.697261,87.586786,-71.412222,0.05127,-0.9118790000000001,1.9734189999999998
1192,254.947738,77.08857900000001,-59.510185,0.157473,-0.9945219999999999,1.9999689999999999
1194,259.342336,92.713817,-56.458381,0.26953499999999997,-1.169085,1.483543
1196,224.795911,78.919661,-48.462654,0.21435900000000002,-1.375753,1.355612
1198,196.658274,66.77348,-31.250477000000004,0.22974,-1.8216830000000002,1.104997
1200,141.054398,70.130465,-17.822538,0.529305,-2.0000310000000003,0.522225
1202,76.295109,81.483177,-21.423667000000002,0.39465900000000004,-2.0000310000000003,-0.261112
1204,-28.564889,4.5166699999999995,14.892805,0.003906,-1.8249790000000001,-0.100221
1206,-136.964981,-117.06721599999999,45.044633000000005,-0.19067699999999999,-1.0129549999999998,-0.627939
1208,-121.46181399999999,-79.40795,51.758602,-0.064332,1.0639809999999998,1.583642
1210,-283.81780699999996,-110.353246,62.745098,0.15905999999999998,-0.100832,-0.397345
1212,-277.53109,-76.78339799999999,60.852979000000005,1.363546,0.079225,1.9999689999999999
1214,-123.90325800000001,6.652933999999999,-5.371176,0.8930799999999999,-0.187869,1.8581830000000001
1216,-162.111849,36.49958,3.051804,-0.9788969999999999,-0.395392,1.704616
1218,-74.464027,-50.049592,39.612421000000005,-0.50013,-0.239261,1.168719
1220,-67.566949,-70.435645,19.958801,0.80177,0.015747,1.76968
1222,-33.447776,-49.622339000000004,7.385367,-0.224735,-0.005249,1.029801
1224,-34.241245,-41.687647999999996,-2.2583349999999998,0.296757,0.0028079999999999997,1.32546
1226,-14.831769,-26.245518,-0.244144,0.004517,0.038575,1.058122
1228,-15.747310999999998,-13.488975,-0.366217,0.09729199999999999,0.027710000000000002,1.0445719999999998
1230,-17.151141,-2.136263,2.80766,0.083619,0.072267,1.001358
1232,-18.432898,6.2867169999999994,3.418021,-0.008789,0.012695999999999999,1.0564129999999998
1234,-12.878614,2.990768,3.90631,0.005493,0.033936,1.004532
1236,-13.061722999999999,-1.09865,1.7700470000000001,0.00647,0.046754000000000004,0.973281
1238,-15.197985999999998,-0.793469,0.671397,0.038819,0.007201999999999999,1.040299
1240,-15.320058,2.014191,1.8921189999999999,0.020630000000000003,0.020508000000000002,1.010269
1242,-11.718929,3.6011290000000002,1.8921189999999999,0.010864,0.0028079999999999997,1.0127110000000001
1244,-8.239872,4.943923000000001,-1.037613,-0.016358,-0.10009900000000001,0.96083
1246,-7.6905470000000005,3.6621650000000003,1.40383,-0.014282,0.021118,0.9813379999999999
1248,-11.23064,-1.09865,0.30518,-0.031861,0.039185000000000005,0.8997940000000001
1250,-20.202945,-7.141222,0.061036,-0.012573,0.022705,0.969619
1252,-16.601816,-11.657893,0.30518,0.038209,0.012206999999999999,0.92079
1254,-15.442129999999999,-11.474784,-0.427253,0.020386,-0.045288999999999996,1.0526280000000001
1256,-9.643702000000001,-9.643702000000001,0.732433,0.045045,-0.014405000000000001,1.045792
1258,-8.911269,-8.667124000000001,0.671397,0.016236,0.013062,0.965103
1260,-15.991454999999998,-9.460594,0.48828900000000003,0.030883999999999998,-0.025757,0.9511860000000001
1262,-23.498894,-8.178836,0.854505,0.028076999999999998,-0.01294,0.96144
1264,-33.997101,-7.2022580000000005,2.380407,0.027710000000000002,-0.046754000000000004,1.027115
1266,-25.452049,-2.929732,2.50248,0.043824,-0.067384,1.022599
1268,-24.170291,-0.854505,3.6621650000000003,0.029541,-0.045411,0.975723
1270,-32.776379,-1.953155,5.432212,0.027222000000000003,-0.055299,0.970352
1272,-32.776379,-1.037613,6.836042,0.051759000000000006,0.013793999999999999,1.018936
1274,-52.796216,1.647974,4.8218510000000006,-0.000366,-0.065919,0.985367
1276,-48.157472999999996,1.464866,-1.281758,0.032105,-0.095583,0.999771
1278,-41.382467,3.173877,-5.065995,-0.008789,-0.076539,1.034318
1280,-58.289464,0.0,-23.376822,-0.045167,-0.147829,1.031144
1282,-46.753643,2.624552,-1.342794,0.158572,-0.26331,1.125261
1284,-28.686961,10.681315,-3.418021,0.016724,0.166018,0.9434959999999999
1286,-125.42916000000001,24.658579,-16.84596,-0.038331,0.383185,0.7293810000000001
1288,-230.96055499999997,-10.498207,-6.591897,-0.175906,0.641123,1.07155
1290,-552.559701,-41.931792,-11.535821,-0.49341599999999997,0.311772,1.573266
1292,-752.1477070000001,-166.201267,51.63653,0.014038,-0.572519,0.9831690000000001
1294,-982.986191,-213.931487,179.385061,-0.251469,-2.0000310000000003,1.9999689999999999
1296,71.900511,-133.363851,3.418021,0.19250799999999998,0.585214,1.9999689999999999
1298,-7.2022580000000005,0.6103609999999999,-6.958114,-0.024903,1.08571,1.9999689999999999
1300,132.814527,39.00206,-22.278172,-0.197757,0.287846,1.2024110000000001
1302,116.21271100000001,13.427939000000002,-11.047532,-0.14941600000000002,0.30688899999999997,0.269902
1304,136.781872,2.929732,-10.131991000000001,-0.051759000000000006,0.20972,0.465949
1306,134.95078999999998,-9.277485,-14.953841,-0.046754000000000004,0.248417,0.8155640000000001
1308,179.26298899999998,-7.6905470000000005,-28.931106,0.004273,0.30432600000000004,1.0274809999999999
1310,211.245899,5.065995,-41.748684000000004,-0.052613,0.193851,1.486839
1312,269.77950699999997,23.620966,-46.387427,-0.16614,0.016724,1.637964
1314,320.012207,45.288777,-39.00206,-0.154665,-0.19409500000000002,1.436179
1316,339.42168300000003,46.875715,-31.128404999999997,0.032958999999999995,-0.333623,1.023941
1318,306.76737599999996,67.505913,-42.664225,0.204227,-0.769299,0.078126
1320,200.686656,100.03814799999999,-45.838102,0.306279,-0.403326,0.637217
1322,179.751278,63.904784,-55.542840000000005,0.288457,-0.170657,1.9999689999999999
1324,271.793698,98.329137,-67.994202,0.170657,-0.723644,1.9999689999999999
1326,241.824979,108.5832,-47.364004,-0.091798,-0.88661,1.9999689999999999
1328,306.462196,73.609522,-18.799115,0.023194,-1.011978,1.9999689999999999
1330,307.438773,97.047379,-12.207218,0.49659,-1.0156399999999999,1.225849
1332,248.783093,69.520104,-26.428626,0.5963229999999999,-0.906142,1.9039599999999999
1334,258.426795,73.548486,-45.410849,0.310674,-1.3705040000000002,1.539574
1336,194.644083,87.953002,-34.546426000000004,0.186404,-2.0000310000000003,0.7137560000000001
1338,97.596704,133.730068,-32.043946000000005,0.523079,-2.0000310000000003,0.247196
1340,26.001373,108.339055,-6.103609,0.138674,-2.0000310000000003,-1.003433
1342,-98.45120899999999,-86.488136,61.402304,0.2981,-1.676539,-2.0000310000000003
1344,-132.570382,-121.03456200000001,34.119172999999996,-0.11731099999999998,0.344976,1.9999689999999999
1346,-172.42694699999998,-110.96360700000001,65.918975,-0.411749,0.343877,-0.8963760000000001
1348,-325.505455,-103.02891600000001,81.055924,1.5279770000000001,0.062501,1.69192
1350,-191.348135,-8.484016,-2.319371,1.693141,-0.44068100000000004,1.9999689999999999
1352,-177.126726,26.306554,-3.6621650000000003,-2.0000310000000003,-0.25977,1.9999689999999999
1354,-37.232013,-104.859998,56.458381,0.10461600000000001,-0.028321,1.292988
1356,-48.401617,-42.359045,12.268253999999999,0.8072630000000001,0.069337,1.536645
1358,-25.391012,-67.689021,15.564201999999998,-0.099733,0.073732,1.040909
1360,-35.217822999999996,-29.297321999999998,5.249104,0.106447,0.066285,1.238422
1362,-21.545739,-37.59823,2.075227,0.142458,0.169558,1.017105
1364,-30.640116,-10.559242999999999,4.577707,0.045899,0.032837,1.1422290000000002
1366,-27.283131,-3.845274,2.4414439999999997,0.08630499999999999,-0.044312,0.996841
1368,-20.752270000000003,-5.61532,5.249104,0.014159999999999999,0.060548000000000005,0.9310440000000001
1370,-23.926146,-10.498207,3.051804,-0.015625,0.10351700000000001,0.999283
1372,-23.193713,-12.390326,1.2207219999999999,0.046265,-0.030151999999999998,0.9983059999999999
1374,-20.874342000000002,-9.338521,0.671397,0.056641,-0.017945,0.937881
1376,-23.132676999999997,-4.272526,1.647974,0.04358,0.011963,1.030533
1378,-20.447089000000002,-3.173877,1.70901,0.022461000000000002,0.009276999999999999,1.023575
1380,-19.226368,-4.089418,1.2207219999999999,0.025147,-0.014282,1.0160069999999999
1382,-18.127717999999998,-4.333562000000001,0.793469,0.0271,0.045655,1.072526
1384,-18.860151000000002,-5.249104,-0.6103609999999999,0.039673,-0.058106,0.940688
1386,-16.968032,-5.188067,-0.854505,0.047486,-0.056275,1.002945
1388,-16.357671,-4.638743,-0.48828900000000003,0.042602999999999995,-0.033448,1.010147
1390,-14.0383,-4.21149,-0.244144,0.025147,-0.005371,1.023575
1392,-14.892805,-4.333562000000001,0.061036,0.059327,-0.034058,1.0121
1394,-14.0383,-1.586938,0.48828900000000003,0.061524,-0.059571000000000006,0.984024
1396,-14.465553,0.30518,2.014191,0.056886,-0.049928,0.9986719999999999
1398,-15.686275,0.30518,2.2583349999999998,0.031495,-0.021118,0.982925
1400,-20.996414,-0.732433,0.854505,0.0365,-0.036255,0.9824370000000001
1402,-23.86511,-2.80766,1.525902,0.064454,0.0,1.021622
1404,-25.696193,0.732433,2.685588,0.056275,-0.06652899999999999,0.9749899999999999
1406,-27.222095,4.028382,5.554284,0.10620299999999999,-0.025513,0.962417
1408,-43.030442,5.981537,4.943923000000001,0.025147,-0.067872,0.987808
1410,-49.683375,4.8218510000000006,0.0,0.006592,-0.072999,0.991714
1412,-44.190127000000004,1.037613,-6.2867169999999994,-0.019532,-0.15198,1.063005
1414,-25.452049,-1.70901,-21.728847000000002,0.036378,-0.23498899999999998,0.9698629999999999
1416,-18.371862,1.09865,-10.620279,0.21814299999999998,-0.215702,1.087297
1418,-31.555657,14.587625,4.028382,-0.016114,0.060913999999999996,0.969009
1420,-91.676204,28.381781,-14.953841,0.000732,0.47156499999999996,0.8603649999999999
1422,-175.234607,-0.183108,-15.13695,-0.40003099999999997,0.373907,0.9796290000000001
1424,-463.508049,-31.982909999999997,-8.484016,0.05359,0.589731,1.4741440000000001
1426,-762.706951,-181.21614399999999,71.778439,-0.070924,-0.252934,1.334493
1428,-919.874876,-184.756237,109.98703,1.196185,-2.0000310000000003,1.9999689999999999
1430,28.320745000000002,-46.265353999999995,-40.894179,0.286748,-0.5557949999999999,1.9999689999999999
1432,203.18913600000002,61.585412,-75.623713,-0.11511400000000001,0.942153,1.653346
1434,-0.122072,-18.005646,-6.591897,-0.125002,0.15600799999999998,0.47803500000000004
1436,124.33051,9.948882000000001,-26.550697999999997,0.019043,0.463264,0.342046
1438,97.718776,5.9205,-35.339895,0.061279999999999994,0.38721300000000003,1.070207
1440,166.506447,-6.591897,-51.941711,0.096071,0.489509,1.35964
1442,230.716411,-6.347753,-69.398032,0.06286699999999999,0.32398000000000005,1.503075
1444,281.254292,24.658579,-82.948043,-0.029541,0.045533,0.968643
1446,287.113756,43.091478,-77.271687,-0.08691499999999999,-0.088258,0.586557
1448,277.042802,22.522316,-66.163119,-0.024413999999999998,-0.066041,0.965103
1450,277.347982,42.542153000000006,-73.30434100000001,-0.031983,-0.408209,0.6345310000000001
1452,214.114595,88.197147,-62.684062,-0.046632,-0.336431,1.075212
1454,209.658961,95.826658,-48.645762,-0.102174,-0.277836,1.9999689999999999
1456,264.46936800000003,124.02533000000001,-26.67277,-0.140993,-0.7420770000000001,1.89041
1458,227.054246,117.73861299999999,-0.183108,0.090822,-0.672374,1.9999689999999999
1460,295.048447,112.36743700000001,6.71397,0.204105,-0.798108,1.9999689999999999
1462,281.010147,106.87418899999999,17.456321,0.23608800000000002,-0.797009,1.876982
1464,280.582895,112.48950900000001,12.756542,0.806775,-0.623178,1.7370869999999998
1466,261.356527,97.291524,2.014191,0.5557949999999999,-1.016617,1.600855
1468,226.19974100000002,50.720989,5.371176,0.161868,-1.687037,0.8576790000000001
1470,123.292897,67.07866,-10.315099,0.550179,-2.0000310000000003,0.644541
1472,54.688334,153.87197700000002,-48.52369,0.276127,-2.0000310000000003,0.21826500000000001
1474,-24.109254999999997,47.241932,27.588312,-0.48926499999999995,-2.0000310000000003,-0.780529
1476,-282.169833,-182.43686599999998,49.561303,1.254658,-0.9403219999999999,1.3593959999999998
1478,-89.17372399999999,-89.96719300000001,17.395285,-0.374517,1.3023879999999999,1.636011
1480,-288.273442,-73.548486,44.129090999999995,0.025879000000000003,-0.635508,-0.9588770000000001
1482,-331.120775,-43.701839,50.904097,1.41677,-0.31006300000000003,1.9999689999999999
1484,-142.824445,47.302968,-16.601816,-0.580697,-0.034913,1.624292
1486,-92.04241999999999,-103.212024,53.894865,-1.113542,-0.839857,1.290303
1488,-69.58114,-75.928893,22.888533,1.9999689999999999,0.135256,1.9999689999999999
1490,-55.054551000000004,-39.673457,15.625238000000001,-0.505379,0.008545,0.9555809999999999
1492,-48.096437,-4.699779,-1.2207219999999999,-0.001831,-0.034058,1.073259
1494,-18.066682,-16.784924,-3.723201,0.248783,0.033448,1.235737
1496,-12.878614,0.976577,1.586938,-0.08203300000000001,0.018311,1.01088
1498,-19.043259,6.164645,2.746624,-0.019165,0.022216999999999997,1.026017
1500,-10.681315,8.1178,2.380407,0.03125,0.021241,1.040909
1502,-7.629511,8.300908,2.685588,-0.018555000000000002,0.024291999999999998,1.015274
1504,-6.958114,5.188067,2.197299,-0.041016000000000004,0.026123,0.994034
1506,-7.263294,3.418021,2.197299,-0.043824,0.014405000000000001,0.9935450000000001
1508,-6.103609,0.671397,2.014191,-0.030883999999999998,0.007812999999999999,0.9876860000000001
1510,-7.263294,-3.1128400000000003,1.342794,-0.045411,0.03003,0.961318
1512,-9.033341,-6.2867169999999994,-2.50248,-0.061890999999999995,-0.10486,0.846815
1514,-15.564201999999998,-11.963073,1.40383,-0.049317,0.010254000000000001,0.9510639999999999
1516,-13.855192,-10.864424,-2.014191,0.072389,-0.27808,0.675303
1518,-20.691233999999998,-13.794156,2.990768,-0.017945,-0.01648,0.976699
1520,-18.188754,-11.474784,2.136263,0.0037840000000000005,0.011963,1.041642
1522,-15.686275,-8.606088,1.40383,-0.011840999999999999,-0.020874,1.019181
1524,-13.488975,-8.361944,1.342794,-0.008545,-0.033448,1.008316
1526,-14.099336,-9.704738,1.2207219999999999,-0.012329000000000001,-0.017456,1.010636
1528,-9.643702000000001,-8.606088,0.732433,0.01709,-0.052490999999999996,0.981094
1530,-9.52163,-5.859464,0.793469,0.0177,-0.041016000000000004,0.997208
1532,-11.596857,-3.967346,1.2207219999999999,0.012695999999999999,-0.006226,1.004532
1534,-16.113526999999998,-3.967346,1.7700470000000001,0.010498,-0.011840999999999999,0.976699
1536,-20.752270000000003,-4.455634,1.8310830000000002,-0.0177,-0.00415,0.986099
1538,-27.222095,-5.737392,1.70901,0.003418,-0.046754000000000004,1.0116120000000002
1540,-27.100022999999997,-4.333562000000001,2.868696,0.013916,-0.068605,1.007218
1542,-24.353399,-1.525902,4.089418,0.049561,-0.039063,0.9867090000000001
1544,-30.457008000000002,-2.746624,4.089418,0.00647,-0.027222000000000003,0.966567
1546,-41.138323,-4.028382,2.929732,0.055177,-0.078126,1.075456
1548,-34.546426000000004,-0.244144,0.061036,0.002075,-0.082521,0.9681540000000001
1550,-35.88922,-0.183108,-2.2583349999999998,-0.070436,-0.021729,1.053361
1552,-48.279545,-8.42298,-23.376822,0.0043950000000000005,-0.080934,1.032853
1554,-40.039673,5.554284,0.427253,0.059083000000000004,-0.19372899999999998,1.054826
1556,-42.298009,7.568475,-5.188067,0.038209,0.032471,0.969619
1558,-112.79468999999999,8.667124000000001,-13.366903,0.025025,0.23035,0.7367060000000001
1560,-202.51773899999998,-3.6011290000000002,-7.9957270000000005,0.10547000000000001,0.462287,0.961074
1562,-487.31212300000004,-18.24979,-11.291675999999999,-0.160891,0.612436,1.152117
1564,-735.179675,-71.534295,64.332036,0.073121,-0.289921,1.582666
1566,-872.8160529999999,-110.96360700000001,177.431907,-1.137713,-0.084962,1.9999689999999999
1568,320.805676,-24.719615,-20.202945,-0.323369,0.73463,1.9999689999999999
1570,-11.291675999999999,-1.281758,28.625925,-0.36939,0.747692,0.050904000000000005
1572,-12.146181,-2.075227,18.005646,-0.002075,0.231449,0.581674
1574,15.381094000000001,-1.2207219999999999,-9.948882000000001,0.106325,0.597665,0.817639
1576,97.169451,-9.338521,-32.227053999999995,-0.042359,0.522225,1.116594
1578,131.96002099999998,-17.578393,-40.10071,-0.11523599999999999,0.393683,1.1529719999999999
1580,184.32898500000002,2.50248,-46.631571,-0.174197,0.269047,0.925917
1582,211.36797099999998,20.141909,-40.40589,-0.292241,0.093507,1.049699
1584,239.93286,29.419394,-23.498894,-0.297734,-0.015259,1.175189
1586,270.817121,36.743725,-7.629511,-0.14905,-0.087282,1.119524
1588,273.3196,44.129090999999995,-11.352712,0.251347,-0.277836,0.718151
1590,234.866865,64.759289,-36.255435999999996,0.459846,-0.316411,0.922866
1592,220.340276,60.303655000000006,-63.172351,0.320073,-0.299931,1.327901
1594,200.198367,66.407263,-70.008392,0.078981,-0.428717,1.9999689999999999
1596,237.55245299999999,75.989929,-70.98496999999999,0.065553,-0.66627,1.8720990000000002
1598,214.90806400000002,79.77416600000001,-65.186542,0.031006,-0.850233,1.8240020000000001
1600,214.9691,81.971466,-50.965133,-0.028808999999999998,-0.867933,1.9999689999999999
1602,229.98397799999998,81.177996,-34.302281,0.13904,-0.809705,1.6804459999999999
1604,213.01594599999999,69.336996,-26.855878999999998,0.251835,-0.806287,1.384909
1606,192.690929,55.481804000000004,-25.757229000000002,0.097414,-0.9747459999999999,1.517845
1608,180.300603,49.317159000000004,-3.295949,-0.312749,-1.500267,1.049699
1610,130.128939,40.650034000000005,43.640803000000005,0.0043950000000000005,-2.0000310000000003,0.578012
1612,60.059509999999996,44.739452,59.266041,0.499275,-2.0000310000000003,-0.008057
1614,-149.111162,-97.840848,81.666285,0.886122,-2.0000310000000003,-1.130632
1616,-86.4271,-62.073701,31.982909999999997,0.47986599999999996,0.55787,1.940337
1618,-184.939345,-79.22484200000001,31.372549,-0.169558,0.510994,0.074586
1620,-284.79438500000003,-76.722362,58.167391,0.17468499999999998,-0.390631,1.7353779999999999
1622,-181.948577,-33.752956,23.682002,0.956924,-0.183108,1.9999689999999999
1624,-167.54406,-20.019837,30.640116,-1.020035,-0.161379,1.9999689999999999
1626,-32.837415,-88.258183,17.761501000000003,1.0676430000000001,0.15295599999999998,1.9999689999999999
1628,-60.608835,-11.23064,9.52163,-0.46424,0.08752599999999999,1.017227
1630,-37.170977,-39.978637,6.042573,0.36780300000000005,0.16589600000000002,1.451072
1632,-39.917601,-28.564889,0.793469,-0.198734,-0.061402,1.093034
1634,-43.396658,-22.888533,-1.525902,0.059449,-0.07531900000000001,1.0897379999999999
1636,-12.939651,-12.451362,-1.037613,0.074586,0.052613,0.993057
1638,-23.498894,-9.155413000000001,1.159686,0.029175,-0.037842,1.063859
1640,-23.071641,-8.056764,0.732433,0.025269,-0.038452999999999994,1.0309
1642,-14.770732999999998,-6.530861,-0.732433,0.035889,-0.013184,1.015518
1644,-12.695506,-4.943923000000001,-0.854505,0.033692,-0.037110000000000004,1.023209
1646,-15.075914000000001,-2.380407,0.061036,0.045167,-0.040527999999999995,1.019425
1648,-12.573433999999999,-0.793469,0.427253,0.031127999999999996,-0.031127999999999996,1.01149
1650,-11.047532,-0.48828900000000003,0.671397,0.035157,-0.05139199999999999,1.033585
1652,-7.324331,0.0,0.427253,0.029664,-0.053834,1.012345
1654,-4.21149,-0.183108,0.122072,0.034668,-0.052979,1.018692
1656,-2.2583349999999998,-0.366217,0.244144,0.023926,-0.046754000000000004,0.9784079999999999
1658,-2.990768,-1.159686,-0.9155409999999999,0.051026,-0.107301,1.030411
1660,-0.061036,-0.30518,0.732433,0.0015869999999999999,-0.043458,0.9675440000000001
1662,-0.122072,-0.854505,-0.183108,0.012818000000000001,-0.045288999999999996,0.9950100000000001
1664,1.281758,-0.732433,-0.549325,0.040162,-0.042237000000000004,0.993668
1666,1.525902,0.671397,-0.244144,0.04358,-0.055542999999999995,1.0118559999999999
1668,0.976577,1.7700470000000001,0.671397,0.027955,-0.050172,1.0127110000000001
1670,3.356985,2.380407,0.366217,0.036622,-0.061890999999999995,1.01149
1672,7.01915,2.380407,-0.30518,0.025269,-0.051514,1.020035
1674,6.71397,1.037613,-0.9155409999999999,0.0035399999999999997,0.005371,0.930434
1676,-1.09865,-0.244144,-1.281758,0.035279000000000005,-0.031127999999999996,0.9948879999999999
1678,-2.380407,1.647974,0.0,0.041749,-0.048585,1.008682
1680,-0.732433,2.746624,0.122072,0.029907999999999997,-0.03772,1.016129
1682,0.549325,1.70901,-1.7700470000000001,0.02002,-0.017334,1.017594
1684,-0.9155409999999999,1.647974,-1.8310830000000002,0.036622,-0.021729,0.965835
1686,-8.667124000000001,3.845274,-0.6103609999999999,0.050660000000000004,-0.005371,0.9865870000000001
1688,-14.160372,7.2022580000000005,2.4414439999999997,0.0271,-0.004273,0.9538719999999999
1690,-23.987182,5.0049589999999995,2.075227,0.019165,0.010864,0.973648
1692,-23.193713,4.760815,1.8310830000000002,0.011231,-0.050294,0.9820709999999999
1694,-42.847333,8.300908,3.90631,-0.015137000000000001,-0.018311,0.996841
1696,-35.523003,10.559242999999999,0.976577,0.047852,-0.07361000000000001,0.9824370000000001
1698,-29.053178000000003,15.930419,4.21149,0.06006,-0.167605,0.866712
1700,-33.69192,8.972305,-5.065995,-0.084352,-0.34070300000000003,0.906264
1702,-34.912642,-7.080186,-17.578393,-0.032958999999999995,0.055299,0.891127
1704,-89.906157,-9.338521,-8.667124000000001,0.067262,-0.051514,0.952651
1706,-111.146716,-0.244144,-12.63447,0.11316099999999998,0.021118,0.9235979999999999
1708,-162.417029,-0.549325,-3.051804,-0.08691499999999999,0.22070599999999999,1.001602
1710,-226.99321,-16.723888,8.484016,0.049073,-0.067872,1.0946209999999998
1712,-252.811475,-52.857252,1.09865,-0.413825,-0.32874000000000003,1.117205
1714,-267.70428,-126.344701,15.320058,0.019532,0.071412,1.295552
1716,-274.235142,-99.183642,34.912642,0.057984,-0.24329,1.9999689999999999
1718,109.37666899999999,25.085832,-50.659953,-0.098756,0.387335,1.9999689999999999
1720,38.025483,20.263981,-27.344167,-0.41199399999999997,0.087404,0.806775
1722,108.461128,15.320058,-12.024109,-0.285161,0.091554,0.601205
1724,108.76630800000001,15.747310999999998,-3.234913,-0.128298,0.0028079999999999997,0.985977
1726,139.46746000000002,27.588312,-6.71397,-0.011475,0.029297000000000004,1.1621270000000001
1728,174.99046299999998,41.260395,-18.921187,0.142336,-0.059449,1.195697
1730,200.01525900000001,49.683375,-30.395971999999997,0.080568,-0.279179,1.085588
1732,204.83711,49.622339000000004,-27.161059,-0.052247,-0.44605200000000006,0.682994
1734,183.413443,34.607462,-7.141222,-0.2533,-0.474617,0.7623409999999999
1736,174.074922,30.151827,18.005646,-0.135988,-0.415412,1.194232
1738,173.403525,61.280232,31.189441,-0.027832,-0.491829,1.039811
1740,157.778286,69.703212,55.603876,-0.096193,-0.697398,0.890394
1742,134.645609,61.524376000000004,84.840162,0.052247,-0.7009380000000001,0.695445
1744,91.859312,50.782025,98.329137,0.188968,-0.677379,0.709117
1746,57.618067,27.222095,87.953002,0.215702,-0.752087,0.463996
1748,-47.119859999999996,-81.177996,92.16449200000001,0.09509400000000001,-2.0000310000000003,-1.7667509999999997
1750,-182.986191,-68.299382,58.960861,1.9772029999999998,-1.8829630000000002,1.9999689999999999
1752,282.65812200000005,55.542840000000005,-55.115587,-0.14966,0.488655,-1.316793
1754,-113.832303,-16.052491,5.065995,0.027955,0.358892,-0.5988859999999999
1756,-73.975738,-11.841001,10.070953999999999,0.051637,-0.462531,1.7055919999999998
1758,-32.104982,-2.624552,8.850233,0.13464600000000002,0.077028,0.909316
1760,-15.381094000000001,-8.056764,-0.549325,-0.174319,0.13904,0.742687
1762,-26.733806,-14.099336,-2.868696,0.015869,-0.07055800000000001,1.115984
1764,-18.432898,-7.812619000000001,-0.976577,0.039429,-0.008789,1.029435
1766,-23.315785,-7.080186,-0.122072,0.015503,-0.018433,1.023819
1768,-11.779964999999999,-3.356985,0.671397,0.040284,-0.053223,1.06923
1770,-7.751583,-1.7700470000000001,1.037613,0.013916,-0.013062,0.9627829999999999
1772,-8.1178,-3.356985,0.30518,-0.0023190000000000003,-0.033569999999999996,0.9969629999999999
1774,-7.812619000000001,-5.432212,-0.427253,0.011231,-0.021485,0.9902489999999999
1776,-5.7984279999999995,-4.943923000000001,-0.427253,0.033448,-0.036255,1.024674
1778,-2.929732,-2.014191,0.0,0.040772,-0.043458,1.042741
1780,1.037613,0.854505,0.0,0.029053,-0.044556,1.03798
1782,4.8218510000000006,1.40383,-0.427253,0.007812999999999999,-0.02002,0.97731
1784,2.014191,-0.366217,-0.6103609999999999,0.010254000000000001,-0.013916,0.992447
1786,1.953155,-0.183108,-0.549325,0.035035000000000004,-0.023194,1.009415
1788,2.136263,1.8921189999999999,-0.122072,0.028808999999999998,-0.020752,1.007462
1790,2.2583349999999998,4.333562000000001,0.427253,0.026733999999999997,-0.042237000000000004,1.030533
1792,5.065995,5.676356,0.549325,0.009522,-0.024903,1.000259
1794,3.723201,3.723201,0.30518,-0.007324,-0.007935,0.969986
1796,-1.037613,-0.183108,-0.427253,-0.00415,-0.012451,0.9803620000000001
1798,0.061036,-1.281758,-1.037613,0.017456,-0.016114,0.9950100000000001
1800,1.037613,-1.159686,-1.2207219999999999,0.015625,-0.015869,0.999771
1802,3.356985,0.0,-1.281758,0.031983,-0.0271,1.019791
1804,2.929732,2.929732,-0.30518,0.024903,-0.013184,0.998917
1806,3.479057,6.347753,1.037613,0.018067,-0.014893,1.008194
1808,1.8921189999999999,6.591897,1.2207219999999999,-0.011475,-0.009888,0.962417
1810,-0.122072,0.48828900000000003,-0.732433,-0.045167,-0.002686,0.9592430000000001
1812,-3.479057,-4.272526,-1.953155,0.052490999999999996,-0.042847,1.067277
1814,3.051804,1.342794,0.671397,0.046632,-0.033692,1.045792
1816,11.169604,2.685588,0.671397,0.004639,0.044312,0.92079
1818,-0.793469,-1.953155,-0.9155409999999999,-0.016968,0.0271,0.965347
1820,-4.455634,-5.859464,-2.014191,0.001709,-0.021973,1.0167389999999998
1822,-0.976577,-3.90631,-1.8310830000000002,0.072389,-0.06421,1.084733
1824,6.469825,3.356985,2.014191,0.026856,0.00061,0.98793
1826,6.103609,2.2583349999999998,0.30518,0.015381,-0.030151999999999998,1.063005
1828,11.718929,2.80766,-0.976577,0.005737,-0.002564,1.0234530000000002
1830,10.498207,4.699779,-0.9155409999999999,-0.000244,0.044556,0.949844
1832,-2.075227,1.281758,-0.854505,0.01648,-0.035035000000000004,1.0407870000000001
1834,5.9205,4.21149,0.427253,-0.001099,0.020752,0.946304
1836,-15.442129999999999,-7.873655,-0.9155409999999999,-0.042602999999999995,0.046143,0.948989
1838,-8.972305,-8.911269,-2.4414439999999997,0.008667,-0.032837,1.0481120000000002
1840,1.70901,-2.80766,-1.09865,0.015991,0.013916,0.995865
1842,-5.9205,-3.90631,-0.6103609999999999,-0.00647,-0.009644,0.999283
1844,-3.6621650000000003,-3.6621650000000003,-0.793469,-0.006836,-0.013062,0.9749899999999999
1846,-3.784237,-7.080186,-1.281758,0.012818000000000001,-0.024903,1.06569
1848,6.103609,-4.882887,-1.525902,0.035279000000000005,-0.015015,1.0445719999999998
1850,7.446403,-0.48828900000000003,-0.183108,0.034302,0.043824,0.9709620000000001
1852,0.0,0.0,-0.30518,0.004883,0.009888,0.9862209999999999
1854,2.868696,0.366217,-0.48828900000000003,0.028199000000000002,-0.014771000000000001,1.011978
1856,5.9205,2.319371,0.366217,0.008301000000000001,-0.009644,1.0091709999999998
1858,6.958114,1.7700470000000001,0.0,0.018677000000000003,0.00293,0.9935450000000001
1860,2.2583349999999998,2.014191,0.0,0.014282,0.050172,0.932876
1862,-5.0049589999999995,1.70901,0.183108,-0.0063479999999999995,-0.003662,1.0078280000000002
1864,-3.051804,2.014191,-0.30518,0.017334,-0.005005,1.009781
1866,-0.793469,2.624552,-0.122072,0.015625,-0.012085,1.0234530000000002
1868,1.647974,2.4414439999999997,0.0,-0.0074459999999999995,0.001709,0.988052
1870,0.549325,0.793469,0.30518,0.000244,0.010986,0.9864649999999999
1872,-0.732433,-0.244144,0.0,0.001953,0.010376,0.988052
1874,-0.122072,-0.976577,-0.366217,0.008423,-0.001953,1.0040440000000002
1876,0.671397,-0.48828900000000003,-0.244144,0.011353,-0.004883,1.012833
1878,1.647974,0.061036,0.0,0.014159999999999999,-0.00415,0.9980620000000001
1880,2.075227,-0.732433,-0.244144,0.013672,0.003662,0.9984280000000001
1882,0.9155409999999999,-0.6103609999999999,-0.48828900000000003,0.005493,0.023804,0.9786530000000001
1884,-1.953155,-0.366217,-0.244144,0.01001,0.011963,0.972183
1886,4.028382,-1.09865,-0.732433,0.012329000000000001,0.015503,0.9942780000000001
1888,1.464866,-2.136263,-0.671397,0.013916,0.006104,1.0160069999999999
1890,-0.183108,-1.8310830000000002,-0.183108,0.05359,0.029786,1.007095
1892,0.9155409999999999,-2.136263,0.30518,0.02002,0.017334,0.969986
1894,-1.342794,-1.953155,0.061036,0.023438,0.023926,0.9826809999999999
1896,-3.051804,-0.6103609999999999,0.244144,-0.0021969999999999997,0.007201999999999999,1.01735
1898,-0.061036,0.732433,-0.122072,0.008423,0.009033,1.0047760000000001
1900,0.48828900000000003,0.671397,-0.366217,0.010986,0.002075,1.013687
1902,-3.418021,0.427253,-0.366217,0.014282,0.020630000000000003,1.002823
1904,-5.065995,1.09865,-0.6103609999999999,0.006836,-0.015015,0.981949
1906,-1.7700470000000001,0.30518,-0.549325,0.006104,0.005005,1.010758
1908,-0.854505,0.793469,-0.183108,0.008789,-0.0043950000000000005,0.995499
1910,0.183108,0.854505,0.244144,0.006714,0.0021969999999999997,0.991348
1912,1.40383,0.48828900000000003,0.0,0.010376,0.002564,1.0057530000000001
1914,0.48828900000000003,0.549325,0.061036,0.012573,0.003296,1.006241
1916,-0.061036,0.366217,0.0,0.006836,0.0058590000000000005,0.9904940000000001
1918,-0.976577,-0.061036,-0.366217,0.005737,0.007812999999999999,0.988418
1920,-0.30518,-0.793469,-0.244144,0.004883,0.009033,0.9900049999999999
1922,1.7700470000000001,-1.281758,1.09865,0.015625,0.000244,1.005997
1924,0.9155409999999999,-0.549325,0.671397,0.015381,0.012329000000000001,0.999649
1926,-1.037613,-0.671397,-0.30518,0.020752,0.008545,1.006363
1928,-4.455634,-0.366217,-0.48828900000000003,0.009644,0.004883,1.000381
1930,-3.479057,-0.30518,-0.427253,0.006958,-0.000977,1.005142
1932,-0.793469,-0.30518,-0.244144,-0.000488,0.0051270000000000005,0.9902489999999999
1934,-1.281758,-0.549325,0.0,0.011840999999999999,-0.0015869999999999999,1.001602
1936,0.671397,0.183108,0.0,0.01001,-0.0015869999999999999,1.006241
1938,1.525902,0.0,-0.183108,0.00061,0.009522,1.001358
1940,-1.40383,-0.48828900000000003,-0.122072,0.007324,0.0031739999999999997,0.995132
1942,-4.455634,-1.159686,0.0,0.009155,-0.008911,1.006363
1944,2.685588,0.671397,-0.549325,0.000366,0.015015,1.0031889999999999
1946,0.427253,-0.30518,-0.427253,0.013672,0.025513,0.9902489999999999
1948,0.427253,-0.183108,-0.6103609999999999,0.006592,0.0051270000000000005,0.988418
1950,2.929732,-0.122072,-0.48828900000000003,0.01709,-0.009644,1.013565
1952,7.629511,0.061036,-0.732433,0.013306,0.005249,1.015763
1954,6.469825,0.183108,-1.09865,0.017823,0.015259,0.988785
1956,2.746624,-0.183108,-1.586938,0.018189,0.011963,1.006729
1958,0.0,0.061036,-2.075227,0.00293,0.006104,1.009415
1960,-0.244144,0.122072,-1.342794,0.007935,-0.002686,1.0080719999999999
1962,-0.549325,0.183108,-1.037613,0.012451,0.014893,0.9952540000000001
1964,0.549325,0.244144,-1.342794,0.00415,0.0094,1.002945
1966,0.244144,0.671397,-1.8921189999999999,0.014527000000000002,0.01001,0.995132
1968,-1.464866,0.183108,-1.7700470000000001,-0.006836,0.010864,0.997574
1970,-2.380407,-0.366217,-1.09865,0.006714,0.00647,0.991836
1972,-2.014191,-0.427253,-1.2207219999999999,0.015991,0.018555000000000002,0.9868309999999999
1974,-1.953155,0.122072,-2.136263,0.013062,0.004028,0.999283
