Packet number,Gyroscope X (deg/s),Gyroscope Y (deg/s),Gyroscope Z (deg/s),Accelerometer X (g),Accelerometer Y (g),Accelerometer Z (g)
0,-0.122072,-0.061036,0.0,-0.006836,0.001465,1.0000149999999999
2,-0.061036,-0.183108,0.0,-0.002686,-0.001465,1.004532
4,0.0,-0.244144,0.0,-0.00061,-0.004761,0.9983059999999999
6,-0.6103609999999999,-0.366217,-0.122072,-0.000244,-0.005493,1.000626
8,-1.09865,-0.366217,0.0,-0.003296,-0.000244,0.9939120000000001
10,-0.366217,-0.183108,0.0,-0.001709,-0.001831,1.0047760000000001
12,-0.122072,-0.366217,-0.183108,-0.000732,-0.006714,0.999771
14,-0.061036,-0.183108,0.0,0.002075,-0.003662,1.005631
16,-0.122072,-0.30518,-0.122072,-0.001953,-0.006714,0.9994049999999999
18,-0.244144,-0.244144,-0.122072,-0.001831,-0.007324,1.007584
20,-0.30518,-0.183108,-0.122072,0.0015869999999999999,-0.006714,1.00734
22,-0.427253,-0.244144,-0.122072,-0.000732,0.000732,0.995743
24,-0.366217,-0.183108,-0.183108,-0.003296,-0.003662,1.002823
26,-0.366217,-0.30518,-0.122072,0.001343,-0.0028079999999999997,1.001846
28,0.061036,-0.183108,-0.122072,-0.0031739999999999997,-0.000732,1.010758
30,0.0,-0.244144,0.0,-0.0015869999999999999,-0.0023190000000000003,1.001968
32,-0.48828900000000003,-0.366217,-0.122072,-0.000488,-0.001831,1.002579
34,-0.30518,-0.366217,-0.122072,-0.002441,-0.002686,0.989395
36,-0.854505,-0.30518,-0.183108,-0.000732,-0.0028079999999999997,0.9994049999999999
38,-0.9155409999999999,-0.244144,0.0,-0.0015869999999999999,-0.011353,0.9973299999999999
40,-0.549325,-0.183108,0.0,0.002441,-0.005249,1.006729
42,0.0,0.0,-0.122072,-0.000977,-0.003052,1.003922
44,0.0,-0.122072,0.0,0.001465,-0.008179,1.005264
46,-0.061036,-0.122072,-0.122072,-0.0031739999999999997,-0.007324,1.002945
48,-0.061036,-0.122072,0.0,-0.0015869999999999999,-0.008057,0.9950100000000001
50,-0.30518,-0.183108,-0.122072,0.0031739999999999997,-0.005615,1.000626
52,-0.549325,-0.244144,-0.122072,0.006226,-0.0070799999999999995,1.0046540000000002
54,-0.427253,-0.183108,-0.122072,-0.003052,-0.003906,1.002701
56,0.0,0.0,-0.122072,-0.002441,-0.008057,0.9946440000000001
58,0.122072,-0.122072,-0.183108,-0.0035399999999999997,-0.002441,1.0037989999999999
60,0.244144,-0.122072,-0.244144,0.001343,-0.002686,0.995743
62,0.183108,-0.122072,-0.122072,0.001221,-0.004883,1.003433
64,-0.061036,-0.122072,-0.244144,-0.0023190000000000003,0.001221,0.9986719999999999
66,-0.061036,-0.122072,0.0,0.000122,0.001099,0.997574
68,-0.244144,-0.30518,0.0,-0.008179,-0.004761,1.0080719999999999
70,-0.122072,-0.244144,0.0,-0.00415,0.001465,1.003922
72,-0.122072,-0.30518,-0.122072,-0.0021969999999999997,-0.003906,1.002213
74,-0.30518,-0.6103609999999999,0.0,0.000488,-0.002441,1.002213
76,0.061036,-0.427253,-0.122072,0.003662,-0.002441,0.999649
78,-0.061036,-0.244144,0.0,0.002686,-0.004273,1.006485
80,-0.183108,-0.061036,0.183108,0.0028079999999999997,-0.004883,1.002579
82,0.183108,-0.244144,0.122072,0.0023190000000000003,-0.003418,1.000259
84,0.671397,-0.48828900000000003,0.0,0.00061,-0.005737,1.006973
86,3.723201,0.061036,-0.366217,-0.002564,-0.000732,0.9831690000000001
88,4.455634,0.549325,-0.122072,-0.005615,-0.0021969999999999997,1.008682
90,4.272526,0.671397,0.183108,-0.006958,0.002075,1.007095
92,4.455634,0.30518,0.122072,-0.0028079999999999997,0.009276999999999999,0.999649
94,5.61532,-0.671397,0.0,0.028076999999999998,0.02295,0.9942780000000001
96,2.746624,-1.09865,0.244144,-0.00647,0.0015869999999999999,1.006607
98,2.014191,-1.2207219999999999,0.0,-0.003052,0.006836,0.982559
100,2.4414439999999997,-1.464866,0.0,0.0063479999999999995,0.015381,1.000504
102,0.6103609999999999,-1.342794,0.0,-0.01294,0.003296,1.002213
104,2.136263,-0.244144,0.0,-0.0094,0.011231,1.008194
106,2.746624,0.732433,-0.30518,-0.0031739999999999997,0.01294,1.0236969999999999
108,3.6621650000000003,0.183108,0.122072,-0.0031739999999999997,0.015137000000000001,1.002579
110,2.197299,-0.366217,0.183108,0.000122,0.011840999999999999,0.9858549999999999
112,1.953155,-0.6103609999999999,0.122072,-0.0021969999999999997,0.022095,0.984756
114,1.281758,-1.159686,0.0,0.0023190000000000003,0.01648,0.9868309999999999
116,0.976577,-0.671397,0.244144,0.002441,0.008301000000000001,1.000748
118,1.09865,-0.854505,0.671397,-0.008789,0.013672,1.000259
120,0.48828900000000003,-2.075227,0.854505,0.004028,0.024903,0.9979399999999999
122,1.40383,-2.50248,0.793469,-0.007812999999999999,0.016236,0.983291
124,2.319371,-2.746624,0.427253,-0.000732,0.0074459999999999995,1.010147
126,3.845274,-2.746624,0.427253,0.016358,0.025025,1.006973
128,4.699779,-0.549325,0.549325,0.01001,0.008789,1.028214
130,6.897078,1.40383,0.854505,0.014771000000000001,0.015991,1.012222
132,7.01915,1.7700470000000001,0.976577,0.0,0.032105,1.002579
134,5.249104,1.09865,0.366217,0.005005,0.039185000000000005,0.98854
136,3.356985,0.732433,0.183108,-0.003052,0.040527999999999995,0.9710840000000001
138,2.197299,-1.037613,-0.122072,-0.014527000000000002,0.036011,0.983291
140,1.647974,-2.50248,-0.48828900000000003,0.005982,0.027832,1.000137
142,3.295949,-1.342794,-0.366217,0.0094,0.034668,0.997818
144,3.051804,0.0,-0.427253,0.011719,0.023316,0.980606
146,1.40383,0.366217,0.0,0.007691,0.041260000000000005,0.9803620000000001
148,-1.281758,0.6103609999999999,0.0,0.005615,0.033082,1.0008700000000001
150,-0.6103609999999999,0.366217,0.0,0.0094,0.022461000000000002,1.02504
152,1.09865,0.854505,0.0,-0.00061,0.038087,0.9784079999999999
154,1.2207219999999999,0.671397,0.0,0.007812999999999999,0.035035000000000004,0.9903719999999999
156,0.366217,0.549325,-0.122072,0.003052,0.040772,0.987808
158,-0.549325,-0.183108,-0.183108,0.0008550000000000001,0.034791,0.992569
160,-0.061036,-0.549325,-0.183108,-0.002441,0.034913,0.9779200000000001
162,-3.784237,-2.014191,-0.183108,-0.001709,0.044556,0.9786530000000001
164,-3.90631,-2.075227,-0.6103609999999999,0.0051270000000000005,0.034424,0.995132
166,-2.380407,-1.647974,-0.6103609999999999,0.018433,0.026612,0.9987950000000001
168,-3.418021,-1.281758,-0.732433,-0.004028,0.025757,0.988418
170,-5.371176,-2.075227,-0.976577,0.006592,0.032958999999999995,0.98793
172,-5.432212,-1.2207219999999999,-1.2207219999999999,0.018921,0.036133,0.9896389999999999
174,-5.676356,-0.427253,-1.09865,0.019776,0.045899,0.9713280000000001
176,-8.545052,0.30518,-0.732433,0.015015,0.031617,0.976333
178,-10.070953999999999,0.30518,-0.183108,-0.000732,0.021118,0.9902489999999999
180,-12.390326,-0.793469,0.061036,0.002564,0.025025,0.9863430000000001
182,-13.977264000000002,-1.953155,0.854505,0.008789,0.016968,0.985733
184,-19.165332,-2.2583349999999998,2.136263,-0.003662,0.012329000000000001,0.979507
186,-18.738079,-2.746624,2.50248,0.000122,0.004517,0.999527
188,-20.508125,-4.028382,2.746624,-0.017945,-0.017578,1.010269
190,-20.325017000000003,-5.859464,2.075227,0.013672,0.003906,1.026261
192,-18.921187,-6.225681,2.685588,0.007935,-0.01355,0.9986719999999999
194,-19.470512,-7.263294,3.234913,0.046021,0.003906,0.980728
196,-32.349126,-3.1128400000000003,1.342794,0.061036,0.10009900000000001,0.871107
198,-53.223468000000004,-3.295949,0.671397,0.054565999999999996,-0.019409,1.026505
200,-48.52369,2.197299,2.990768,0.060303999999999996,-0.07055800000000001,0.96083
202,-63.477531000000006,-2.624552,-3.6621650000000003,-0.011719,-0.078981,1.047135
204,-70.862898,-5.3101400000000005,-3.234913,0.028199000000000002,-0.13086099999999998,1.036637
206,-69.764248,-3.784237,-5.493248,0.021485,-0.042115,0.989395
208,-97.535668,-0.061036,-3.234913,-0.025269,0.140017,1.105241
210,-154.05508500000002,2.380407,-6.530861,0.064576,0.010986,0.8805069999999999
212,-212.16144,-6.469825,-8.300908,0.0023190000000000003,0.41895200000000005,0.827039
214,-403.63164700000004,5.493248,-14.0383,-0.041016000000000004,0.057862000000000004,1.633204
216,-535.530633,19.287404000000002,-9.460594,0.203372,-0.19861099999999998,1.48098
218,-502.02182,44.068055,76.417182,-1.534569,0.023072,1.9999689999999999
220,155.336843,40.527962,-33.936065,-0.038331,0.515633,1.332174
222,-68.23834599999999,-52.67414399999999,26.733806,0.325811,0.23376799999999998,0.792493
224,20.447089000000002,-35.461967,-32.349126,0.47766800000000004,0.580453,0.500984
226,26.550697999999997,5.9205,-67.750057,0.06421,0.406134,0.894423
228,43.640803000000005,1.8921189999999999,-63.660639,-0.30164,0.317144,1.031998
230,90.516518,-5.676356,-40.10071,-0.3888,0.30640100000000003,1.157977
232,133.119707,7.812619000000001,-14.892805,-0.372808,0.227298,1.150042
234,164.24811200000002,12.085144999999999,7.263294,-0.233646,0.15979200000000002,0.9959870000000001
236,188.23529399999998,7.01915,18.554971,-0.0636,0.133669,1.0477450000000001
238,209.0486,10.742351,15.320058,0.07190099999999999,0.11840999999999999,1.137346
240,225.467308,20.080873,6.042573,0.084962,0.051881,1.19472
242,237.85763300000002,17.883574,-2.624552,0.137209,-0.058961,1.1502860000000001
244,228.885328,21.545739,-17.761501000000003,0.222293,-0.16406500000000002,1.101701
246,208.499275,40.222782,-35.645075,0.189578,-0.147097,1.345602
248,193.301289,54.932479,-49.866484,0.055299,-0.184817,1.889189
250,207.217517,60.364691,-50.537881,-0.115602,-0.460945,1.881621
252,199.038682,62.806134,-42.420081,-0.194583,-0.625376,1.7055919999999998
254,190.310521,70.923934,-29.419394,-0.231449,-0.715831,1.862455
256,183.901732,78.61448100000001,-16.357671,-0.033936,-0.7744260000000001,1.45156
258,156.679637,80.872816,-12.024109,0.1084,-0.8333870000000001,1.692897
260,164.24811200000002,79.77416600000001,-12.695506,0.275517,-1.170428,1.6187989999999999
262,153.933013,54.20004599999999,-29.602502,0.63917,-1.7489279999999998,0.9199360000000001
264,107.17936999999999,71.717403,-55.237658999999994,0.377203,-2.0000310000000003,-0.052613
266,11.047532,43.701839,-26.855878999999998,-0.284062,-1.9031049999999998,-0.478767
268,-64.332036,-31.128404999999997,31.738766,-0.769543,-1.598657,-0.326909
270,-148.01251200000002,-137.331197,82.948043,-0.07776,-0.357671,1.6760509999999997
272,-67.383841,-62.684062,78.370336,-0.682383,0.776867,1.130632
274,-220.035096,-121.095598,94.30075500000001,1.425437,-0.020874,-0.017456
276,-222.110323,-50.659953,35.09575,1.86685,0.12451400000000001,1.9999689999999999
278,-72.877089,20.325017000000003,-42.725260999999996,-0.011231,0.049439,1.484764
280,-105.65346799999999,-31.982909999999997,38.879988,-1.46389,-0.538705,0.9786530000000001
282,-52.73518000000001,-84.290837,41.016251000000004,0.913222,0.398932,1.5960940000000001
284,-30.151827,-26.306554,13.427939000000002,-0.46656000000000003,-0.07910299999999999,1.0553139999999999
286,-33.38674,-50.293735999999996,3.234913,0.394903,0.109133,1.256245
288,-27.283131,-27.405203000000004,1.586938,-0.084108,-0.0063479999999999995,1.0669110000000002
290,-26.67277,-20.752270000000003,1.8310830000000002,0.11840999999999999,0.062623,1.187274
292,-15.259022,-8.911269,0.183108,0.038697,0.094362,1.036149
294,-23.620966,-0.9155409999999999,3.6621650000000003,0.034302,0.01294,1.0234530000000002
296,-24.841688,-0.30518,3.90631,0.022095,0.018921,0.976822
298,-20.813306,-7.080186,1.8921189999999999,-0.002441,0.05774,1.08571
300,-18.799115,-10.925460000000001,2.319371,-0.008301000000000001,0.002564,0.985733
302,-21.972992,-13.244831,2.4414439999999997,0.011597,0.0,0.994766
304,-21.789883,-11.657893,2.319371,0.036988,-0.005615,1.0401770000000001
306,-14.404517000000002,-8.178836,1.70901,0.023072,-0.031006,1.031754
308,-11.413748,-9.704738,1.464866,0.008423,-0.029541,0.995743
310,-10.193027,-10.559242999999999,0.061036,0.023681999999999998,-0.036866,1.000381
312,-10.254063,-11.169604,-0.793469,0.018189,-0.015503,0.991714
314,-9.033341,-10.925460000000001,-0.976577,0.025269,-0.018433,1.002945
316,-9.155413000000001,-9.216449,-0.976577,0.053346000000000005,-0.062379,1.023575
318,-7.385367,-6.775005999999999,-0.549325,0.05651900000000001,-0.052735000000000004,1.046769
320,-2.2583349999999998,-4.089418,0.0,0.04419,-0.029053,0.985611
322,-6.836042,-5.493248,0.061036,0.04004,-0.03003,0.971817
324,-11.902037,-5.981537,-0.244144,0.05139199999999999,-0.033448,0.991348
326,-14.465553,-5.188067,-0.30518,0.06067,-0.040772,0.999771
328,-14.404517000000002,-3.90631,-0.122072,0.087892,-0.046387,0.981094
330,-12.451362,-2.380407,0.427253,0.057008,-0.045533,0.981949
332,-17.090104999999998,-3.173877,1.09865,0.047974,-0.031861,0.986099
334,-18.432898,-1.525902,0.9155409999999999,0.057008,-0.060913999999999996,1.0048979999999998
336,-19.531548,-0.427253,2.014191,0.060792,-0.058838999999999995,0.985367
338,-21.362631,0.061036,1.647974,0.049561,-0.074464,1.001236
340,-20.813306,-1.037613,-0.122072,0.034058,-0.088746,0.9813379999999999
342,-23.559929999999998,0.122072,-1.09865,0.082277,-0.032715,0.9914700000000001
344,-25.085832,4.028382,-2.80766,0.051881,-0.076417,0.9500879999999999
346,-46.082246000000005,5.859464,-0.122072,0.067994,-0.093874,1.049454
348,-44.678416,10.193027,-1.037613,0.036988,-0.12146199999999999,1.033585
350,-57.740139,7.2022580000000005,-10.254063,-0.004761,-0.178347,0.9803620000000001
352,-50.476844,2.929732,-14.282444,0.104128,-0.24499899999999997,0.9785309999999999
354,-37.109941,4.638743,-0.976577,0.128298,-0.164797,1.034318
356,-62.195772999999996,13.794156,-6.958114,0.046998000000000005,0.125612,0.921523
358,-118.71518999999999,7.9957270000000005,-17.273213000000002,-0.18701500000000001,-0.101564,1.065446
360,-191.10398999999998,-19.714656,-31.067369,0.09131,-0.018189,0.947768
362,-313.42031000000003,-47.73022,-22.46128,-0.503059,0.091066,0.981949
364,-529.365988,-169.985504,20.630198,0.062623,-0.157839,0.914809
366,-618.783856,-171.45037,45.227740999999995,0.203006,-0.36328699999999997,0.887343
368,-542.305638,-112.733654,144.655528,-0.11389300000000001,-1.124163,1.9999689999999999
370,160.52491,16.357671,-51.575494,0.256718,0.9698629999999999,1.9999689999999999
372,46.143282,-24.170291,-28.015564,-0.215335,0.257939,1.623804
374,164.614328,18.432898,-33.813992999999996,-0.208621,0.222538,0.271122
376,107.362478,35.88922,-24.353399,-0.171756,0.049073,0.313603
378,112.306401,30.884259999999998,-17.883574,-0.138186,0.202152,0.725475
380,151.918822,19.34844,-13.183795000000002,-0.104005,0.22741999999999998,1.195819
382,190.127413,33.813992999999996,-11.108568,-0.11511400000000001,0.143557,1.3896700000000002
384,233.09681899999998,51.575494,-4.455634,-0.166506,-0.008545,1.156756
386,251.224537,57.984283,10.376135000000001,-0.09509400000000001,-0.11084200000000001,1.022843
388,256.290532,55.237658999999994,16.968032,0.14343499999999998,-0.164553,1.117205
390,261.23445499999997,52.613108,-0.183108,0.452033,-0.151858,1.39089
392,260.37995,66.163119,-36.377508,0.47901099999999996,-0.415412,1.4258030000000002
394,251.04142799999997,80.262455,-55.664912,0.08203300000000001,-0.639414,1.447654
396,233.40199900000002,80.445563,-48.157472999999996,-0.024291999999999998,-0.658946,1.269184
398,196.108949,86.243992,-38.818952,-0.034424,-0.620981,1.712184
400,194.216831,89.662013,-31.311513,0.019409,-0.645762,1.9999689999999999
402,231.387808,104.005493,-29.785611,0.17688299999999998,-0.7371939999999999,1.8301060000000002
404,211.18486299999998,114.13748400000001,-27.161059,0.242679,-0.7625850000000001,1.242206
406,173.220417,114.381628,-30.334936,0.35034699999999996,-0.820081,1.285542
408,149.965667,102.296483,-38.269627,0.33777399999999996,-1.080583,1.342428
410,135.133898,80.872816,-44.373236,0.39819899999999997,-1.750515,1.222553
412,121.46181399999999,88.380255,-40.772107,0.315679,-2.0000310000000003,0.137942
414,32.166018,14.831769,11.963073,0.01355,-1.764187,-0.9542379999999999
416,-70.008392,-90.821698,70.49668100000001,-0.0023190000000000003,-1.066667,0.503426
418,-197.695888,-141.481651,75.684749,0.41846300000000003,-0.163455,1.202045
420,-69.398032,-125.612268,24.841688,0.041260000000000005,1.2112,1.9999689999999999
422,-226.321813,-93.629358,36.438544,0.34229,-0.08191,-0.313603
424,-239.13939100000002,-56.763560999999996,35.523003,0.7463489999999999,0.09729199999999999,1.9999689999999999
426,-121.70595900000001,6.652933999999999,-1.281758,-0.380743,-0.40955199999999997,1.901518
428,-67.07866,-52.124819,42.175937,-0.404791,-0.264775,1.274556
430,-58.533607999999994,-24.353399,14.343481,1.076432,0.00293,1.816556
432,-31.799802000000003,-4.394598,7.263294,-0.413947,0.003296,0.727428
434,-31.128404999999997,-8.239872,-0.6103609999999999,0.116823,0.036988,1.195575
436,-21.789883,-12.939651,-0.732433,0.052125,0.059692999999999996,1.127947
438,-14.526589000000001,7.080186,1.8310830000000002,-0.041382,0.011231,1.072892
440,-11.779964999999999,10.009917999999999,3.234913,-0.016846,0.048463,0.98085
442,-14.587625,9.216449,2.80766,-0.010620000000000001,0.003662,1.053605
444,-10.681315,9.216449,2.4414439999999997,-0.046632,0.001709,1.012222
446,-4.882887,8.178836,1.8921189999999999,-0.047608,0.01294,1.0164950000000001
448,-5.065995,6.652933999999999,2.075227,-0.045167,0.025269,0.973648
450,-6.225681,4.21149,1.70901,-0.076051,0.02002,0.9434959999999999
452,-7.507439,2.990768,0.793469,-0.072755,0.018555000000000002,0.9741360000000001
454,-10.009917999999999,0.427253,1.40383,-0.055909,0.014038,0.985611
456,-10.925460000000001,-1.8310830000000002,2.197299,-0.068482,0.000732,0.98085
458,-10.925460000000001,-4.882887,2.2583349999999998,-0.074098,0.004517,0.9796290000000001
460,-11.657893,-9.948882000000001,2.319371,-0.0542,0.002686,0.9793850000000001
462,-12.390326,-12.451362,1.586938,-0.06543099999999999,-0.006714,0.962051
464,-10.070953999999999,-15.625238000000001,0.427253,-0.123903,0.027955,1.074968
466,-11.535821,-19.592584,-0.427253,-0.051759000000000006,-0.014405000000000001,0.969986
468,-13.550010999999998,-19.226368,-1.525902,-0.019776,0.006714,1.033951
470,-14.282444,-14.648660999999999,-0.48828900000000003,0.05005,-0.037598,1.037125
472,-16.784924,-6.2867169999999994,1.09865,0.019409,-0.028808999999999998,1.043839
474,-13.000687,1.953155,-0.427253,0.015259,-0.3346,0.753307
476,-18.371862,0.732433,4.150454,-0.031983,-0.022216999999999997,1.0359040000000002
478,-18.371862,-2.136263,2.685588,-0.029175,-0.032715,0.996231
480,-17.94461,-4.882887,2.014191,-0.023316,-0.036133,0.984756
482,-18.616007,-6.042573,2.014191,-0.0177,-0.028076999999999998,0.9865870000000001
484,-27.527276,-6.652933999999999,3.418021,-0.025635,-0.059204999999999994,0.980728
486,-28.809033000000003,-5.9205,2.685588,-0.019898,-0.0542,1.006607
488,-29.663539,-5.188067,2.075227,-0.02295,-0.082399,1.014908
490,-29.968719,-3.6621650000000003,4.455634,0.043336,-0.082887,1.015763
492,-28.870069,-0.9155409999999999,6.469825,0.032349,-0.105348,0.963516
494,-31.494621000000002,-2.2583349999999998,3.356985,-0.07470800000000001,-0.082277,1.0053860000000001
496,-35.706111,-5.61532,0.183108,-0.070436,-0.082643,1.010758
498,-45.166705,-15.13695,-16.296635000000002,-0.084596,-0.120729,1.0213780000000001
500,-29.17525,-5.432212,-11.841001,0.056031,-0.14941600000000002,0.988296
502,-50.904097,-10.437171000000001,-13.488975,0.028931000000000002,-0.126589,1.008194
504,-79.77416600000001,-10.559242999999999,-13.672084,0.001465,-0.097536,1.001724
506,-124.269474,-14.099336,-23.071641,0.105226,0.066285,0.8989389999999999
508,-242.67948399999997,7.324331,-28.503853000000003,0.096315,0.651987,1.156756
510,-555.7946139999999,42.481117,15.747310999999998,0.128908,0.44531899999999996,1.7169450000000002
512,-704.234379,38.513771000000006,48.279545,-0.11645699999999999,-0.172244,0.952651
514,-776.684215,-27.405203000000004,173.098344,-1.7875029999999998,-0.356817,1.9999689999999999
516,243.961242,-108.52216399999999,3.6011290000000002,-1.066178,0.690684,1.9999689999999999
518,-85.08430600000001,-105.65346799999999,82.337682,-0.135256,0.6895859999999999,1.371237
520,104.066529,-7.9957270000000005,14.160372,0.12219400000000001,0.558846,0.572519
522,42.481117,-17.151141,-7.873655,0.046998000000000005,0.381598,0.8133670000000001
524,116.39581899999999,-40.039673,-23.926146,-0.036744,0.490486,1.139055
526,180.239567,-50.659953,-34.302281,-0.074098,0.36243200000000003,1.195697
528,214.724956,-41.016251000000004,-40.833143,-0.21033000000000002,0.159182,1.01857
530,244.51056699999998,-25.26894,-36.865797,-0.362799,-0.022338999999999998,0.9909819999999999
532,263.981079,-10.986496,-20.141909,-0.424201,-0.147097,1.137224
534,283.268483,-4.699779,-2.929732,-0.27747,-0.180056,1.283955
536,294.743267,10.864424,-7.385367,0.014038,-0.359014,1.101579
538,263.55382599999996,47.73022,-31.860838,0.12036300000000001,-0.528573,0.704601
540,212.95491,49.805446999999994,-41.260395,-0.055909,-0.46948999999999996,1.266743
542,200.9308,50.2327,-35.828183,-0.180423,-0.414679,1.9999689999999999
544,255.92431499999998,70.130465,-28.259709,-0.140505,-0.5368729999999999,1.9999689999999999
546,270.08468799999997,61.46334,-14.648660999999999,-0.012206999999999999,-0.6576029999999999,1.9999689999999999
548,274.72343,59.20500500000001,-13.977264000000002,0.177249,-0.655528,1.680934
550,255.191882,55.481804000000004,-18.24979,0.083742,-0.66273,1.681788
552,237.918669,59.937438,-21.240558,0.062135,-0.769543,1.616968
554,204.470893,82.948043,-25.757229000000002,0.098512,-1.115007,1.2201110000000002
556,146.791791,91.73724,-18.738079,0.333623,-1.839994,1.02797
558,89.112688,96.009766,-6.347753,0.7961550000000001,-2.0000310000000003,0.273564
560,22.644388,21.05745,8.728161,0.7104600000000001,-2.0000310000000003,-0.9160299999999999
562,-75.623713,-104.432746,34.668498,0.389532,-1.140764,1.024186
564,-170.717937,-57.06874200000001,19.714656,-0.22302600000000003,0.036866,1.110735
566,-89.478904,-40.650034000000005,12.512398,-0.437507,0.788708,1.515282
568,-226.565957,-72.938125,42.542153000000006,-0.43811700000000003,-0.061646000000000006,0.287602
570,-214.90806400000002,-46.936751,56.885633999999996,0.9118790000000001,0.011840999999999999,1.9999689999999999
572,-137.392233,-5.0049589999999995,2.929732,0.996353,0.06421,1.78262
574,-136.6598,34.729534,-7.751583,-0.725719,-0.180179,1.5445790000000001
576,-97.901884,-39.612421000000005,43.335622,-0.528817,-0.29456,1.297993
578,-59.266041,-46.631571,16.784924,0.842786,0.117067,1.725734
580,-52.307927,-24.170291,10.620279,-0.355352,0.039063,1.108782
582,-36.072328000000006,-14.709697,-1.8921189999999999,0.15295599999999998,0.004639,1.167254
584,-27.588312,-13.550010999999998,1.2207219999999999,0.05774,0.030762,1.155291
586,-15.869383,0.183108,1.037613,-0.011719,0.027832,1.100725
588,-13.122759,0.9155409999999999,1.159686,0.014159999999999999,0.022705,1.042374
590,-7.080186,-0.244144,1.586938,-0.00415,0.018677000000000003,1.0365149999999999
592,-4.760815,-1.70901,0.854505,-0.040284,0.01709,0.991226
594,-5.859464,-5.0049589999999995,0.244144,-0.084108,0.108766,1.068742
596,-12.878614,-7.507439,0.854505,-0.014649,0.006592,0.95668
598,-12.939651,-7.385367,0.9155409999999999,-0.0008550000000000001,0.029053,0.9830469999999999
600,-14.343481,-3.6621650000000003,-0.732433,0.0008550000000000001,-0.159304,0.8399790000000001
602,-13.733120000000001,-3.418021,1.70901,-0.013306,0.012573,1.0095370000000001
604,-12.390326,-3.723201,0.9155409999999999,-0.008667,0.023804,0.963516
606,-18.738079,-7.01915,0.48828900000000003,-0.014771000000000001,-0.008057,0.991714
608,-17.029068,-6.71397,-2.2583349999999998,0.018677000000000003,-0.21875300000000003,0.803723
610,-13.672084,-7.263294,0.427253,0.0043950000000000005,-0.032593000000000004,1.048722
612,-5.981537,-4.028382,0.549325,0.027222000000000003,-0.030274000000000002,1.036271
614,-4.394598,-2.197299,0.9155409999999999,0.017212,-0.01648,1.006851
616,-5.9205,-1.7700470000000001,1.09865,0.01648,0.031495,1.038956
618,-6.2867169999999994,-0.793469,2.014191,0.010376,0.020874,0.996597
620,-8.300908,-2.197299,1.7700470000000001,0.003662,-0.015503,0.9788969999999999
622,-9.765774,-2.319371,1.586938,0.006836,-0.011353,0.9897610000000001
624,-12.085144999999999,-2.2583349999999998,2.136263,0.000244,-0.026123,0.9555809999999999
626,-20.019837,-3.6621650000000003,2.380407,0.005982,-0.02417,0.9754790000000001
628,-27.466239,-1.8310830000000002,3.90631,0.014893,-0.035401,0.9876860000000001
630,-32.776379,-0.30518,5.61532,-0.018189,-0.044312,0.989883
632,-28.381781,-2.746624,3.6011290000000002,-0.005737,-0.0365,0.9851219999999999
634,-35.461967,-2.380407,1.70901,0.0063479999999999995,-0.019409,1.019547
636,-40.344854,-4.21149,0.122072,0.048585,-0.020263999999999997,1.005264
638,-47.364004,-0.6103609999999999,1.8921189999999999,-0.00061,-0.064454,1.143816
640,-36.316472,6.408789,3.356985,0.03772,-0.16211199999999998,0.8642709999999999
642,-60.608835,-8.056764,-12.756542,-0.10144199999999999,-0.080934,1.104143
644,-34.546426000000004,-1.40383,-15.014878,0.114626,-0.304448,1.114641
646,-40.71107,-0.061036,-7.751583,0.056397,-0.007812999999999999,1.000504
648,-106.32486499999999,3.418021,-18.005646,0.11511400000000001,0.43213599999999996,0.69276
650,-219.05851800000002,6.042573,-14.709697,-0.050538,-0.141848,0.989395
652,-389.288167,-17.578393,-27.649348,-0.07470800000000001,0.365728,1.617334
654,-599.435416,-72.51087199999999,15.197985999999998,-0.0037840000000000005,-0.271611,0.9903719999999999
656,-692.8206299999999,-98.146029,27.283131,-0.069215,-0.406744,0.717662
658,-763.1342030000001,-87.342641,150.881209,-0.9316549999999999,-1.013199,1.9999689999999999
660,66.83451600000001,-60.66987099999999,-12.939651,-0.220829,0.694469,1.9999689999999999
662,-65.247578,-57.557031,23.926146,-0.209842,0.572763,1.9999689999999999
664,200.869764,15.625238000000001,0.854505,-0.167483,0.479988,1.423117
666,183.840696,21.301595000000002,3.356985,-0.039063,0.080568,0.716442
668,211.245899,22.095064,-4.272526,0.046143,0.041627,0.291752
670,206.179904,5.0049589999999995,-6.958114,0.039918,-0.054810000000000005,0.613413
672,220.27924,-9.948882000000001,-12.207218,0.021363,0.005737,0.897597
674,238.956283,-1.647974,-19.34844,0.046754000000000004,-0.052613,1.0832680000000001
676,255.74120699999997,8.484016,-23.620966,0.157473,-0.09485,1.297139
678,276.06622400000003,32.288090000000004,-49.805446999999994,0.335698,-0.363775,1.435813
680,284.428168,49.439231,-65.430686,0.165164,-0.513069,1.28249
682,278.93492000000003,42.053864000000004,-61.585412,0.0177,-0.6423439999999999,1.263691
684,263.309682,34.973678,-47.73022,-0.077394,-0.625132,1.313497
686,245.304036,43.701839,-35.828183,-0.060913999999999996,-0.5516439999999999,1.4848860000000002
688,227.11528199999998,66.83451600000001,-27.222095,-0.015503,-0.5085529999999999,1.7186540000000001
690,223.39208100000002,70.49668100000001,-18.371862,0.10779000000000001,-0.480354,1.9222709999999998
692,228.213931,64.08789200000001,-21.118485999999997,0.318853,-0.511849,1.9999689999999999
694,233.27992700000001,65.36965,-39.00206,0.403449,-0.646738,1.972564
696,227.847715,63.721675,-59.021896999999996,0.258183,-0.873915,1.5880370000000001
698,183.65758799999998,76.539254,-75.623713,0.46179899999999996,-1.480858,1.542992
700,139.46746000000002,156.80170900000002,-100.892653,0.8446170000000001,-2.0000310000000003,1.907866
702,204.40985700000002,231.08262799999997,-93.507286,0.373053,-2.0000310000000003,-1.447288
704,-24.536507,-64.08789200000001,-5.065995,0.124392,-2.0000310000000003,-2.0000310000000003
706,-248.844129,-284.855421,-1.953155,1.060929,-0.7679560000000001,1.9999689999999999
708,-68.726635,-152.10193,-26.855878999999998,-0.843641,0.870741,1.9999689999999999
710,-131.410697,-48.218509000000005,30.823224,-1.116228,0.050416,-1.621241
712,-364.019226,-79.59105799999999,80.445563,0.895277,-0.199954,1.9999689999999999
714,-139.772641,11.902037,-3.418021,1.128923,-0.09765800000000001,1.9999689999999999
716,-175.600824,-22.583351999999998,28.564889,-1.37673,-1.199969,1.9999689999999999
718,-22.583351999999998,-48.950942,25.757229000000002,1.6579840000000001,0.6167090000000001,1.9999689999999999
720,-32.410163,37.781338,-1.8310830000000002,-0.9636379999999999,-0.183352,0.894911
722,-19.34844,-12.939651,7.568475,0.321904,0.24780700000000003,1.099626
724,-27.649348,-9.643702000000001,5.065995,-0.27515100000000003,-0.08142200000000001,1.069352
726,-16.052491,-7.9957270000000005,4.8218510000000006,0.060426,0.061402,1.064958
728,-17.700464999999998,-3.173877,6.469825,-0.034668,0.03125,1.023209
730,-20.996414,-1.2207219999999999,5.9205,-0.026978,0.041505,1.030289
732,-16.601816,-1.40383,4.943923000000001,-0.053956,-0.0074459999999999995,1.016617
734,-12.817578,-5.9205,4.21149,-0.122438,-0.011597,0.968887
736,-8.606088,-13.427939000000002,2.50248,-0.066041,0.011475,1.003311
738,-5.981537,-13.916228,0.671397,-0.053223,0.009522,1.014664
740,-6.897078,-11.779964999999999,0.244144,-0.030762,-0.013306,1.048478
742,-4.272526,-7.812619000000001,0.366217,-0.018067,-0.011109,1.05922
744,-0.061036,-2.990768,0.732433,-0.036011,-0.008545,1.008804
746,0.6103609999999999,-4.150454,0.671397,-0.053223,0.0023190000000000003,0.9796290000000001
748,-3.967346,-9.582666,0.122072,-0.045899,0.002075,0.9674219999999999
750,-2.563516,-12.268253999999999,-0.30518,-0.050294,-0.012818000000000001,0.989883
752,4.5166699999999995,-12.268253999999999,-0.6103609999999999,-0.079225,-0.016968,0.859266
754,-2.990768,-19.165332,0.122072,-0.046021,0.036255,1.0127110000000001
756,-5.859464,-15.991454999999998,-4.089418,0.092287,-0.30945300000000003,0.6591899999999999
758,-5.554284,-16.235599,0.549325,-0.008667,0.0,0.9305559999999999
760,-7.568475,-15.197985999999998,1.2207219999999999,0.002564,-0.00647,1.053971
762,-6.225681,-12.817578,1.2207219999999999,0.025025,0.018921,1.02504
764,-6.103609,-9.887846000000001,-0.427253,0.00647,0.025635,1.1574879999999999
766,-11.108568,-9.155413000000001,1.2207219999999999,0.025147,-0.012818000000000001,0.972427
768,-16.174563,-8.911269,2.136263,0.009888,-0.00647,0.961563
770,-22.1561,-7.934691,3.90631,0.021363,-0.020630000000000003,0.9625389999999999
772,-30.945296000000003,-8.606088,5.432212,0.006958,-0.026733999999999997,0.981949
774,-31.311513,-7.385367,5.371176,0.036378,-0.056152999999999995,1.0392
776,-26.67277,-3.6011290000000002,4.760815,0.03003,-0.053223,1.007218
778,-29.358358000000003,-4.577707,5.432212,0.00647,-0.043213999999999995,1.025406
780,-31.189441,-7.324331,2.50248,0.003906,0.0,0.9592430000000001
782,-49.866484,-6.225681,0.30518,-0.049683,-0.016724,0.954116
784,-57.984283,-5.065995,2.2583349999999998,-0.009155,-0.10547000000000001,1.01796
786,-49.256122999999995,2.075227,2.685588,-0.11084200000000001,-0.206546,1.099016
788,-42.359045,5.3101400000000005,0.427253,-0.154055,0.12146199999999999,1.442649
790,-56.092164000000004,-7.385367,-17.761501000000003,0.096559,-0.252811,1.0428629999999999
792,-54.322118,-2.563516,-7.9957270000000005,0.036133,-0.018067,0.9636379999999999
794,-133.30281499999998,3.723201,-22.46128,0.130983,0.245731,0.867079
796,-194.583047,-14.587625,-11.047532,-0.2804,0.081544,0.8890520000000001
798,-475.22697800000003,-37.720302000000004,-4.028382,-0.11071900000000001,0.013428,1.27541
800,-643.6865799999999,-152.16296599999998,45.838102,0.054932,-0.536385,1.002457
802,-740.794995,-192.446784,68.84870699999999,0.141726,-0.593515,0.8608530000000001
804,-482.06302,-146.36453799999998,99.488823,-0.702647,-0.27478400000000003,1.9999689999999999
806,92.59174499999999,-54.261081999999995,-32.166018,0.217777,1.458518,1.9999689999999999
808,54.383154000000005,-9.704738,-13.550010999999998,-0.370001,0.46656000000000003,1.9999689999999999
810,241.763943,37.170977,-10.376135000000001,-0.48926499999999995,0.20325,0.701183
812,210.635538,29.541465999999996,20.935378,-0.408576,-0.12573399999999998,0.463142
814,217.1664,27.222095,36.133364,-0.16199000000000002,-0.077394,0.55494
816,232.79163799999998,25.085832,34.302281,0.093385,-0.009155,0.957168
818,255.191882,25.940337,16.662851999999997,0.252934,0.011353,1.155291
820,278.995956,35.828183,-9.277485,0.339483,-0.070314,1.061418
822,279.606317,44.861523999999996,-37.232013,0.5573819999999999,-0.192996,1.350484
824,292.97322,51.758602,-62.806134,0.340459,-0.49695600000000006,1.43093
826,293.095293,41.870756,-62.623026,0.149294,-0.7113149999999999,1.386496
828,279.179065,42.1149,-52.307927,0.06958099999999999,-0.76405,1.343404
830,259.708553,37.537194,-35.584039000000004,-0.117556,-0.729137,1.339742
832,234.74479300000002,43.51873,-15.869383,-0.125368,-0.602426,1.414939
834,212.649729,51.392386,-0.976577,-0.063233,-0.515755,1.718898
836,210.33035800000002,41.748684000000004,4.699779,0.054322,-0.54725,1.9999689999999999
838,227.786679,53.589684999999996,-5.371176,0.189334,-0.685679,1.9999689999999999
840,235.47722599999997,89.478904,-21.05745,0.249027,-0.967666,1.730373
842,197.878996,95.94873,-27.466239,0.500618,-1.568139,1.408835
844,141.359579,144.655528,-51.758602,1.048844,-2.0000310000000003,1.6438240000000002
846,183.413443,203.555352,-79.530022,0.670787,-2.0000310000000003,-1.396506
848,-77.821012,-80.079347,-23.132676999999997,0.23486700000000002,-2.0000310000000003,-2.0000310000000003
850,-191.531243,-222.110323,-12.939651,0.5142899999999999,-0.063722,1.9999689999999999
852,-163.454643,-98.939498,-9.399557000000001,-1.261982,0.655039,1.9999689999999999
854,-196.292058,-77.759976,44.495308,-0.961929,-0.42810699999999996,-0.113283
856,-264.652476,-63.660639,81.177996,1.6509040000000001,0.036744,1.9999689999999999
858,-109.98703,18.677042999999998,-16.968032,1.023087,0.213504,1.360739
860,-161.989776,-11.108568,25.452049,-2.0000310000000003,-1.026139,1.7882349999999998
862,-53.71175699999999,-98.146029,22.034028,1.9999689999999999,0.43213599999999996,1.9999689999999999
864,-25.207904,9.460594,1.159686,-1.1583430000000001,-0.099977,0.8955209999999999
866,-21.545739,-22.766461,-4.455634,0.457038,0.151614,1.328511
868,-13.366903,-20.996414,-0.244144,-0.050660000000000004,0.04065,1.022599
870,-17.334249,-6.775005999999999,1.342794,-0.052247,-0.0177,1.061295
872,-15.13695,-2.2583349999999998,0.793469,0.083619,0.075196,0.942275
874,-17.029068,-0.732433,2.380407,-0.003906,0.024413999999999998,1.040665
876,-19.65362,2.50248,3.723201,-0.014771000000000001,0.001465,1.026139
878,-14.0383,-0.061036,3.784237,-0.004639,0.051637,0.974258
880,-12.817578,-2.075227,2.868696,-0.017334,0.008057,1.0204010000000001
882,-13.244831,-5.859464,2.136263,-0.026733999999999997,0.004028,0.960464
884,-13.794156,-9.094377,-0.427253,-0.06347799999999999,-0.05774,0.970474
886,-13.916228,-8.1178,2.50248,-0.007324,-0.005005,1.047135
888,-12.695506,-6.897078,2.075227,0.005493,0.0,0.9942780000000001
890,-15.13695,-7.812619000000001,2.014191,-0.010620000000000001,-0.005982,1.005509
892,-13.794156,-8.972305,0.976577,0.0015869999999999999,-0.030518,1.004532
894,-11.841001,-8.667124000000001,-2.624552,-0.004517,-0.21252800000000002,0.775891
896,-14.892805,-12.085144999999999,0.0,0.009888,-0.022216999999999997,1.011124
898,-15.869383,-10.925460000000001,0.122072,0.035523,-0.04358,1.029557
900,-13.733120000000001,-7.812619000000001,0.671397,0.04773,-0.049073,1.057755
902,-9.52163,-4.333562000000001,1.525902,0.026001,-0.060548000000000005,0.985367
904,-11.963073,-3.967346,2.075227,0.013428,-0.012329000000000001,0.985245
906,-17.395285,-5.493248,1.525902,0.009644,-0.032227,0.9674219999999999
908,-22.522316,-7.385367,0.244144,0.011109,-0.04419,0.972305
910,-23.682002,-6.897078,0.48828900000000003,0.031006,-0.053712,1.00148
912,-29.053178000000003,-3.967346,3.1128400000000003,0.049194999999999996,-0.077638,0.983902
914,-26.67277,-0.793469,5.554284,0.019165,-0.07067999999999999,1.008682
916,-29.846646999999997,-0.854505,4.943923000000001,-0.005982,0.025635,0.8966200000000001
918,-44.739452,-1.70901,1.464866,0.003418,-0.060792,1.038956
920,-53.589684999999996,-1.464866,-1.2207219999999999,0.018189,-0.09094400000000001,1.002945
922,-54.261081999999995,-0.793469,-4.028382,-0.025269,-0.105104,1.054459
924,-46.692607,0.9155409999999999,-19.775692000000003,0.045167,-0.187869,1.0234530000000002
926,-47.302968,-1.464866,-0.976577,0.10071000000000001,-0.21997399999999998,1.117205
928,-46.387427,3.356985,-7.568475,0.03125,0.222904,0.933608
930,-142.763409,13.916228,-21.423667000000002,0.014405000000000001,0.437751,0.793347
932,-238.040742,-22.583351999999998,-3.173877,-0.029541,0.834241,0.796277
934,-554.757,-83.61944,9.82681,-0.7684439999999999,-0.279423,1.1777520000000001
936,-662.24155,-169.314107,48.096437,0.232792,-0.37464000000000003,1.137835
938,-790.2342259999999,-175.173571,66.346227,0.853773,-1.8254669999999997,1.7988560000000002
940,-172.182803,-108.5832,-23.804074,0.006958,-0.386358,1.9999689999999999
942,78.00412,-19.226368,-67.322805,-0.084108,1.259541,1.9999689999999999
944,156.130312,11.963073,-46.631571,-0.48963100000000004,0.121706,1.9999689999999999
946,239.566644,43.396658,-25.940337,-0.510994,0.052979,0.437507
948,214.9691,46.265353999999995,10.193027,-0.468025,-0.20019800000000001,0.296635
950,203.555352,25.635157,37.29305,-0.21008600000000002,-0.120119,0.558236
952,223.331044,11.718929,38.757915999999994,0.187869,0.096193,1.164569
954,257.755398,34.485389,9.948882000000001,0.391974,0.022583000000000002,1.256489
956,276.737621,56.885633999999996,-23.498894,0.519051,-0.068971,1.2336610000000001
958,286.015106,68.604562,-58.167391,0.533822,-0.32507800000000003,1.360494
960,291.752499,64.08789200000001,-79.59105799999999,0.343023,-0.568856,1.333639
962,283.939879,58.3505,-82.21561,0.098024,-0.746715,1.288838
964,264.89662000000004,52.307927,-68.055238,-0.116335,-0.734264,1.240742
966,242.862593,52.857252,-50.110628000000005,-0.163455,-0.593271,1.3629360000000001
968,217.044327,87.586786,-39.063096,0.093874,-0.46008999999999994,1.6638439999999999
970,205.14229,105.53139499999999,-35.034714,0.252689,-0.521614,1.9999689999999999
972,224.55176600000001,96.43701800000001,-33.325703999999995,0.422004,-0.648569,1.9999689999999999
974,231.631952,91.065843,-33.508812,0.322637,-0.921035,1.817777
976,214.297704,68.48249,-29.297321999999998,0.14416700000000002,-1.2882280000000002,1.451194
978,171.26726200000002,72.205692,-34.119172999999996,0.45618400000000003,-2.0000310000000003,1.495384
980,142.64133700000002,179.812314,-51.209277,0.536629,-2.0000310000000003,1.0526280000000001
982,104.188602,182.92515500000002,-7.446403,0.184085,-2.0000310000000003,-1.517967
984,-143.73998600000002,-98.329137,59.20500500000001,0.35877,-2.0000310000000003,-2.0000310000000003
986,-155.39787900000002,-166.9337,34.546426000000004,0.372808,0.46424,1.9999689999999999
988,-212.466621,-166.99473600000002,49.378195,-0.7736930000000001,0.339239,0.606577
990,-277.042802,-133.241779,87.037461,0.764416,-0.41651000000000005,0.335943
992,-261.47859900000003,-80.140383,52.552071,1.728054,-0.5943689999999999,1.9999689999999999
994,-149.172198,-61.829556999999994,33.752956,-1.152239,-0.30737800000000004,1.9999689999999999
996,1.342794,-56.458381,7.141222,1.4741440000000001,0.224369,1.698634
998,-78.248264,-19.104295,9.399557000000001,-0.618173,-0.258549,1.169329
1000,-15.197985999999998,-25.574120999999998,-0.854505,0.22937399999999997,0.06958099999999999,1.051408
1002,-13.366903,-27.283131,0.854505,0.107912,-0.056764,1.1783629999999998
1004,-11.352712,-16.906996,0.854505,0.034913,-0.015991,1.001846
1006,-3.784237,-11.352712,1.342794,0.092287,0.078981,0.984634
1008,-8.545052,-4.150454,3.723201,0.05359,-0.00293,0.977066
1010,-15.381094000000001,-3.051804,4.272526,0.03772,0.009276999999999999,1.013931
1012,-9.582666,-5.432212,2.50248,0.022461000000000002,0.015503,1.003555
1014,-7.568475,-8.606088,0.671397,0.029175,-0.024413999999999998,0.9873200000000001
1016,-6.225681,-8.300908,0.48828900000000003,0.06384400000000001,-0.012695999999999999,1.015152
1018,-8.484016,-4.699779,1.342794,0.075074,0.000732,1.034195
1020,-5.0049589999999995,-1.953155,0.854505,0.06713999999999999,-0.049561,0.9436180000000001
1022,-7.812619000000001,-2.624552,0.671397,0.055787,0.006714,0.973892
1024,-12.207218,-4.089418,0.183108,0.055787,-0.05359,0.976211
1026,-15.808347,-5.432212,-0.671397,0.010498,0.048096,1.331197
1028,-10.864424,-3.295949,0.793469,-0.014282,-0.010742,0.94081
1030,-11.779964999999999,-4.882887,-0.122072,0.039550999999999996,-0.030762,0.9781639999999999
1032,-15.014878,-6.2867169999999994,-0.183108,0.054565999999999996,-0.032349,0.9792629999999999
1034,-15.381094000000001,-5.249104,0.183108,0.082887,-0.035523,0.989395
1036,-21.118485999999997,-3.90631,2.014191,0.065064,-0.013916,0.983291
1038,-25.207904,-5.249104,2.685588,0.080812,-0.049317,1.070329
1040,-26.428626,0.122072,1.8310830000000002,0.076173,-0.054688,1.0247959999999998
1042,-27.832456,0.9155409999999999,1.342794,0.07483,-0.05139199999999999,0.9875639999999999
1044,-30.334936,1.342794,0.671397,0.078737,-0.066041,1.013443
1046,-34.302281,3.967346,2.014191,0.10009900000000001,-0.081788,1.014176
1048,-37.170977,9.338521,7.507439,0.23450100000000001,0.263798,1.151995
1050,-48.584726,9.765774,7.385367,0.071656,-0.16284400000000002,0.9205459999999999
1052,-51.697565999999995,10.009917999999999,3.90631,0.057496000000000005,-0.152712,1.093156
1054,-31.494621000000002,5.981537,-6.2867169999999994,-0.019409,-0.09704700000000001,0.9640040000000001
1056,-33.081559000000006,3.295949,-24.048219,0.009276999999999999,-0.144778,0.9865870000000001
1058,-25.513085,-0.976577,-12.390326,0.200443,-0.206058,1.07277
1060,-13.183795000000002,7.446403,-1.037613,0.097902,0.046265,1.0037989999999999
1062,-102.601663,25.146867999999998,-18.432898,0.029175,0.42236999999999997,0.751354
1064,-211.123827,-7.01915,-11.047532,-0.398688,-0.1449,0.541756
1066,-353.94827200000003,-48.340581,-35.339895,-0.243412,0.223148,1.512718
1068,-636.0570690000001,-203.494316,43.335622,0.142458,-0.27563899999999997,0.925673
1070,-729.198138,-194.399939,78.98069699999999,0.352056,-0.438605,0.975723
1072,-563.302052,-92.347601,152.712291,0.048341,-0.547616,1.9999689999999999
1074,155.27580700000001,28.992141999999998,-67.383841,0.059083000000000004,1.119646,1.9999689999999999
1076,30.212863,-22.400244,-13.733120000000001,-0.357183,0.45728199999999997,1.9999689999999999
1078,225.28419900000003,35.217822999999996,-12.756542,-0.329961,0.245121,0.6041350000000001
1080,155.947204,46.936751,10.498207,-0.278569,-0.017823,0.369757
1082,190.737774,32.471199,20.447089000000002,0.0094,0.11609100000000001,0.450813
1084,181.27718000000002,26.794842,11.596857,0.217533,0.11499200000000001,0.928481
1086,218.997482,27.588312,-5.432212,0.191897,0.067872,1.1692069999999999
1088,249.393454,28.625925,-15.320058,0.164797,-0.050660000000000004,1.089006
1090,260.746166,40.772107,-20.386053,0.152102,-0.180911,1.141375
1092,265.506981,41.382467,-24.96376,0.23108299999999998,-0.34521999999999997,1.3464559999999999
1094,268.375677,46.021209999999996,-35.278859000000004,0.288579,-0.503426,1.604273
1096,272.64820299999997,58.533607999999994,-45.838102,0.20923200000000003,-0.711681,1.612818
1098,270.572976,61.280232,-43.884947,0.021118,-0.834852,1.429953
1100,246.158541,51.758602,-29.17525,-0.069825,-0.747082,1.290425
1102,216.55603900000003,55.054551000000004,-18.860151000000002,0.028443,-0.592172,1.453635
1104,198.672465,61.036088,-14.160372,0.10693499999999999,-0.558602,1.7275650000000002
1106,203.006027,49.744411,-15.564201999999998,0.216556,-0.552499,1.8301060000000002
1108,206.851301,51.148241,-27.832456,0.264042,-0.619638,1.702174
1110,194.094759,61.951629000000004,-42.847333,0.205936,-0.805554,1.3778290000000002
1112,157.351034,81.666285,-53.101395999999994,0.346441,-1.2566110000000001,1.190814
1114,112.306401,119.08140700000001,-63.599603,0.527596,-2.0000310000000003,1.233783
1116,116.39581899999999,150.026703,-47.302968,0.303838,-2.0000310000000003,-0.120974
1118,6.591897,24.048219,7.385367,0.167239,-1.761868,-0.7860229999999999
1120,-173.098344,-168.15442099999999,36.865797,0.5949800000000001,-1.562646,-1.0946209999999998
1122,-119.203479,-124.269474,14.221407999999998,-0.004883,0.787732,1.9999689999999999
1124,-227.481498,-94.728008,35.88922,-0.033082,0.086793,0.395636
1126,-224.55176600000001,-66.346227,32.104982,0.572519,-0.10144199999999999,1.301778
1128,-208.194095,-27.222095,7.01915,0.5728850000000001,-0.359625,1.9999689999999999
1130,-121.64492299999999,29.663539,22.827497,-0.917128,0.153567,1.9999689999999999
1132,-10.009917999999999,-42.542153000000006,28.198672,0.24194699999999997,-0.042969,1.2133969999999998
1134,-19.836728,-2.563516,-0.854505,0.161135,0.025025,1.329854
1136,-41.992828,-32.349126,6.591897,0.081544,0.064698,0.977066
1138,-34.241245,-8.728161,-1.037613,-0.048585,-0.036622,1.081193
1140,-30.579079999999998,-10.009917999999999,0.427253,0.083375,-0.003418,1.092424
1142,-22.400244,-4.150454,2.4414439999999997,-0.033448,0.003906,1.069108
1144,-19.470512,-2.624552,2.2583349999999998,-0.010620000000000001,0.010742,1.007706
1146,-15.13695,-2.136263,2.014191,0.021973,0.0058590000000000005,1.0285799999999998
1148,-14.770732999999998,-1.586938,1.647974,-0.0365,-0.005371,1.017594
1150,-15.991454999999998,-6.591897,1.342794,-0.043213999999999995,0.004028,0.988785
1152,-15.869383,-11.108568,0.30518,-0.021729,-0.011719,0.969619
1154,-14.221407999999998,-12.756542,-0.549325,-0.009888,-0.019287000000000002,0.999527
1156,-10.009917999999999,-7.934691,-2.685588,0.160525,-0.075685,0.9198139999999999
1158,-12.207218,-1.8921189999999999,1.586938,0.022705,-0.005493,0.9922030000000001
1160,-13.366903,3.173877,2.990768,0.014038,-0.006592,1.001724
1162,-13.794156,5.61532,3.784237,-0.0058590000000000005,-0.020508000000000002,0.9980620000000001
1164,-15.259022,4.394598,3.784237,-0.021118,-0.041505,1.015885
1166,-12.939651,0.732433,2.50248,-0.03125,-0.026001,0.979873
1168,-11.047532,-1.342794,1.525902,-0.014527000000000002,-0.044312,0.9959870000000001
1170,-11.779964999999999,-2.685588,0.854505,-0.155032,0.087648,1.33901
1172,-9.643702000000001,-3.723201,0.854505,0.008545,-0.096315,0.964981
1174,-2.4414439999999997,-2.014191,1.037613,-0.019287000000000002,-0.041627,0.984634
1176,-6.347753,-4.943923000000001,1.40383,-0.041993,-0.031861,0.961807
1178,-11.291675999999999,-8.850233,0.671397,-0.020142,-0.033692,0.9671780000000001
1180,-17.456321,-10.864424,0.122072,-0.00061,-0.026368,0.9397120000000001
1182,-30.029754999999998,-11.169604,0.9155409999999999,0.013062,-0.046754000000000004,1.007095
1184,-30.029754999999998,-6.652933999999999,2.50248,0.043458,-0.097902,1.0196690000000002
1186,-25.391012,-1.647974,5.065995,0.058717,-0.099245,1.011002
1188,-25.26894,2.2583349999999998,7.568475,-0.029786,-0.07531900000000001,0.993179
1190,-30.151827,-3.173877,4.699779,0.001709,-0.028443,1.0008700000000001
1192,-34.912642,-7.9957270000000005,-0.549325,-0.012206999999999999,-0.07800399999999999,0.9948879999999999
1194,-35.156786,-6.042573,-0.976577,0.052003,-0.099733,0.917494
1196,-48.096437,-6.225681,-4.455634,-0.025635,-0.10803399999999999,0.9952540000000001
1198,-45.532921,-10.559242999999999,-20.080873,0.047486,-0.23621,1.012222
1200,-44.251164,-0.183108,-3.295949,0.019043,-0.21997399999999998,1.0632489999999999
1202,-44.678416,-4.760815,-6.225681,0.062501,-0.042237000000000004,0.9720610000000001
1204,-100.282292,-2.624552,-16.540779999999998,0.083131,0.286137,0.9471579999999999
1206,-171.938659,-5.127031,-28.992141999999998,-0.005737,0.133669,0.73048
1208,-380.865187,-25.635157,-54.688334,0.021241,0.660533,1.7834740000000002
1210,-662.485695,-145.143816,19.714656,-0.32898499999999997,-0.374273,0.7683220000000001
1212,-754.100862,-210.51346600000002,67.07866,0.055542999999999995,-0.461067,0.676646
1214,-630.0755320000001,-193.057145,175.539788,-0.502205,-0.681773,1.9999689999999999
1216,181.521324,-72.938125,-18.860151000000002,0.336675,1.657862,1.9999689999999999
1218,32.043946000000005,10.742351,-30.212863,-0.300908,0.35816,1.9999689999999999
1220,219.79095099999998,49.744411,-28.137635999999997,-0.41809700000000005,0.18945599999999999,0.316289
1222,148.561837,13.183795000000002,3.6011290000000002,-0.316289,-0.0058590000000000005,0.266239
1224,172.304875,13.061722999999999,5.7984279999999995,-0.053346000000000005,0.155886,0.428962
1226,178.896773,27.222095,-8.178836,0.043946,0.13904,0.8171510000000001
1228,202.761883,33.38674,-22.1561,0.012085,0.08520599999999999,1.0595860000000001
1230,235.904479,33.69192,-25.207904,-0.033204000000000004,-0.015869,1.3550010000000001
1232,268.925002,43.030442,-28.137635999999997,0.173342,-0.139284,1.500267
1234,292.17975099999995,70.252537,-42.664225,0.23303600000000002,-0.37171,1.40444
1236,293.400473,78.736553,-48.82887,0.21386999999999998,-0.547616,1.3266799999999999
1238,286.564431,76.112001,-44.190127000000004,0.086061,-0.678599,1.240009
1240,271.91577,61.707485,-29.48043,-0.050538,-0.638804,1.250019
1242,249.75967000000003,60.364691,-15.564201999999998,0.039550999999999996,-0.481209,1.496361
1244,230.899519,73.609522,-16.906996,0.286381,-0.42945,1.899931
1246,229.73983399999997,70.98496999999999,-26.916915000000003,0.30225100000000005,-0.589975,1.9999689999999999
1248,238.895247,67.07866,-34.607462,0.222538,-0.804211,1.9999689999999999
1250,238.34592200000003,62.439918000000006,-34.424353,0.072877,-1.096452,1.8852830000000003
1252,218.57022999999998,68.909743,-30.640116,-0.043091000000000004,-1.476341,1.3705040000000002
1254,148.561837,113.16090600000001,-22.400244,0.411017,-2.0000310000000003,1.491234
1256,136.35461999999998,202.82291899999998,-19.836728,0.597543,-2.0000310000000003,0.8454719999999999
1258,95.033188,117.18928799999999,16.113526999999998,0.394049,-2.0000310000000003,-1.8048369999999998
1260,-146.303502,-151.369497,41.138323,0.77882,-2.0000310000000003,-2.0000310000000003
1262,-152.956436,-175.600824,9.82681,0.095216,0.29431599999999997,1.9999689999999999
1264,-202.456703,-113.46608700000002,30.701152,-0.826673,0.23352399999999998,0.601938
1266,-265.751125,-119.81383999999998,68.116274,0.078614,-0.322759,0.870741
1268,-239.261463,-74.64713499999999,47.913329,1.6111090000000001,-0.339239,1.9999689999999999
1270,-86.73228,0.9155409999999999,-3.234913,-0.239384,0.058106,1.9999689999999999
1272,-32.959487,-52.73518000000001,15.686275,0.089113,-0.259892,1.728176
1274,-50.049592,0.793469,8.239872,0.109499,0.11194000000000001,0.97377
1276,-34.668498,-43.274586,7.263294,-0.08069,-0.001099,1.160174
1278,-41.504540000000006,-30.029754999999998,0.061036,0.022827,0.029664,1.155535
1280,-17.517357,-33.936065,-3.234913,0.083375,0.088624,0.977554
1282,-24.96376,-21.118485999999997,1.8310830000000002,0.12365899999999999,-0.047242,1.092058
1284,-18.432898,-10.620279,3.479057,0.0636,0.052125,0.9743799999999999
1286,-20.019837,-8.972305,4.8218510000000006,0.06994700000000001,-0.025635,1.089006
1288,-12.878614,-8.911269,2.685588,0.027587999999999998,-0.0023190000000000003,1.002945
1290,-8.42298,-11.352712,0.30518,0.025879000000000003,-0.012451,0.976211
1292,-7.934691,-9.765774,0.427253,0.094484,0.02295,1.065812
1294,-8.239872,-4.8218510000000006,1.342794,0.064698,0.008789,1.022477
1296,-8.728161,-2.929732,1.464866,0.068482,-0.055787,0.978042
1298,-8.1178,-3.356985,0.793469,0.036622,0.00415,1.0121
1300,-10.009917999999999,-4.455634,-0.183108,0.038209,0.005371,1.012345
1302,-12.024109,-4.455634,-0.6103609999999999,0.068727,-0.012085,0.977432
1304,-13.000687,-2.685588,-0.30518,0.073854,-0.025391,0.996719
1306,-13.061722999999999,-2.624552,0.0,0.052125,-0.033326,0.9837799999999999
1308,-14.831769,-3.295949,0.122072,0.055542999999999995,-0.039185000000000005,1.006119
1310,-14.404517000000002,-3.845274,0.732433,0.062135,-0.052735000000000004,0.985367
1312,-14.587625,-4.882887,1.586938,0.060303999999999996,-0.047608,0.9871979999999999
1314,-15.686275,-4.028382,2.014191,0.086549,-0.012695999999999999,1.04152
1316,-19.104295,-0.061036,1.647974,0.077638,-0.061402,1.0112459999999999
1318,-18.371862,2.014191,1.159686,0.055909,-0.05005,0.985977
1320,-21.667811,0.793469,0.30518,0.047363999999999996,-0.071534,0.914809
1322,-27.222095,1.7700470000000001,0.976577,0.095216,-0.080812,1.042252
1324,-26.184482,7.507439,6.164645,0.077394,-0.11120799999999999,1.046403
1326,-22.949569,6.530861,5.432212,0.13952799999999999,0.0271,0.944961
1328,-46.021209999999996,7.2022580000000005,0.549325,0.07776,-0.100832,1.009415
1330,-49.866484,7.446403,-3.295949,0.069093,-0.082277,1.025284
1332,-42.175937,8.972305,-6.71397,-0.056275,-0.11413699999999999,0.9707180000000001
1334,-36.682689,2.80766,-15.747310999999998,0.07434199999999999,-0.293095,0.9521629999999999
1336,-25.879301,3.295949,-5.432212,0.17016900000000001,-0.18616,1.07631
1338,-42.053864000000004,15.259022,0.0,0.080323,0.10315099999999999,0.96791
1340,-115.968566,30.640116,-15.930419,-0.009276999999999999,0.45020200000000005,0.7955439999999999
1342,-217.83779700000002,-5.0049589999999995,0.793469,-0.271366,0.29944299999999996,0.8958879999999999
1344,-460.761425,-84.779126,-5.9205,-0.5202720000000001,0.02002,1.239033
1346,-692.8206299999999,-210.69657400000003,62.195772999999996,0.17810299999999998,-0.328252,0.8913709999999999
1348,-789.318685,-177.431907,86.30502800000001,0.533211,-1.3753870000000001,1.2174260000000001
1350,-234.561685,-82.398718,55.298694999999995,-0.298222,-0.392706,1.9999689999999999
1352,161.745632,43.21355,-63.050278000000006,-0.100587,1.107561,1.9999689999999999
1354,55.298694999999995,-9.948882000000001,-0.9155409999999999,-0.468635,0.175174,1.879545
1356,225.040055,38.025483,8.850233,-0.302983,0.179324,0.28381799999999996
1358,148.928054,42.420081,30.518044,-0.11767799999999999,-0.049194999999999996,0.29126399999999997
1360,164.7364,28.0766,29.297321999999998,0.172244,0.181765,0.572152
1362,189.211872,-7.141222,10.742351,0.36463,0.28870100000000004,1.260029
1364,241.21461800000003,3.6011290000000002,-26.123445,0.405402,0.248417,1.482444
1366,283.634699,29.236286,-58.411536,0.289921,-0.039307,1.250996
1368,291.56939,43.457694000000004,-77.57686700000001,0.157595,-0.415778,1.085832
1370,289.677272,40.039673,-77.02754300000001,0.10693499999999999,-0.469001,1.218769
1372,280.704967,41.260395,-79.77416600000001,0.20764499999999997,-0.600351,1.338277
1374,259.647517,64.209964,-85.145342,0.109133,-0.805554,1.182879
1376,222.537575,71.839475,-77.210651,-0.05712999999999999,-0.862074,0.912367
1378,162.478065,75.867857,-55.298694999999995,0.071046,-0.573983,1.6920419999999998
1380,184.08483999999999,78.370336,-49.683375,0.363043,-0.594491,1.9999689999999999
1382,238.406958,102.540627,-59.327077,0.422858,-0.662486,1.9317919999999997
1384,238.83421099999998,97.474632,-54.322118,0.31506799999999996,-0.7682,1.438743
1386,214.297704,71.412222,-43.030442,0.26514099999999996,-0.8012819999999999,1.402731
1388,197.207599,65.857939,-37.476158,0.169558,-1.071916,1.450217
1390,172.182803,75.31853199999999,-16.84596,-0.089357,-1.684352,1.077531
1392,120.729381,80.933852,15.747310999999998,0.285893,-2.0000310000000003,0.771008
1394,72.69398000000001,93.629358,26.184482,0.658824,-2.0000310000000003,-0.38721300000000003
1396,-47.608148,-13.427939000000002,55.298694999999995,0.473884,-2.0000310000000003,-2.0000310000000003
1398,-145.754177,-128.480964,26.123445,0.7309680000000001,0.126101,1.9999689999999999
1400,-131.227588,-73.670558,8.606088,-0.755138,0.781872,0.710216
1402,-272.037842,-82.03250200000001,58.411536,-0.191653,-0.46338599999999996,0.664439
1404,-204.53193000000002,-14.465553,28.564889,1.373312,0.069703,1.9999689999999999
1406,-146.974899,69.642176,-7.446403,-0.405402,-0.147097,1.8161900000000002
1408,-19.714656,-41.199359,30.029754999999998,-0.346197,-0.357427,1.421775
1410,-61.829556999999994,-27.344167,21.545739,0.7603880000000001,0.078859,1.602686
1412,-26.367590000000003,-30.884259999999998,14.282444,-0.389288,0.030762,0.8567030000000001
1414,-23.437858,-30.640116,1.159686,0.066163,0.081178,1.070085
1416,-23.926146,-33.997101,2.563516,0.037354000000000005,0.046021,1.120623
1418,-21.789883,-16.418708,3.356985,0.0021969999999999997,0.079591,1.016129
1420,-22.705425,-8.667124000000001,3.418021,-0.0063479999999999995,0.049928,1.052873
1422,-23.559929999999998,-7.385367,3.234913,0.042481,0.015137000000000001,1.048234
1424,-17.395285,-5.065995,2.380407,0.000977,0.008423,1.0208899999999999
1426,-15.503166,-5.981537,2.014191,-0.0448,-0.002564,1.001846
1428,-14.160372,-8.728161,1.09865,-0.041138,0.022583000000000002,0.9636379999999999
1430,-10.986496,-12.207218,-0.793469,-0.008545,-0.006714,0.998917
1432,-12.451362,-14.282444,-0.30518,-0.018677000000000003,0.001831,1.00441
1434,-12.878614,-11.474784,-2.868696,0.078614,-0.312627,0.668956
1436,-11.413748,-10.131991000000001,2.197299,0.003906,0.004517,1.021622
1438,-10.620279,-6.469825,2.014191,0.0094,0.010254000000000001,1.007218
1440,-13.550010999999998,-5.371176,2.014191,0.012451,-0.017945,1.011978
1442,-11.902037,-6.958114,1.8921189999999999,-0.01355,-0.013793999999999999,0.985611
1444,-6.591897,-11.108568,0.976577,0.050904000000000005,0.045777,0.917617
1446,-5.3101400000000005,-9.704738,0.244144,0.032837,-0.009888,1.0526280000000001
1448,-3.967346,-7.141222,0.183108,0.031983,-0.061646000000000006,0.9622950000000001
1450,-3.967346,-4.943923000000001,1.464866,0.026246,0.025635,1.025406
1452,-6.103609,-4.333562000000001,2.014191,0.018921,0.005371,0.973648
1454,-12.756542,-7.446403,1.7700470000000001,-0.0028079999999999997,0.022338999999999998,0.932998
1456,-20.508125,-10.254063,1.586938,0.02295,-0.0028079999999999997,0.989273
1458,-26.001373,-8.606088,2.014191,0.055421000000000005,-0.013184,0.9752350000000001
1460,-33.69192,-3.845274,5.249104,0.059449,-0.056764,1.03151
1462,-30.884259999999998,2.197299,7.141222,0.042115,-0.065064,1.050797
1464,-29.785611,0.732433,6.836042,0.017823,-0.039063,0.9871979999999999
1466,-23.743038000000002,-1.464866,2.868696,0.043336,0.008423,0.934218
1468,-44.800488,-6.652933999999999,0.732433,0.054444000000000006,-0.073976,1.008804
1470,-46.021209999999996,-3.784237,2.014191,0.048707,-0.119997,1.064591
1472,-34.973678,6.530861,5.127031,-0.032715,-0.09838999999999999,1.062028
1474,-47.974365,1.281758,-3.1128400000000003,-0.07776,-0.074952,1.025284
1476,-39.734493,-6.652933999999999,-18.432898,0.085084,-0.22388000000000002,1.0401770000000001
1478,-39.185168,-1.953155,-7.751583,0.041016000000000004,-0.147341,0.975601
1480,-77.393759,-2.136263,-16.968032,0.012695999999999999,0.280644,0.808118
1482,-184.817273,10.009917999999999,-9.338521,0.11230599999999999,0.09362899999999999,0.9953770000000001
1484,-245.85336099999998,-12.573433999999999,-9.216449,0.105104,0.9741360000000001,1.016129
1486,-557.808804,-89.295796,55.725947999999995,-0.5633630000000001,-0.06652899999999999,1.9999689999999999
1488,-667.002365,-166.750591,71.412222,-0.013428,-0.26160100000000003,0.816785
1490,-860.8529789999999,-188.174258,189.089799,-0.686412,-1.235859,1.9999689999999999
1492,172.671092,-73.18226899999999,7.812619000000001,-0.022216999999999997,0.669078,1.9999689999999999
1494,55.176623,17.212177,14.831769,-0.364385,0.924941,1.8017849999999997
1496,153.87197700000002,18.432898,11.413748,-0.314946,0.14197,0.572274
1498,106.32486499999999,-2.197299,23.437858,-0.18152100000000002,0.147341,0.335454
1500,142.33615600000002,14.770732999999998,15.747310999999998,0.030518,0.208499,0.512459
1502,146.547646,17.212177,0.854505,0.135744,0.204349,0.9000379999999999
1504,182.314794,15.442129999999999,-14.526589000000001,0.11950899999999999,0.188846,1.171527
1506,225.10109100000003,15.442129999999999,-24.231327,0.077638,0.057252,1.386496
1508,262.333104,25.940337,-30.701152,0.052247,-0.16211199999999998,1.347921
1510,280.460822,44.61738,-36.987869,0.156374,-0.34778400000000004,1.263691
1512,282.047761,52.918288000000004,-42.359045,0.11194000000000001,-0.516976,1.163348
1514,269.657435,45.838102,-39.856565,0.067872,-0.5825279999999999,1.1551690000000001
1516,255.436027,38.513771000000006,-34.424353,-0.026246,-0.562631,1.256001
1518,238.895247,40.10071,-30.334936,0.022216999999999997,-0.473884,1.423728
1520,222.78172,54.322118,-29.724575,0.08203300000000001,-0.409918,1.709987
1522,221.866178,53.406577,-32.532235,0.30945300000000003,-0.428962,1.9999689999999999
1524,238.83421099999998,52.918288000000004,-51.697565999999995,0.480354,-0.6103609999999999,1.9792779999999999
1526,235.782406,50.293735999999996,-74.952316,0.44617399999999996,-0.762707,1.596582
1528,209.658961,48.218509000000005,-94.239719,0.27869099999999997,-0.8994280000000001,1.341817
1530,164.675364,62.195772999999996,-102.357519,0.269902,-1.346822,1.4338600000000001
1532,123.170825,98.45120899999999,-96.620127,0.336309,-2.0000310000000003,1.510765
1534,137.75845,135.133898,-65.308614,0.128054,-2.0000310000000003,0.119631
1536,29.602502,38.513771000000006,13.733120000000001,-0.245365,-2.0000310000000003,-0.977188
1538,-211.917296,-228.39704,92.286564,0.635996,-1.459251,-0.460578
1540,-85.69466700000001,-70.069429,58.777752,-0.322148,1.467918,1.9999689999999999
1542,-253.604944,-152.773327,81.971466,0.476448,-0.11340499999999999,-0.241337
1544,-274.906539,-85.02327,69.336996,1.347189,0.146975,1.7628439999999999
1546,-158.44968300000002,-11.352712,-4.21149,0.528939,-0.7262069999999999,1.9999689999999999
1548,-59.876402,-35.950256,19.165332,-0.615732,-0.497566,1.348898
1550,-47.486076000000004,-19.104295,10.193027,0.591684,0.072999,1.2551459999999999
1552,-36.255435999999996,-20.630198,10.620279,-0.23169299999999998,-0.048707,1.093278
1554,-20.813306,-23.743038000000002,3.234913,0.026733999999999997,0.073854,0.924941
1556,-15.930419,-29.785611,2.014191,0.224002,0.08618300000000001,1.163836
1558,-18.554971,-14.587625,3.418021,0.014771000000000001,0.047363999999999996,0.969009
1560,-29.358358000000003,-9.277485,6.347753,0.021485,0.034791,1.061906
1562,-21.240558,-6.836042,2.685588,0.12182799999999999,-0.0813,0.9107799999999999
1564,-18.005646,-5.188067,3.418021,-0.01648,0.019776,1.020157
1566,-16.357671,-8.911269,1.40383,0.029175,-0.002686,0.991836
1568,-16.296635000000002,-11.596857,0.366217,0.020752,0.054444000000000006,1.026993
1570,-11.718929,-10.070953999999999,-0.183108,0.050904000000000005,-0.007935,1.011734
1572,-11.963073,-7.873655,0.732433,0.064332,0.000366,1.05922
1574,-7.873655,-4.943923000000001,0.793469,0.049561,-0.009522,1.0008700000000001
1576,-8.056764,-5.432212,0.671397,0.04773,-0.026856,0.9749899999999999
1578,-8.42298,-5.9205,0.549325,0.048951,0.0035399999999999997,0.982925
1580,-9.216449,-6.164645,0.0,0.056275,-0.010131999999999999,0.9922030000000001
1582,-7.751583,-5.127031,-0.244144,0.06067,-0.018067,1.00502
1584,-6.347753,-3.6621650000000003,-0.244144,0.057252,-0.023194,1.0080719999999999
1586,-7.446403,-3.90631,-0.427253,0.062501,-0.002686,0.9643700000000001
1588,-11.413748,-4.455634,-0.793469,0.057617999999999996,-0.0023190000000000003,0.974258
1590,-15.197985999999998,-4.882887,-0.793469,0.064332,-0.021485,0.9911040000000001
1592,-16.113526999999998,-3.6621650000000003,0.671397,0.070314,-0.024781,0.989029
1594,-15.625238000000001,-3.845274,1.586938,0.06652899999999999,-0.026489999999999996,1.018692
1596,-15.381094000000001,-3.784237,1.8921189999999999,0.045777,-0.050416,0.9788969999999999
1598,-21.05745,-2.868696,1.2207219999999999,0.080446,-0.029175,0.9875639999999999
1600,-24.475471,-1.586938,-0.976577,0.067262,-0.027222000000000003,0.976455
1602,-27.100022999999997,0.793469,-0.244144,0.076295,-0.058227999999999995,1.006363
1604,-27.344167,4.699779,1.647974,0.060792,-0.09094400000000001,1.0000149999999999
1606,-24.597542999999998,7.507439,0.671397,0.11218399999999999,0.028564999999999997,0.9799950000000001
1608,-44.495308,10.131991000000001,2.014191,0.062623,-0.074464,0.921767
1610,-55.970092,10.986496,3.051804,0.018189,-0.092287,0.9953770000000001
1612,-47.73022,6.836042,-6.164645,-0.067262,-0.13073900000000002,1.0008700000000001
1614,-54.077974,2.075227,-16.906996,0.123171,-0.297124,1.041886
1616,-18.188754,2.80766,1.159686,0.189578,-0.187137,1.089982
1618,-76.78339799999999,21.728847000000002,-4.638743,0.104005,0.19983199999999998,0.906264
1620,-204.776074,16.906996,-36.072328000000006,-0.17322,0.445075,0.579721
1622,-233.15785499999998,-65.980011,9.582666,-0.105592,0.677012,0.9785309999999999
1624,-592.05005,-226.99321,31.677729,-0.281621,-0.27624899999999997,0.8960100000000001
1626,-693.553063,-229.312581,60.425727,0.44617399999999996,-0.417975,1.0632489999999999
1628,-878.065156,-180.544747,145.265888,-0.24377800000000002,-1.49221,1.9999689999999999
1630,99.671931,15.686275,-38.391698999999996,-0.263432,0.569345,1.9999689999999999
1632,51.148241,-6.897078,9.033341,-0.6735939999999999,0.9049209999999999,1.9999689999999999
1634,200.747692,2.4414439999999997,30.640116,-0.502937,0.119997,1.481468
1636,197.451743,43.579767,49.378195,-0.30396,0.038697,0.32654299999999997
1638,196.108949,54.261081999999995,64.02685600000001,-0.061890999999999995,-0.10254100000000001,0.363531
1640,188.23529399999998,34.180209000000005,59.266041,0.331914,0.11914200000000001,0.869398
1642,230.77744700000002,29.236286,20.325017000000003,0.575937,0.21265,1.191913
1644,253.3608,46.143282,-22.705425,0.48072,0.05505499999999999,1.057633
1646,265.445945,50.171664,-44.129090999999995,0.338384,-0.111696,0.9474020000000001
1648,262.821393,35.828183,-52.185855,0.325322,-0.258549,1.2558790000000002
1650,276.737621,27.954528000000003,-58.10635500000001,0.25708400000000003,-0.374884,1.473411
1652,271.488518,35.400931,-63.355458999999996,0.224613,-0.55555,1.5989010000000001
1654,270.939193,46.692607,-65.980011,0.077516,-0.702525,1.546899
1656,254.154269,57.557031,-60.059509999999996,-0.020874,-0.708751,1.394675
1658,224.18555,70.740826,-46.631571,0.010620000000000001,-0.6119479999999999,1.515282
1660,208.621347,62.806134,-33.081559000000006,0.171389,-0.5335770000000001,1.839261
1662,215.57946099999998,57.679103000000005,-35.217822999999996,0.348028,-0.55079,1.84097
1664,209.475853,61.829556999999994,-49.561303,0.31873,-0.6607770000000001,1.61416
1666,186.160067,65.552758,-63.904784,0.20947600000000002,-0.8757459999999999,1.424949
1668,151.125353,86.854353,-76.173037,0.32605500000000004,-1.391135,1.385031
1670,109.803922,146.852827,-79.346914,0.386358,-2.0000310000000003,1.448875
1672,116.823072,179.751278,-42.664225,0.187625,-2.0000310000000003,-0.031983
1674,19.470512,25.879301,24.536507,0.10974300000000001,-1.94461,-1.233295
1676,-256.290532,-239.078355,62.623026,1.014542,-1.140032,-0.012695999999999999
1678,-120.424201,-127.565423,30.884259999999998,-0.42236999999999997,1.371237,1.9999689999999999
1680,-234.31753999999998,-100.404364,63.172351,-0.337041,-0.316777,-0.031373000000000005
1682,-261.295491,-76.417182,74.464027,1.340597,0.012818000000000001,1.67715
1684,-195.74273300000002,11.352712,-12.451362,1.1471120000000001,-0.068116,1.9999689999999999
1686,-173.525597,-65.36965,38.086519,-1.618433,-0.965957,1.9999689999999999
1688,-72.755016,-87.159533,22.1561,1.473655,0.254765,1.9999689999999999
1690,-58.838788,-26.245518,5.249104,-0.645884,-0.167849,1.2055850000000001
1692,-23.132676999999997,-31.555657,-4.699779,0.286503,-0.027466,1.132219
1694,-7.01915,-29.358358000000003,-0.9155409999999999,0.072633,-0.009644,1.040665
1696,-23.86511,-13.000687,2.136263,-0.011353,-0.11511400000000001,1.114519
1698,-11.841001,-2.075227,3.723201,0.044068,0.021851,0.9758450000000001
1700,-14.648660999999999,-2.563516,4.699779,0.037964,0.008911,1.0048979999999998
1702,-12.756542,-3.051804,3.540093,0.01294,-0.004883,1.029557
1704,-13.611048,-3.723201,1.647974,-0.009276999999999999,-0.08838,1.003555
1706,-10.070953999999999,-3.1128400000000003,1.2207219999999999,0.048951,-0.036011,1.036027
1708,-7.6905470000000005,-1.586938,1.525902,0.017578,-0.028199000000000002,0.9952540000000001
1710,-9.82681,-1.2207219999999999,1.70901,0.026368,-0.034913,1.007095
1712,-11.902037,-0.854505,2.014191,0.022705,-0.038087,0.9904940000000001
1714,-9.277485,-0.671397,2.014191,0.006592,-0.00061,1.03859
1716,-7.812619000000001,-1.8921189999999999,1.70901,0.013428,-0.042237000000000004,0.9953770000000001
1718,-6.347753,-2.990768,0.30518,0.021729,-0.075441,0.968276
1720,-7.385367,-4.882887,-0.366217,0.005371,-0.042237000000000004,0.988296
1722,-10.070953999999999,-7.141222,-1.037613,0.025513,-0.024048,0.968032
1724,-13.672084,-6.530861,-0.854505,0.038209,-0.06286699999999999,1.018082
1726,-16.540779999999998,-4.638743,0.061036,0.035767,-0.066041,1.047135
1728,-13.000687,-2.80766,0.854505,0.037354000000000005,-0.067994,1.010391
1730,-15.13695,-2.929732,1.342794,0.027466,-0.050660000000000004,0.9674219999999999
1732,-18.677042999999998,-4.089418,0.732433,0.033692,-0.059692999999999996,0.9817040000000001
1734,-22.095064,-3.234913,1.2207219999999999,0.04773,-0.08191,1.031144
1736,-20.874342000000002,0.6103609999999999,1.09865,0.046021,-0.068727,0.9870760000000001
1738,-23.193713,1.037613,0.671397,0.020508000000000002,-0.10009900000000001,0.9942780000000001
1740,-22.278172,0.793469,1.464866,0.042481,-0.100587,1.0057530000000001
1742,-27.710384,3.479057,5.676356,0.028076999999999998,-0.12231600000000001,0.992935
1744,-31.067369,3.356985,5.127031,0.012329000000000001,-0.088624,0.9546040000000001
1746,-34.485389,3.295949,2.563516,-0.010620000000000001,-0.11389300000000001,1.03566
1748,-40.222782,4.943923000000001,1.2207219999999999,0.024781,-0.113283,0.980117
1750,-39.856565,4.760815,-4.5166699999999995,-0.053956,-0.186893,1.017594
1752,-30.212863,3.173877,-14.0383,0.07531900000000001,-0.266484,1.001358
1754,-27.649348,5.432212,-1.7700470000000001,0.136721,-0.205325,1.0407870000000001
1756,-49.134051,11.352712,-5.3101400000000005,-0.032593000000000004,0.15845,0.9073620000000001
1758,-119.93591200000002,13.244831,-11.413748,-0.09289700000000001,0.319707,0.73756
1760,-209.414817,-20.325017000000003,-12.817578,0.016724,0.933974,0.857923
1762,-503.60875899999996,-66.895552,5.249104,-0.553475,-0.20874299999999998,1.015518
1764,-636.66743,-177.126726,48.157472999999996,0.052979,-0.319829,1.2954299999999999
1766,-760.6317240000001,-214.05355899999998,82.03250200000001,1.047501,-1.9872130000000001,1.9999689999999999
1768,-88.685435,-106.50797299999999,-25.757229000000002,0.28186500000000003,-0.303716,1.9999689999999999
1770,141.054398,47.547112,-84.107729,-0.20068699999999998,0.843397,1.9999689999999999
1772,91.432059,11.291675999999999,-27.527276,-0.5459069999999999,0.006592,0.9306780000000001
1774,141.96993999999998,13.855192,-0.6103609999999999,-0.352056,0.162234,0.144778
1776,138.79606299999998,18.371862,13.550010999999998,-0.161135,0.048096,0.488777
1778,145.571069,16.784924,12.939651,0.017212,0.21460300000000002,0.865492
1780,192.568856,23.315785,-4.455634,0.256474,0.27454,1.213031
1782,230.716411,36.987869,-35.217822999999996,0.417731,0.032471,1.285176
1784,267.3991,61.646448,-64.209964,0.240238,-0.19250799999999998,0.924941
1786,257.389181,61.097124,-71.900511,0.24438800000000002,-0.363165,1.024918
1788,253.42183599999998,56.092164000000004,-77.515831,0.322515,-0.45886899999999997,1.293355
1790,247.501335,62.134737,-87.220569,0.313603,-0.609873,1.464988
1792,253.177691,62.623026,-82.093538,-0.006104,-0.692149,1.314473
1794,236.27069500000002,52.857252,-56.702525,-0.16907,-0.618418,1.3243610000000001
1796,219.79095099999998,63.660639,-34.546426000000004,-0.05285700000000001,-0.505501,1.509056
1798,202.212558,95.887694,-22.400244,-0.041382,-0.527474,1.615991
1800,193.057145,91.187915,-2.624552,-0.038575,-0.58143,1.542992
1802,176.82154599999998,90.882734,9.52163,0.44238999999999995,-0.52491,1.54287
1804,149.904631,97.230488,2.136263,0.516854,-0.611826,1.887968
1806,180.972,54.627297999999996,-6.958114,0.46985600000000005,-0.838514,1.7988560000000002
1808,164.858473,57.984283,-24.96376,0.6029140000000001,-1.578149,1.509056
1810,133.241779,129.457542,-55.603876,0.627085,-2.0000310000000003,1.048844
1812,117.25032399999999,174.685283,-40.955215,0.006226,-2.0000310000000003,-1.213886
1814,-155.27580700000001,-135.133898,86.793317,0.1991,-1.908721,-2.0000310000000003
1816,-101.930266,-95.094224,45.777066,0.112428,1.057267,1.9999689999999999
1818,-193.60647,-146.059358,64.45410799999999,-0.23804099999999997,0.295903,0.588754
1820,-219.36369900000003,-95.826658,66.77348,0.70338,-0.11487,0.17322
1822,-264.530404,-60.303655000000006,26.733806,1.522606,-0.47962200000000005,1.9999689999999999
1824,-144.167239,-35.278859000000004,15.320058,-1.143938,-0.20325,1.9999689999999999
1826,25.818265,-37.842374,4.577707,0.9983059999999999,0.32202600000000003,1.893217
1828,-61.829556999999994,-2.563516,11.169604,-0.317388,0.008667,1.128435
1830,-27.344167,-14.0383,2.075227,0.140261,0.052979,1.183001
1832,-20.569162,-15.13695,-1.647974,-0.06579700000000001,-0.000244,1.0622719999999999
1834,-27.405203000000004,-16.84596,-1.40383,0.046387,-0.029907999999999997,1.0439610000000001
1836,-13.000687,-9.460594,1.647974,0.093019,0.013306,1.038712
1838,-22.522316,-7.324331,3.051804,0.019532,0.010131999999999999,1.006729
1840,-22.888533,-8.42298,1.586938,0.025025,-0.011597,1.00209
1842,-19.165332,-7.568475,0.671397,0.012573,-0.021118,1.0048979999999998
1844,-21.423667000000002,-7.2022580000000005,1.464866,0.020752,-0.021973,1.0199129999999998
1846,-17.700464999999998,-5.432212,1.40383,0.032471,-0.048829000000000004,1.037125
1848,-17.273213000000002,-3.479057,0.732433,0.015991,-0.042969,1.026383
1850,-16.235599,-2.990768,0.427253,0.020386,-0.046632,0.9719389999999999
1852,-19.34844,-5.0049589999999995,-0.183108,0.023316,-0.053467999999999995,1.0078280000000002
1854,-16.662851999999997,-3.418021,-0.549325,0.042237000000000004,-0.076295,1.016861
1856,-14.526589000000001,-1.586938,-0.48828900000000003,0.034668,-0.073121,1.028702
1858,-11.23064,-0.183108,-0.793469,0.020386,-0.08105599999999999,1.018326
1860,-6.530861,0.183108,-1.40383,0.040527999999999995,-0.11108599999999999,1.047135
1862,0.0,1.342794,-1.037613,0.021241,-0.066773,0.993301
1864,-2.380407,0.061036,-1.40383,0.016724,-0.061524,0.9865870000000001
1866,-2.80766,-1.464866,-1.281758,0.032471,-0.118288,1.023087
1868,-4.943923000000001,-2.136263,-0.366217,0.031127999999999996,-0.085939,1.022843
1870,-2.563516,-0.671397,0.549325,0.032593000000000004,-0.085451,1.0167389999999998
1872,-0.183108,0.366217,1.2207219999999999,0.024537,-0.076905,1.012833
1874,0.427253,0.183108,0.671397,0.026612,-0.07434199999999999,1.0057530000000001
1876,0.976577,0.0,0.244144,0.033082,-0.084352,1.003555
1878,1.159686,0.366217,0.30518,0.034302,-0.084962,1.015763
1880,4.760815,1.8921189999999999,1.2207219999999999,0.028687,-0.070314,0.993423
1882,5.9205,1.7700470000000001,0.9155409999999999,0.006958,-0.041749,0.9716950000000001
1884,-1.70901,-2.014191,-1.525902,-0.001465,-0.046876,0.963882
1886,-6.042573,-2.746624,-2.319371,0.034668,-0.066285,0.9902489999999999
1888,-10.070953999999999,-1.525902,-0.671397,0.036744,-0.026489999999999996,0.9660790000000001
1890,-13.305867000000001,-1.281758,0.793469,0.030883999999999998,-0.068727,0.9817040000000001
1892,-14.831769,0.6103609999999999,3.051804,0.008789,-0.044068,1.0213780000000001
1894,-21.911955,4.8218510000000006,3.90631,0.036866,-0.058961,0.975601
1896,-28.259709,3.967346,1.647974,-0.001831,-0.043946,0.976089
1898,-40.344854,3.173877,1.037613,0.015381,-0.10278499999999999,1.008194
1900,-34.607462,5.981537,1.342794,-0.012451,-0.053956,0.997208
1902,-26.916915000000003,4.21149,-9.155413000000001,-0.023926,-0.17383099999999999,0.948257
1904,-62.378882,-12.63447,-20.752270000000003,0.022827,-0.14441099999999998,0.929458
1906,-67.872129,-0.6103609999999999,-14.099336,0.08716,-0.09192,1.010758
1908,-104.127565,5.065995,-14.0383,0.040772,-0.032593000000000004,0.8574350000000001
1910,-166.445411,-5.0049589999999995,1.2207219999999999,-0.059083000000000004,0.002686,0.866102
1912,-232.669566,-36.804761,8.850233,0.015259,-0.148196,1.0208899999999999
1914,-270.878157,-112.855726,26.733806,-0.449104,-0.092653,1.225116
1916,-246.46372200000002,-195.132372,39.734493,-0.039307,0.5243,1.8976119999999999
1918,-46.570535,-67.750057,19.043259,-0.010864,0.407233,1.9999689999999999
1920,111.085679,47.180896000000004,-37.29305,-0.127687,0.470466,0.664195
1922,102.540627,3.723201,-24.109254999999997,-0.082277,0.12414700000000001,0.929213
1924,137.026017,3.784237,-31.250477000000004,-0.017456,0.057374,1.2677200000000002
1926,185.48866999999998,35.706111,-37.476158,-0.257816,-0.176394,0.818982
1928,185.427634,35.767146999999994,-14.587625,-0.49073,-0.378668,0.6041350000000001
1930,174.13595800000002,36.255435999999996,21.667811,-0.46704799999999996,-0.42188100000000006,0.989273
1932,185.610742,57.740139,52.796216,-0.46985600000000005,-0.563607,1.106462
1934,188.479438,64.637217,83.741512,-0.453376,-0.58265,0.976455
1936,182.131685,92.469673,106.446937,0.18555,-0.488533,0.977554
1938,158.876936,125.917449,99.977111,0.444953,-0.534554,1.037247
1940,149.904631,98.023957,89.17372399999999,0.73817,-0.501595,0.696788
1942,112.24536499999999,49.683375,60.18158199999999,1.026627,-0.42261400000000005,0.566659
1944,73.548486,-1.281758,2.4414439999999997,0.874769,-0.30933099999999997,0.555673
1946,26.855878999999998,-7.080186,-44.129090999999995,0.167605,-0.472541,0.322148
1948,-384.649424,-243.35088100000002,38.086519,-1.338643,-2.0000310000000003,1.9999689999999999
1950,283.756771,14.343481,0.427253,0.211673,-1.144549,1.9999689999999999
1952,158.022431,64.820325,-58.04531899999999,-0.251713,0.988052,-0.635019
1954,-127.870604,-33.569848,41.199359,0.188479,0.057984,0.23755199999999999
1956,-50.476844,-6.591897,-1.8310830000000002,-0.054444000000000006,-0.13904,1.227436
1958,-36.133364,-6.042573,2.563516,0.025269,-0.022827,1.231342
1960,3.418021,2.014191,0.061036,0.008057,0.033569999999999996,1.057877
1962,-3.356985,-1.037613,-0.549325,-0.07324299999999999,0.053346000000000005,1.000992
1964,-1.8310830000000002,-6.164645,-1.40383,-0.02002,0.032715,0.999893
1966,-2.4414439999999997,-4.638743,-0.9155409999999999,-0.004028,0.015625,1.036881
1968,0.6103609999999999,-3.051804,-0.366217,-0.013306,0.049317,0.9909819999999999
1970,-2.868696,-2.80766,0.183108,-0.011353,0.054688,0.9748680000000001
1972,-4.8218510000000006,-1.464866,0.549325,0.016236,0.013306,1.057267
1974,1.342794,1.586938,0.48828900000000003,0.001099,0.028321,1.007095
1976,1.09865,2.014191,-0.183108,-0.011109,0.044068,0.982925
1978,1.525902,2.197299,-0.366217,-0.001709,0.030518,1.010147
1980,1.464866,2.2583349999999998,-0.427253,-0.019165,0.040527999999999995,0.9904940000000001
1982,0.732433,0.427253,-0.427253,-0.017578,0.026978,0.984146
1984,1.40383,-0.427253,-0.183108,-0.029175,0.046876,0.9625389999999999
1986,-2.80766,-2.868696,-0.244144,-0.010864,0.032837,0.992569
1988,-1.2207219999999999,-2.929732,-0.427253,-0.009522,0.033448,0.989883
1990,-2.2583349999999998,-3.173877,-0.6103609999999999,-0.008179,0.027710000000000002,1.0053860000000001
1992,-1.342794,-2.380407,-0.732433,-0.001343,0.044677999999999995,0.977676
1994,-1.159686,-1.342794,-0.6103609999999999,0.004028,0.02356,1.00502
1996,1.464866,0.0,-0.366217,0.004761,0.020630000000000003,1.009049
1998,1.037613,1.647974,-0.30518,0.031373000000000005,0.015869,1.0486
2000,7.507439,7.812619000000001,0.48828900000000003,0.014649,0.020508000000000002,1.0486
2002,11.963073,10.620279,1.342794,-0.012695999999999999,0.027710000000000002,1.013809
2004,10.864424,9.155413000000001,0.854505,-0.06067,0.089357,0.8913709999999999
2006,-4.5166699999999995,1.281758,0.671397,-0.068238,0.06347799999999999,0.927016
2008,-5.0049589999999995,-6.408789,-0.30518,-0.032715,0.036378,0.972427
2010,-2.80766,-5.188067,-0.30518,0.006226,-0.000122,1.065568
2012,2.80766,-1.70901,0.30518,0.010986,0.036622,1.003922
2014,3.234913,0.366217,0.549325,-0.010742,0.038331,1.0047760000000001
2016,5.371176,1.09865,0.48828900000000003,-0.041016000000000004,0.047363999999999996,0.8763559999999999
2018,-11.047532,-4.272526,0.671397,-0.039307,0.067018,0.9358049999999999
2020,-13.183795000000002,-7.01915,-0.427253,0.016358,0.029053,1.0363930000000001
2022,-1.647974,2.197299,0.549325,0.032471,-0.014527000000000002,1.130266
2024,5.249104,4.882887,1.159686,-0.033204000000000004,0.08581699999999999,0.916518
2026,-8.545052,-3.1128400000000003,0.122072,-0.044677999999999995,0.013184,1.033097
2028,-3.845274,-2.4414439999999997,-1.281758,-0.010254000000000001,0.091554,0.901381
2030,-13.061722999999999,-2.929732,-1.647974,-0.001343,0.08447400000000001,0.9707180000000001
2032,-13.855192,-0.061036,-0.244144,-0.003296,-0.021973,1.07277
2034,-5.981537,1.953155,0.0,-0.024537,0.047608,0.9587549999999999
2036,-11.352712,-1.70901,-0.122072,-0.030151999999999998,0.053712,0.9506979999999999
2038,-11.841001,-5.859464,-1.159686,-0.031373000000000005,0.018433,0.973404
2040,-14.770732999999998,-6.530861,-1.2207219999999999,-0.004883,0.042115,0.960098
2042,-15.503166,-3.418021,-1.2207219999999999,0.04358,-0.045899,1.099748
2044,-10.742351,2.624552,0.549325,-0.008789,-0.015991,1.027115
2046,-4.455634,2.075227,0.549325,-0.028199000000000002,-0.004883,0.999893
2048,-1.70901,-0.183108,-0.122072,-0.034546,0.006104,0.991348
2050,-1.281758,-0.854505,-0.122072,0.0,-0.004639,0.992569
2052,-7.080186,-1.281758,0.671397,-0.012085,0.000122,1.003433
2054,-2.80766,-2.4414439999999997,-0.427253,0.001343,0.005615,0.987808
2056,-2.075227,-1.525902,-0.732433,0.00415,0.006104,0.993057
2058,-3.90631,-1.037613,-0.244144,-0.021851,-0.014771000000000001,0.9897610000000001
2060,0.122072,-2.80766,-0.30518,0.002075,-0.024537,1.0323639999999998
2062,-1.464866,-1.70901,0.366217,-0.000122,-0.028931000000000002,1.0401770000000001
2064,3.051804,0.30518,0.793469,-0.004517,-0.003662,1.003922
2066,6.225681,-0.732433,0.366217,-0.019776,0.003296,0.976211
2068,6.225681,-4.21149,-1.342794,-0.002075,0.005371,1.000504
2070,5.188067,-2.80766,-1.464866,0.011231,0.0023190000000000003,1.013809
2072,5.859464,-0.366217,-0.976577,0.020386,-0.001831,1.009293
2074,5.432212,2.929732,-0.30518,0.010254000000000001,0.002686,1.00502
2076,5.371176,5.127031,0.244144,0.0037840000000000005,0.000366,1.0078280000000002
2078,8.056764,6.164645,0.122072,0.01709,-0.000122,1.0037989999999999
2080,4.577707,5.676356,0.244144,0.001465,-0.009522,0.925185
2082,6.103609,5.7984279999999995,-0.183108,-0.025269,0.010864,0.9803620000000001
2084,7.812619000000001,5.249104,0.30518,-0.020263999999999997,0.029541,0.973037
2086,6.469825,3.356985,0.122072,-0.028076999999999998,0.027955,0.968521
2088,5.065995,1.70901,-0.244144,-0.026978,0.021363,0.9869540000000001
2090,6.836042,0.854505,-0.244144,-0.013428,0.032105,1.005997
2092,4.577707,0.48828900000000003,-0.366217,-0.015381,0.028808999999999998,0.98793
2094,2.563516,0.0,-0.122072,-0.016602000000000002,0.035644999999999996,0.932876
2096,1.647974,-0.244144,-0.244144,-0.023072,0.049073,0.9939120000000001
2098,0.061036,-0.183108,-0.183108,-0.020142,0.032349,1.0396889999999999
2100,3.479057,0.30518,-0.427253,-0.013428,0.026489999999999996,0.99855
2102,3.6011290000000002,0.671397,-0.48828900000000003,-0.005005,0.031006,0.989883
2104,2.685588,1.647974,-0.366217,-0.013672,0.029786,1.001968
2106,3.784237,1.586938,0.0,-0.020874,0.026368,1.002701
2108,7.385367,1.647974,0.549325,-0.042237000000000004,0.014527000000000002,0.984878
2110,7.263294,1.09865,1.70901,-0.016846,0.041505,0.983291
2112,5.249104,0.854505,2.685588,-0.01294,0.027955,0.9803620000000001
2114,2.50248,0.366217,2.563516,-0.011231,0.038575,0.996841
2116,6.042573,0.793469,2.685588,-0.010620000000000001,0.055177,1.000381
2118,4.577707,0.0,2.319371,-0.031373000000000005,0.030762,0.981827
2120,1.647974,-0.854505,2.563516,-0.030396,0.044923000000000005,0.996475
2122,2.929732,-1.159686,4.455634,-0.027222000000000003,0.05359,0.984146
2124,2.380407,-1.281758,3.90631,-0.02002,0.049683,0.986099
2126,1.281758,-1.2207219999999999,1.09865,-0.0037840000000000005,0.05505499999999999,0.992325
2128,-1.281758,-0.854505,0.0,-0.026856,0.045411,0.9896389999999999
2130,0.366217,-1.342794,1.342794,-0.024413999999999998,0.042359,0.997086
2132,3.6011290000000002,0.0,3.356985,0.0070799999999999995,0.055177,0.996109
2134,2.685588,0.549325,1.09865,-0.011353,0.061279999999999994,0.986099
2136,1.037613,0.427253,0.30518,-0.021851,0.045288999999999996,1.000137
2138,2.136263,-0.122072,2.075227,-0.019898,0.049317,0.9922030000000001
2140,3.540093,0.061036,3.540093,-0.015747,0.050538,0.9922030000000001
2142,3.540093,0.061036,3.356985,-0.005249,0.061279999999999994,0.9944
2144,0.854505,0.122072,1.037613,-0.015503,0.060913999999999996,0.985977
2146,-0.48828900000000003,-0.061036,0.183108,-0.025025,0.047974,1.002945
2148,9.82681,0.061036,0.854505,-0.021485,0.046998000000000005,1.019791
2150,29.724575,3.234913,9.277485,0.015015,0.285405,0.9500879999999999
2152,8.728161,0.244144,0.854505,-0.037476,0.071412,0.988663
2154,-0.854505,-0.854505,-0.122072,-0.017212,0.069703,0.9876860000000001
2156,-5.249104,-1.586938,-0.183108,-0.003052,0.07434199999999999,0.9986719999999999
2158,-8.789197,-0.732433,-0.122072,-0.02002,0.070802,0.9865870000000001
2160,-8.972305,-2.685588,0.793469,-0.032715,0.058717,1.00209
2162,-8.1178,-2.563516,0.976577,-0.014282,0.064332,0.995499
2164,-5.249104,-2.136263,-0.122072,-0.014527000000000002,0.05651900000000001,1.0048979999999998
2166,3.173877,-0.30518,-1.953155,-0.004273,0.068971,0.9867090000000001
2168,2.319371,-0.183108,-3.967346,-0.012329000000000001,0.064088,0.9909819999999999
2170,1.7700470000000001,0.0,-5.188067,-0.014771000000000001,0.053346000000000005,0.9873200000000001
2172,0.366217,0.244144,-6.042573,-0.005005,0.070802,0.9803620000000001
2174,1.342794,1.40383,-9.82681,-0.009888,0.050294,1.010758
