Packet number,Gyroscope X (deg/s),Gyroscope Y (deg/s),Gyroscope Z (deg/s),Accelerometer X (g),Accelerometer Y (g),Accelerometer Z (g)
0,-0.793469,-0.244144,0.0,-0.0015869999999999999,0.00647,1.0048979999999998
4,-0.671397,-0.427253,-0.122072,-0.005249,0.001709,1.006729
8,-0.854505,-0.061036,0.061036,-0.001099,0.005493,0.9991610000000001
12,-1.525902,-0.061036,0.0,0.003418,-0.001953,1.0095370000000001
16,-0.671397,-0.427253,0.0,-0.0035399999999999997,0.008301000000000001,1.0008700000000001
20,-0.976577,-0.427253,-0.122072,0.001343,0.006836,0.9959870000000001
24,-0.9155409999999999,-0.061036,0.061036,-0.003296,0.0037840000000000005,1.00209
28,-0.671397,-0.244144,0.0,-0.0031739999999999997,-0.000366,0.9976959999999999
32,-0.427253,-0.30518,-0.122072,-0.005615,-0.004883,0.976822
36,-1.09865,-0.244144,0.0,-0.001831,0.006958,0.997208
40,-0.9155409999999999,-0.30518,0.0,-0.001099,0.002564,0.9984280000000001
44,-0.48828900000000003,-0.244144,0.0,-0.005249,0.006958,0.997574
48,-0.48828900000000003,-0.366217,-0.183108,-0.001221,0.003662,0.9991610000000001
52,-0.244144,0.061036,0.244144,0.004639,-0.008423,1.000504
56,5.371176,0.732433,0.061036,-0.0043950000000000005,-0.000977,0.985733
60,-0.854505,-1.40383,-0.366217,-0.006226,0.018677000000000003,0.9863430000000001
64,-1.281758,-0.671397,0.183108,0.0,0.0037840000000000005,0.9979399999999999
68,-0.244144,-1.09865,-0.30518,0.0008550000000000001,0.006104,1.006851
72,1.70901,0.0,0.0,0.002686,-0.002441,1.012467
76,5.065995,0.793469,0.0,0.008545,0.009766,1.0365149999999999
80,5.0049589999999995,0.30518,-0.244144,-0.011597,0.019165,0.98439
84,3.418021,-0.732433,-0.122072,-0.000977,0.025513,0.9869540000000001
88,-0.30518,-2.4414439999999997,-0.9155409999999999,-0.023194,0.072755,0.9398340000000001
92,-3.90631,-0.671397,0.549325,0.002441,0.00647,1.013931
96,-8.728161,-3.234913,0.366217,-0.015869,0.032593000000000004,0.9149309999999999
100,-21.972992,-6.225681,1.40383,0.033204000000000004,-0.033692,1.084123
104,-9.033341,-2.014191,1.40383,0.00293,-0.01294,1.008316
108,-11.352712,-5.371176,0.0,0.013793999999999999,-0.012329000000000001,1.000137
112,-10.009917999999999,-2.380407,1.40383,0.028564999999999997,-0.025635,1.025895
116,-6.897078,-2.319371,0.549325,0.008545,-0.016602000000000002,0.993057
120,-7.507439,-3.173877,0.183108,0.019287000000000002,-0.042847,1.011002
124,-3.540093,0.061036,0.854505,0.014282,-0.030396,1.003311
128,-2.136263,-1.342794,0.061036,0.015869,-0.032958999999999995,0.9896389999999999
132,-4.150454,-1.70901,0.244144,0.025879000000000003,-0.040284,1.007462
136,-2.136263,-0.061036,0.183108,0.0271,-0.049194999999999996,1.031876
140,0.9155409999999999,0.183108,-0.244144,0.006714,-0.019653999999999998,0.969741
144,0.30518,-0.427253,-0.48828900000000003,0.025757,-0.040894,1.012222
148,2.197299,1.342794,-0.183108,0.020752,-0.034302,1.006119
152,1.8310830000000002,0.48828900000000003,-0.9155409999999999,0.011963,-0.035401,0.993301
156,0.30518,0.854505,0.0,0.025635,-0.026856,1.000748
160,0.549325,1.647974,0.183108,0.010498,-0.02002,0.991714
164,-0.9155409999999999,-1.159686,-0.30518,0.008423,-0.025513,0.981094
168,-2.868696,-1.464866,0.0,0.028687,-0.029419,0.9991610000000001
172,-2.014191,0.244144,0.244144,0.015625,-0.036622,1.013321
176,0.854505,0.366217,0.0,0.009276999999999999,-0.026123,0.9897610000000001
180,-0.549325,-0.9155409999999999,-0.366217,0.0271,-0.030151999999999998,1.006851
184,-0.366217,0.244144,-0.122072,0.019898,-0.028199000000000002,1.003555
188,-0.061036,-0.366217,-0.183108,0.01001,-0.032958999999999995,0.999283
192,0.122072,-0.793469,-0.122072,0.02356,-0.027587999999999998,1.0037989999999999
196,0.183108,0.244144,0.0,0.019653999999999998,-0.029175,1.006973
200,1.2207219999999999,0.671397,-0.183108,0.014771000000000001,-0.031617,1.006851
204,2.136263,0.549325,-0.549325,0.015625,-0.019776,0.995865
208,-0.183108,0.366217,-0.183108,0.025879000000000003,-0.025269,1.002701
212,-0.122072,0.976577,-0.183108,0.008301000000000001,-0.026246,0.9984280000000001
216,-0.976577,-1.037613,-0.183108,0.021485,-0.023316,0.997208
220,-2.929732,-1.037613,0.0,0.021606999999999998,-0.025147,0.995132
224,-2.197299,-0.30518,0.122072,0.020508000000000002,-0.027832,1.0167389999999998
228,-0.6103609999999999,-0.244144,-0.244144,0.016602000000000002,-0.027710000000000002,1.001358
232,0.183108,-0.793469,-0.6103609999999999,0.021973,-0.022338999999999998,0.991592
236,0.0,0.793469,-0.122072,0.014771000000000001,-0.029053,1.002945
240,1.037613,0.671397,-0.366217,0.011840999999999999,-0.021363,0.996719
244,0.671397,0.30518,-0.30518,0.015869,-0.026368,1.003311
248,1.586938,1.342794,0.0,0.021363,-0.023926,1.0040440000000002
252,3.234913,2.014191,-0.122072,0.018067,-0.0271,1.009293
256,1.8310830000000002,0.48828900000000003,-0.366217,0.008545,-0.012206999999999999,0.984146
260,0.183108,1.342794,0.061036,0.012451,-0.012573,1.002701
264,0.549325,1.037613,0.0,0.017212,-0.017823,1.003311
268,1.40383,0.854505,-0.183108,0.010864,-0.010986,0.984512
272,-0.854505,0.122072,0.0,0.009155,-0.018555000000000002,0.999283
276,-0.30518,0.6103609999999999,0.0,0.011353,-0.015991,1.0008700000000001
280,0.48828900000000003,0.549325,0.0,0.009276999999999999,-0.013793999999999999,0.997208
284,0.30518,0.549325,0.0,0.006958,-0.012573,0.999649
288,0.48828900000000003,0.549325,0.0,0.005982,-0.015869,1.001236
292,1.8921189999999999,0.671397,-0.244144,0.003052,-0.01001,0.9939120000000001
296,0.671397,-0.671397,-0.427253,0.0094,-0.001099,0.996719
300,-0.122072,0.244144,0.0,0.004028,-0.010986,1.000259
304,0.0,0.30518,0.0,0.005371,-0.014405000000000001,0.998917
308,0.671397,0.244144,-0.244144,0.008423,-0.0037840000000000005,0.998184
312,0.0,0.30518,0.0,0.008423,-0.0031739999999999997,0.999527
316,-0.183108,0.48828900000000003,-0.122072,0.0070799999999999995,-0.001709,0.9959870000000001
320,-1.159686,-0.427253,-0.427253,0.005249,-0.0043950000000000005,0.9983059999999999
324,-0.6103609999999999,0.122072,-0.122072,0.006714,-0.004883,1.002335
328,-0.244144,0.366217,-0.122072,0.016846,-0.008179,1.008804
332,-0.854505,0.427253,0.061036,-0.0051270000000000005,-0.001465,0.991714
336,-1.586938,-0.061036,-0.122072,-0.004273,-0.007691,0.999527
340,-0.854505,-0.183108,0.0,0.009888,-0.005005,1.003311
344,-0.671397,0.48828900000000003,0.061036,-0.0043950000000000005,-0.005249,1.000626
348,-0.427253,-0.30518,-0.183108,-0.0028079999999999997,-0.002075,0.992325
352,-0.9155409999999999,0.061036,0.122072,0.008179,-0.001465,0.996841
356,-0.6103609999999999,-0.061036,0.0,0.007812999999999999,-0.005371,0.9990389999999999
360,-0.549325,-0.30518,0.0,0.007935,-0.00293,0.99855
364,-1.09865,-0.244144,-0.122072,0.00293,-0.008179,1.010758
368,-0.854505,0.0,0.0,-0.000244,-0.006592,0.9944
372,0.0,0.366217,0.0,0.00415,-0.000244,0.996597
376,0.061036,0.30518,0.0,-0.0028079999999999997,0.001953,0.988296
380,0.061036,0.061036,-0.122072,0.000732,0.000366,0.9946440000000001
384,-0.48828900000000003,-0.061036,0.0,-0.0015869999999999999,-0.010254000000000001,1.007095
388,-1.09865,-0.48828900000000003,0.061036,0.003052,-0.007568000000000001,0.996841
392,-1.09865,-0.366217,0.0,0.001221,-0.001099,1.009293
396,-0.6103609999999999,-0.30518,0.0,0.004883,-0.0074459999999999995,0.999649
400,0.0,0.122072,-0.183108,-0.008423,0.002686,0.9941559999999999
404,-0.732433,0.183108,0.0,0.001221,-0.001343,1.011978
408,-0.976577,0.0,0.122072,0.004028,-0.006592,1.0040440000000002
412,-0.793469,0.0,0.0,0.0023190000000000003,-0.008911,0.9980620000000001
416,-1.2207219999999999,-0.48828900000000003,-0.183108,0.000977,0.001221,0.999893
420,-1.09865,-0.061036,0.0,0.0043950000000000005,-0.007935,0.9991610000000001
424,-0.427253,0.671397,0.183108,-0.002564,-0.0037840000000000005,1.002335
428,0.122072,0.549325,0.0,-0.006958,-0.0021969999999999997,0.988296
432,0.0,0.366217,-0.122072,-0.002075,0.0021969999999999997,0.9869540000000001
436,0.0,0.671397,0.122072,-0.0035399999999999997,0.000488,0.9909819999999999
440,1.2207219999999999,1.342794,0.061036,-0.012695999999999999,-0.001709,0.9908600000000001
444,-0.061036,0.122072,-0.122072,-0.00293,-0.005005,0.996719
448,-0.6103609999999999,-0.061036,-0.122072,-0.00647,0.006226,1.002579
452,-0.671397,0.0,-0.122072,-0.0023190000000000003,-0.001343,1.000748
456,-0.366217,-0.244144,0.0,0.010864,-0.0023190000000000003,1.001724
460,-0.854505,-0.427253,-0.122072,-0.003418,-0.001221,0.9956209999999999
464,-1.2207219999999999,-0.48828900000000003,0.0,0.002441,-0.005737,1.01149
468,-0.48828900000000003,-0.061036,0.0,-0.008423,0.000244,0.997574
472,-0.976577,-0.732433,-0.122072,-0.004639,0.000244,0.988785
476,-1.647974,-0.6103609999999999,-0.122072,-0.0021969999999999997,-0.005982,0.999893
480,-0.183108,0.0,0.0,-0.002441,-0.003296,1.0046540000000002
484,-1.464866,-0.9155409999999999,-0.122072,0.007812999999999999,-0.003662,0.9994049999999999
488,-2.014191,-0.427253,0.061036,-0.00061,-0.007568000000000001,0.993179
492,-0.793469,0.122072,0.122072,-0.000488,-0.00647,1.009049
496,-0.122072,0.0,-0.122072,-0.0070799999999999995,-0.001953,0.996719
500,-1.342794,-0.48828900000000003,0.0,0.002686,-0.0074459999999999995,0.9969629999999999
504,-1.037613,-0.183108,0.061036,-0.0015869999999999999,-0.003662,0.991348
508,-1.159686,-0.061036,0.0,-0.0028079999999999997,-0.006836,1.0085600000000001
512,-1.342794,-0.48828900000000003,-0.183108,0.003052,-0.002441,0.999893
516,-1.586938,-0.671397,0.0,-0.006592,-0.014282,1.003555
520,-0.671397,-0.48828900000000003,0.061036,0.006836,-0.007812999999999999,1.006363
524,-1.2207219999999999,-0.366217,0.0,0.012451,-0.003052,1.005264
528,-1.464866,-0.366217,0.0,-0.000366,0.001343,0.9871979999999999
532,-1.464866,-0.366217,0.0,0.004639,-0.010131999999999999,1.0085600000000001
536,-0.732433,-0.183108,0.0,0.006226,-0.008911,1.004166
540,-1.159686,-0.6103609999999999,0.0,-0.000977,-0.011109,0.993423
544,-0.9155409999999999,-0.427253,0.0,-0.0035399999999999997,-0.007812999999999999,1.002945
548,-0.793469,-0.183108,0.061036,0.002686,-0.0070799999999999995,0.997086
552,-0.854505,-0.061036,0.122072,0.0015869999999999999,-0.010986,1.006973
556,0.0,0.122072,0.183108,-0.00061,-0.01001,1.010391
560,1.342794,0.0,0.122072,0.000488,-0.008179,1.013687
564,3.784237,0.671397,0.122072,-0.006592,-0.023926,1.0327309999999998
568,4.028382,-0.183108,0.061036,-0.012206999999999999,0.008545,0.98439
572,4.150454,0.061036,0.0,0.0015869999999999999,0.002075,0.998184
576,5.371176,0.183108,-0.183108,-0.000366,0.0074459999999999995,0.9984280000000001
580,6.042573,0.549325,0.122072,-0.003296,0.012329000000000001,1.01442
584,4.577707,0.122072,0.366217,-0.0074459999999999995,0.021363,0.9942780000000001
588,3.295949,-0.6103609999999999,0.122072,-0.010498,0.026856,0.98085
592,-1.2207219999999999,-2.014191,-0.427253,0.018433,0.019776,1.018692
596,0.183108,0.0,0.244144,-0.005005,0.015259,0.99379
600,-7.080186,-2.868696,-0.671397,-0.007812999999999999,0.025879000000000003,0.9867090000000001
604,-0.9155409999999999,-0.244144,0.0,0.014527000000000002,0.0008550000000000001,1.030289
608,6.347753,2.685588,0.183108,-0.004028,0.025635,0.993301
612,0.427253,-1.159686,0.244144,-0.006592,0.023926,0.9944
616,2.380407,-1.953155,-0.30518,-0.004883,0.027222000000000003,1.009293
620,-2.014191,-2.380407,-0.854505,0.012206999999999999,0.030518,0.9994049999999999
624,-3.295949,1.70901,0.244144,0.014893,0.023194,1.0116120000000002
628,-1.2207219999999999,1.8310830000000002,0.366217,0.001221,0.012695999999999999,1.0078280000000002
632,0.30518,0.0,0.0,-0.005982,0.028564999999999997,0.9904940000000001
636,-2.014191,-0.427253,0.427253,-0.002686,0.02417,1.000381
640,-2.929732,-1.342794,0.0,-0.007201999999999999,0.038087,0.952041
644,-8.667124000000001,-4.028382,0.732433,0.005493,0.027344,1.0204010000000001
648,-7.9957270000000005,-3.723201,0.9155409999999999,-0.001953,0.022583000000000002,0.9941559999999999
652,-12.939651,-6.408789,2.136263,-0.017456,0.012573,0.95668
656,-18.554971,-8.606088,2.80766,0.036255,0.000488,1.026505
660,-21.789883,-7.751583,1.8921189999999999,-0.0035399999999999997,0.021363,0.941543
664,-43.21355,-10.864424,0.244144,0.014038,0.059815,0.9935450000000001
668,-63.965819999999994,-3.90631,-3.967346,0.029297000000000004,-0.008057,0.9752350000000001
672,-72.938125,1.342794,-15.259022,0.041260000000000005,-0.181399,1.019547
676,-70.191501,17.395285,3.234913,-0.0043950000000000005,0.039673,0.9286030000000001
680,-138.06363000000002,16.357671,-16.968032,0.169436,0.539315,0.7108260000000001
684,-531.9295030000001,60.791943,2.014191,0.282231,-0.057984,1.686305
688,-56.458381,90.577554,-23.926146,-0.8841690000000001,-0.268925,1.9999689999999999
692,36.682689,16.357671,64.759289,0.100465,0.33814,0.701427
696,88.868544,-41.748684000000004,-11.535821,0.621714,0.67628,1.187518
700,162.233921,-52.918288000000004,-76.90547,-0.016968,0.250248,1.0234530000000002
704,224.795911,-34.363316999999995,-56.397344999999994,-0.526131,-0.10071000000000001,1.083024
708,237.674525,-20.508125,-11.657893,-0.30518,-0.14648699999999998,1.128801
712,199.52697,49.195087,-33.813992999999996,-0.140505,-0.359747,1.027115
716,209.475853,58.838788,-8.484016,-0.272221,-0.44165699999999997,1.985138
720,203.73846,53.284504000000005,-7.263294,0.031617,-0.46814700000000004,1.9999689999999999
724,230.045014,33.569848,-28.931106,0.17260999999999999,-0.514046,1.456077
728,202.82291899999998,51.148241,-48.035401,-0.029541,-0.771374,1.388083
732,124.391547,58.838788,-33.020523,0.067384,-1.689357,0.731334
736,4.333562000000001,-8.056764,29.663539,0.007324,-1.855009,-0.565316
740,-125.978485,-56.824597999999995,46.387427,-0.251713,0.175051,1.714748
744,-241.641871,-71.778439,56.458381,0.708019,-0.17260999999999999,1.522606
748,-94.85008,11.902037,-9.82681,-0.42444499999999996,-0.06884900000000001,1.5241930000000001
752,-60.059509999999996,-56.092164000000004,20.813306,1.147601,0.347051,1.9999689999999999
756,-19.836728,-23.315785,-2.380407,0.204959,0.076905,1.2099790000000001
760,-20.447089000000002,-12.512398,-1.09865,-0.003052,0.077028,0.9365379999999999
764,-12.085144999999999,-1.342794,3.6621650000000003,-0.003052,0.024659,1.050797
768,-6.2867169999999994,-5.188067,0.976577,-0.005982,0.029786,1.011368
772,-7.934691,-2.2583349999999998,2.80766,0.06006,-0.012695999999999999,0.9864649999999999
776,-5.981537,-0.061036,1.8310830000000002,0.010131999999999999,0.019898,0.984756
780,-6.469825,-2.929732,0.732433,0.005371,0.028199000000000002,0.9873200000000001
784,-4.089418,-3.6011290000000002,0.671397,0.015259,-0.0031739999999999997,0.9907379999999999
788,-11.047532,-6.347753,0.30518,0.012818000000000001,0.012206999999999999,0.961807
792,-17.94461,-6.897078,0.732433,0.031495,0.008911,0.999771
796,-20.996414,-4.394598,1.037613,0.028199000000000002,0.001099,0.961929
800,-22.949569,-6.958114,-0.854505,0.030762,-0.040162,0.991226
804,-31.799802000000003,-2.868696,3.234913,-0.013184,-0.010498,1.080095
808,-41.748684000000004,1.953155,-3.1128400000000003,-0.035523,-0.011475,0.980484
812,-57.129778,-0.9155409999999999,-26.123445,0.009888,-0.14538800000000002,0.8772110000000001
816,-54.20004599999999,18.677042999999998,6.591897,0.083497,0.076905,0.9991610000000001
820,-192.141604,-15.686275,6.591897,0.005371,0.832044,0.617197
824,-770.092317,-135.439078,30.579079999999998,0.081178,-0.114015,1.353658
828,236.087587,15.442129999999999,-41.748684000000004,-0.386481,0.558724,1.9999689999999999
832,80.750744,-8.850233,19.409476,-0.035644999999999996,0.396002,0.685191
836,113.64919499999999,6.347753,-30.518044,0.052003,0.559701,0.808972
840,182.192721,0.732433,-60.975052000000005,-0.098878,0.32422399999999996,1.205951
844,269.10811,35.88922,-48.035401,-0.207279,0.038452999999999994,1.2557559999999999
848,297.245747,43.335622,-75.31853199999999,0.350225,-0.239506,1.360128
852,281.193256,101.014725,-112.001221,-0.193973,-0.772351,1.21181
856,220.40131200000002,129.03028899999998,-14.465553,-0.64686,-0.665782,1.9999689999999999
860,291.02006600000004,125.612268,51.026169,0.07910299999999999,-0.787121,1.9999689999999999
864,254.947738,139.772641,69.092851,0.680064,-0.8328979999999999,1.6627450000000001
868,154.482338,91.798276,20.752270000000003,1.39736,-2.0000310000000003,1.046769
872,-53.528649,23.682002,-27.771420000000003,-0.634653,-2.0000310000000003,-2.0000310000000003
876,-118.95933500000001,-123.10978899999999,6.958114,-0.777844,0.965591,1.9999689999999999
880,-305.24147400000004,-71.29015,61.768521,1.732692,0.098634,1.881132
884,-153.017472,-98.329137,58.228428,-1.6271,-0.784436,1.619898
888,-41.565576,-31.189441,17.334249,-0.5097729999999999,0.068116,0.9875639999999999
892,-14.160372,-10.742351,0.671397,0.203983,0.09057799999999999,1.190692
896,-18.677042999999998,17.151141,4.699779,-0.019165,0.005005,1.034318
900,-10.193027,14.221407999999998,4.699779,-0.06884900000000001,0.057862000000000004,0.928725
904,-16.479744,2.319371,3.479057,-0.053467999999999995,0.021729,0.992569
908,-12.939651,-3.173877,2.014191,-0.045777,0.005737,0.978042
912,-17.395285,-9.094377,1.342794,-0.028931000000000002,-0.004639,0.9869540000000001
916,-17.578393,-10.254063,1.8921189999999999,-0.034424,-0.032349,1.040543
920,-8.545052,-12.939651,-0.122072,-0.021241,-0.018677000000000003,0.931167
924,-11.169604,-11.779964999999999,0.427253,0.0008550000000000001,-0.024413999999999998,0.996231
928,-17.578393,-9.338521,0.732433,0.002075,-0.032349,0.996109
932,-24.170291,-8.42298,0.061036,-0.012085,-0.00293,0.957168
936,-36.621653,-8.1178,-0.122072,0.036133,-0.061890999999999995,1.001724
940,-35.461967,-3.967346,4.089418,0.009644,-0.085328,1.062638
944,-39.856565,-3.173877,-1.342794,-0.041016000000000004,-0.046632,0.985367
948,-55.786984,-4.8218510000000006,-1.953155,0.111696,-0.223392,1.0880290000000001
952,-111.573968,1.281758,-23.498894,0.099245,0.215335,0.772595
956,-463.26390499999997,-20.019837,-49.317159000000004,0.16589600000000002,0.409186,1.491356
960,-869.947356,-210.14725,60.425727,0.628428,-2.0000310000000003,1.9999689999999999
964,61.036088,12.512398,-36.1944,0.017212,1.0251620000000001,1.9999689999999999
968,145.326925,24.719615,13.672084,-0.04419,0.52723,0.6694439999999999
972,177.18776200000002,4.577707,-6.042573,0.13843,0.282963,0.6148779999999999
976,219.607843,3.90631,-33.875029,-0.048951,0.13281500000000002,1.1696959999999998
980,288.15137000000004,36.987869,-19.287404000000002,-0.18420699999999998,-0.158083,1.356222
984,319.82909900000004,60.303655000000006,-13.794156,0.206058,-0.542611,0.895033
988,228.763256,42.786297,-35.706111,0.421759,-0.310307,1.623682
992,267.948425,72.14465600000001,-66.71244399999999,-0.046021,-0.626596,1.9999689999999999
996,279.423209,91.30998699999999,-55.603876,0.208499,-0.81471,1.883207
1000,232.486458,108.278019,-71.656367,0.183474,-1.214496,1.286885
1004,114.747845,125.490196,-28.015564,0.470344,-2.0000310000000003,0.627695
1008,-119.26451499999999,-95.338369,64.637217,-0.002075,-2.0000310000000003,-1.8436560000000002
1012,-124.87983500000001,-96.131838,38.391698999999996,-0.017945,0.999527,1.540551
1016,-241.580835,-42.175937,26.977951,1.112566,-0.096071,1.9999689999999999
1020,-125.55123200000001,-86.549172,55.115587,-0.66627,-0.652354,1.458518
1024,-46.204318,-29.785611,11.841001,-0.634409,0.028199000000000002,0.762707
1028,-16.357671,-20.813306,-3.173877,0.113649,0.107179,1.054337
1032,-23.010604999999998,-5.493248,1.7700470000000001,0.057008,0.008545,1.057023
1036,-13.000687,0.6103609999999999,2.685588,-0.004028,0.009276999999999999,1.00148
1040,-13.916228,-5.0049589999999995,0.549325,-0.013184,-0.002441,1.0788739999999999
1044,-14.465553,-15.564201999999998,0.366217,-0.0074459999999999995,-0.032593000000000004,1.029435
1048,-6.71397,-10.009917999999999,0.0,0.022338999999999998,-0.007691,0.9506979999999999
1052,-14.282444,-8.484016,2.50248,0.013428,-0.031006,1.02211
1056,-12.573433999999999,-9.277485,0.366217,0.019165,-0.020630000000000003,0.9922030000000001
1060,-24.597542999999998,-11.23064,0.0,0.042237000000000004,-0.037232,0.995743
1064,-20.386053,-5.3101400000000005,1.037613,0.036011,-0.059327,1.00502
1068,-25.329976000000002,-7.934691,1.647974,0.02295,0.024048,1.030289
1072,-38.330663,-2.929732,3.356985,0.071534,-0.023194,0.972183
1076,-56.885633999999996,7.2022580000000005,4.150454,0.028199000000000002,-0.096437,1.061418
1080,-62.928206,3.845274,-29.541465999999996,0.08191,-0.277592,1.09633
1084,-39.185168,13.000687,-11.169604,0.054444000000000006,0.351446,0.9161520000000001
1088,-335.820554,-30.457008000000002,-8.361944,-0.052125,1.222431,1.9999689999999999
1092,-997.268635,-85.57259499999999,130.80033600000002,0.440436,-2.0000310000000003,1.9999689999999999
1096,83.92461999999999,-5.432212,8.056764,-0.576303,0.488899,1.12929
1100,72.999161,-36.072328000000006,13.427939000000002,0.10351700000000001,0.5416340000000001,0.560311
1104,115.23613300000001,-41.016251000000004,-16.540779999999998,-0.143801,0.412238,0.7380479999999999
1108,211.55107999999998,1.342794,-28.0766,-0.30457,0.20642399999999997,0.964736
1112,240.604257,17.639429,-18.24979,-0.0907,0.059571000000000006,0.838025
1116,241.947051,49.073014,-30.273899,0.059815,-0.135378,1.1808040000000002
1120,229.861906,84.71809,-49.378195,0.08996699999999999,-0.239017,1.8983439999999998
1124,292.057679,77.821012,-39.429313,0.08923500000000001,-0.534432,1.922881
1128,299.748226,72.14465600000001,-36.316472,0.147585,-0.6362399999999999,1.9999689999999999
1132,219.72991499999998,85.69466700000001,-57.618067,0.439094,-0.847303,1.432151
1136,77.759976,60.914015,-44.251164,0.171389,-2.0000310000000003,1.191547
1140,-147.096971,-121.52285,57.557031,0.472786,-2.0000310000000003,-1.10695
1144,-147.707332,-67.444877,41.260395,0.078859,0.977066,1.376242
1148,-260.013733,-29.663539,14.526589000000001,0.619516,-0.44653999999999994,1.9999689999999999
1152,-81.36110500000001,-134.889754,31.555657,1.9508349999999999,0.364874,1.9999689999999999
1156,-25.818265,-38.086519,-2.014191,0.520516,0.050416,1.278828
1160,-30.395971999999997,-8.850233,2.319371,0.027587999999999998,-0.036255,1.152361
1164,-20.141909,5.065995,3.479057,0.05774,0.020874,1.0515299999999999
1168,-18.371862,7.446403,4.455634,0.009155,0.056031,0.9710840000000001
1172,-17.456321,5.981537,2.746624,-0.000488,-0.033326,1.029679
1176,-13.916228,3.051804,1.586938,0.000977,-0.023926,1.009049
1180,-13.611048,2.319371,1.09865,-0.018189,-0.040894,0.9867090000000001
1184,-10.009917999999999,-2.80766,0.244144,-0.023804,-0.05359,1.00795
1188,-5.981537,-3.418021,-0.671397,0.000366,-0.040894,1.050065
1192,-12.695506,-4.21149,2.014191,0.008179,-0.061646000000000006,0.955825
1196,-32.898451,-10.986496,-0.671397,0.006226,-0.045899,0.9984280000000001
1200,-36.133364,-6.836042,0.0,-0.010498,-0.062989,0.9626610000000001
1204,-38.635843,1.8310830000000002,6.71397,0.000488,-0.109499,1.0080719999999999
1208,-33.142596000000005,1.40383,-8.484016,-0.08618300000000001,-0.038575,0.9694969999999999
1212,-34.973678,-3.356985,-10.925460000000001,0.020752,-0.220951,1.023087
1216,-106.32486499999999,14.282444,-21.240558,-0.0094,0.276127,0.823377
1220,-588.998245,-25.329976000000002,-34.668498,-0.600839,0.328496,1.980011
1224,-1067.460136,-196.475166,184.634165,-1.2293889999999998,-1.388449,1.9999689999999999
1228,-33.325703999999995,-12.573433999999999,19.65362,-0.298344,0.91664,1.9999689999999999
1232,95.399405,-2.50248,18.371862,-0.094362,0.40576799999999996,0.49622299999999997
1236,153.078508,-17.395285,10.193027,0.062989,0.324834,0.972793
1240,231.998169,6.591897,-20.080873,0.004517,0.200076,1.252461
1244,311.589227,25.329976000000002,-18.982223,-0.119875,-0.21033000000000002,1.34255
1248,313.60341800000003,36.255435999999996,-32.532235,0.21936399999999998,-0.49817700000000004,0.952041
1252,220.09613199999998,66.71244399999999,-58.533607999999994,0.11816600000000001,-0.360601,1.562036
1256,280.33875,101.014725,-55.786984,-0.028564999999999997,-0.7105819999999999,1.9999689999999999
1260,272.709239,95.033188,-52.796216,0.545663,-0.823743,1.9310599999999998
1264,223.331044,85.267414,-65.67483,0.24097,-1.561547,1.3941860000000001
1268,106.141756,80.750744,-11.718929,0.572274,-2.0000310000000003,0.079347
1272,-157.595178,-152.712291,53.955901000000004,0.8191039999999999,-1.922393,-0.679088
1276,-198.733501,-85.938811,34.912642,-0.716808,0.511727,-0.327031
1280,-205.996796,2.075227,28.137635999999997,1.5989010000000001,-0.217166,1.9999689999999999
1284,-76.539254,-110.04806599999999,40.955215,1.222797,0.294926,1.9999689999999999
1288,-35.461967,-43.457694000000004,-2.014191,0.511971,0.085573,1.2846879999999998
1292,-14.343481,-13.000687,-1.953155,0.029541,0.021363,1.118791
1296,-12.512398,0.427253,2.929732,0.031861,0.038331,1.00209
1300,-16.784924,-3.1128400000000003,2.868696,-0.038941,0.016358,0.985611
1304,-15.320058,-0.793469,3.234913,0.032105,0.015869,0.9754790000000001
1308,-15.686275,2.50248,2.685588,-0.008301000000000001,0.002441,1.000137
1312,-17.578393,-1.70901,2.014191,0.011597,-0.023194,1.011002
1316,-16.601816,-3.479057,2.380407,0.008423,-0.026001,1.002945
1320,-11.718929,-5.188067,1.40383,0.015381,-0.030274000000000002,0.9939120000000001
1324,-17.578393,-6.469825,2.075227,0.011109,-0.040162,0.9583889999999999
1328,-26.733806,-6.652933999999999,1.2207219999999999,0.018677000000000003,-0.026246,0.999649
1332,-31.494621000000002,-4.638743,0.366217,0.042237000000000004,0.005737,0.893202
1336,-46.082246000000005,4.943923000000001,5.9205,-0.012329000000000001,-0.08142200000000001,1.023209
1340,-37.59823,2.319371,-11.291675999999999,-0.10425,-0.037842,1.0247959999999998
1344,-37.59823,2.380407,0.244144,-0.031373000000000005,-0.159915,0.984268
1348,-143.923095,11.474784,-14.221407999999998,0.037842,0.607797,0.72755
1352,-744.090944,-89.53994,33.936065,-0.553719,0.040406,1.222309
1356,-230.045014,-127.687495,-23.620966,0.257939,-1.184588,1.9999689999999999
1360,-59.327077,-34.363316999999995,-44.495308,-0.22900700000000002,0.363043,1.3228959999999998
1364,131.288624,-4.333562000000001,-41.260395,-0.247074,0.252201,1.133318
1368,219.79095099999998,5.554284,-46.082246000000005,-0.099001,0.22741999999999998,0.944106
1372,273.07545600000003,43.335622,-60.547799,-0.076905,0.04773,1.272724
1376,315.007248,65.857939,-72.083619,0.030274000000000002,-0.24426599999999998,0.9837799999999999
1380,230.228122,113.221942,-48.279545,0.079957,-0.323735,1.197284
1384,273.44167200000004,131.77691299999998,-10.803388,-0.0008550000000000001,-0.574105,1.9999689999999999
1388,306.340124,110.658427,39.551384999999996,0.075441,-0.9587549999999999,1.9999689999999999
1392,263.614862,100.770581,37.232013,0.6026699999999999,-1.0907149999999999,1.859648
1396,115.90753000000001,156.069276,5.371176,0.932631,-2.0000310000000003,0.808728
1400,-94.483864,-65.247578,71.351186,-0.014038,-2.0000310000000003,-2.0000310000000003
1404,-138.612955,-117.25032399999999,29.907683000000002,-1.001236,0.653941,1.381491
1408,-288.883803,-46.143282,85.145342,1.9999689999999999,-0.128298,1.9999689999999999
1412,-113.771267,-48.157472999999996,37.048905,-1.9781799999999998,-0.813855,1.115007
1416,-38.025483,-25.146867999999998,8.300908,-1.068986,-0.099367,0.989883
1420,-27.710384,-28.809033000000003,0.976577,0.058961,0.119387,1.231708
1424,-18.432898,3.540093,1.40383,0.123293,0.025513,1.068864
1428,-18.310826000000002,9.643702000000001,1.342794,0.038452999999999994,-0.155642,0.773938
1432,-25.024796,-1.586938,1.8310830000000002,-0.011840999999999999,0.019776,0.993301
1436,-16.479744,1.281758,2.380407,0.002075,-0.0070799999999999995,0.9950100000000001
1440,-14.221407999999998,-4.394598,2.136263,-0.025879000000000003,-0.027955,0.9911040000000001
1444,-14.587625,-11.902037,0.427253,-0.009033,-0.018189,0.9626610000000001
1448,-15.014878,-11.169604,0.061036,0.031617,-0.055299,1.013077
1452,-18.188754,-8.484016,0.549325,0.022583000000000002,-0.030151999999999998,0.970108
1456,-29.419394,-10.498207,-0.366217,0.031861,-0.055542999999999995,1.021134
1460,-30.701152,-3.173877,-0.671397,0.036988,-0.053712,0.9660790000000001
1464,-40.161746,8.1178,7.01915,0.027710000000000002,-0.09289700000000001,0.944472
1468,-45.654994,-1.647974,-12.573433999999999,-0.030762,-0.158816,0.965103
1472,-36.743725,-0.671397,-5.61532,0.081788,-0.260746,1.046403
1476,-145.876249,22.888533,-34.79057,-0.035035000000000004,0.390753,0.490608
1480,-578.9883269999999,-161.31838,-15.381094000000001,-0.87892,0.203006,1.28957
1484,-579.293507,-151.125353,225.28419900000003,-0.846571,-1.4538799999999998,1.9999689999999999
1488,10.193027,25.879301,40.772107,-0.525887,0.364996,-0.025879000000000003
1492,52.307927,32.959487,39.734493,0.148806,0.442267,0.48718999999999996
1496,137.392233,9.155413000000001,-1.2207219999999999,0.275517,0.47522700000000007,1.122087
1500,239.261463,27.649348,-34.119172999999996,0.09472799999999999,0.130129,1.357198
1504,290.16556,36.255435999999996,-34.302281,0.170779,-0.126589,1.100481
1508,287.66308100000003,34.424353,-63.416495,0.357061,-0.396246,1.032486
1512,228.213931,56.641489,-84.657053,0.12451400000000001,-0.336065,1.993683
1516,283.573663,76.60029,-63.294422999999995,0.10656900000000001,-0.6540630000000001,1.9999689999999999
1520,281.559472,92.408637,-71.595331,0.449104,-0.864149,1.7991
1524,214.541848,89.84512099999999,-74.09781,0.257694,-1.960113,1.1899600000000001
1528,84.046693,173.525597,-33.69192,0.30994099999999997,-2.0000310000000003,-0.453132
1532,-213.992523,-171.938659,42.90837,0.977066,-0.58265,1.215717
1536,-273.25856400000004,-108.09491100000001,61.524376000000004,-0.067506,-0.120729,-1.441184
1540,-162.72221000000002,36.49958,-18.005646,-0.393805,-0.0177,1.9999689999999999
1544,-73.365377,-66.163119,26.306554,1.348165,0.157961,1.712306
1548,-42.481117,-11.841001,0.0,-0.10974300000000001,-0.075441,1.0874190000000001
1552,-15.13695,-7.751583,1.647974,-0.023804,0.022583000000000002,1.0724040000000001
1556,-9.887846000000001,0.9155409999999999,2.319371,0.000977,0.034913,1.001236
1560,-16.235599,-1.953155,2.50248,-0.0177,0.010986,0.9956209999999999
1564,-14.282444,-5.3101400000000005,2.319371,-0.046265,0.008545,1.002579
1568,-21.118485999999997,-0.9155409999999999,-2.380407,0.044677999999999995,-0.36609400000000003,0.670176
1572,-16.113526999999998,2.2583349999999998,4.150454,-0.006836,-0.014038,0.999527
1576,-15.381094000000001,-2.685588,2.80766,-0.035401,-0.028564999999999997,0.993301
1580,-12.268253999999999,-9.216449,0.793469,-0.043458,0.010742,1.022599
1584,-14.953841,-9.277485,1.342794,0.011231,-0.065919,1.005997
1588,-23.682002,-3.540093,2.50248,0.008911,-0.015259,0.97377
1592,-34.729534,-1.09865,3.90631,0.021851,-0.06384400000000001,1.01442
1596,-38.879988,2.136263,8.606088,-0.012451,-0.057496000000000005,1.012589
1600,-45.532921,-5.188067,0.183108,-0.07361000000000001,-0.059571000000000006,0.968032
1604,-52.979324,-5.127031,-8.911269,0.089357,-0.384894,1.1205
1608,-65.735866,1.281758,-14.282444,0.004883,0.154055,0.897597
1612,-288.639658,-18.738079,-36.255435999999996,0.16614,0.786511,1.078752
1616,-874.158846,-11.169604,73.609522,0.53077,-2.0000310000000003,1.9999689999999999
1620,175.66186000000002,-45.593957,-68.48249,-0.434943,1.45449,1.193011
1624,99.488823,-31.067369,-7.01915,-0.08996699999999999,0.671397,0.77113
1628,130.373083,-38.818952,-16.479744,-0.132448,0.468391,0.8712290000000001
1632,219.05851800000002,-13.794156,-37.476158,-0.15967,0.24048200000000003,1.329488
1636,285.038529,16.662851999999997,-40.527962,-0.14612,-0.019043,0.988907
1640,250.003815,59.14396899999999,-49.500267,-0.008179,-0.38941,0.577279
1644,218.997482,87.70885799999999,-64.69825300000001,-0.006836,-0.271489,1.9999689999999999
1648,244.449531,96.49805400000001,-14.648660999999999,-0.156619,-0.8047,1.8779580000000002
1652,284.24506,67.261769,18.432898,0.201785,-0.797375,1.916655
1656,239.62767999999997,61.280232,-8.850233,0.266361,-0.9555809999999999,1.6506599999999998
1660,138.551919,76.295109,-10.559242999999999,0.466438,-2.0000310000000003,0.566537
1664,-1.281758,0.061036,2.563516,0.474372,-2.0000310000000003,-0.14416700000000002
1668,-100.58747199999999,-52.796216,10.864424,-0.364385,0.9034559999999999,1.9999689999999999
1672,-292.36286,-50.720989,72.877089,1.176165,-0.29382800000000003,1.9999689999999999
1676,-181.643397,16.357671,22.522316,-2.0000310000000003,-0.6143890000000001,1.9999689999999999
1680,-50.354772,0.0,11.413748,-0.758679,0.028443,1.076432
1684,-31.128404999999997,-22.46128,0.183108,-0.227298,0.013184,1.132097
1688,-13.855192,-3.90631,3.356985,0.086549,0.08484,1.029679
1692,-14.099336,-0.061036,4.455634,-0.005737,0.075441,0.9625389999999999
1696,-14.404517000000002,-8.239872,1.09865,-0.015259,0.011353,1.017105
1700,-11.902037,-9.277485,1.70901,0.017456,0.075441,1.000259
1704,-6.652933999999999,-3.6621650000000003,0.793469,-0.0028079999999999997,0.000977,0.9902489999999999
1708,-11.169604,-4.638743,0.427253,0.003906,0.008301000000000001,0.972671
1712,-17.761501000000003,-7.2022580000000005,0.30518,0.022095,-0.030151999999999998,1.0080719999999999
1716,-16.418708,-2.380407,2.990768,0.027710000000000002,-0.011840999999999999,1.014298
1720,-18.310826000000002,0.061036,3.234913,0.009888,-0.000366,0.981582
1724,-27.893492,-1.8921189999999999,1.525902,-0.0058590000000000005,-0.010376,0.95375
1728,-48.462654,-2.990768,6.469825,0.057374,-0.094606,1.124651
1732,-40.161746,1.281758,1.159686,-0.056275,-0.099611,0.9790190000000001
1736,-66.77348,-3.1128400000000003,-25.635157,0.086061,-0.18420699999999998,1.006119
1740,-31.250477000000004,1.953155,-6.591897,0.027222000000000003,0.047608,0.9792629999999999
1744,-201.174945,-13.672084,-43.091478,-0.134279,0.763073,0.831067
1748,-857.0077060000001,-92.286564,29.358358000000003,0.17468499999999998,-0.354986,1.08986
1752,298.40543199999996,-2.136263,-13.244831,-0.803723,0.85182,1.9999689999999999
1756,67.20073199999999,-57.862211,11.596857,0.11548,0.500374,1.0160069999999999
1760,122.072175,-12.63447,-34.363316999999995,-0.146242,0.554574,0.8723280000000001
1764,195.37651599999998,8.239872,-28.625925,-0.316533,0.254276,1.029068
1768,248.35584,29.358358000000003,1.7700470000000001,-0.158328,0.048463,1.250385
1772,304.936294,52.918288000000004,-11.169604,0.266239,-0.357671,0.818616
1776,240.66529300000002,40.588998,-35.88922,0.219852,-0.163821,1.663966
1780,256.16846,87.037461,-51.087205,-0.061646000000000006,-0.587411,1.9999689999999999
1784,288.639658,78.370336,-27.344167,-0.014649,-0.898573,1.89163
1788,256.04638700000004,70.069429,-38.635843,0.380255,-0.902235,1.6892349999999998
1792,166.14023,67.383841,-36.621653,0.410163,-2.0000310000000003,0.7696649999999999
1796,17.090104999999998,47.119859999999996,-24.841688,0.315679,-2.0000310000000003,-0.558846
1800,-167.97131299999998,-111.329824,38.452735,-0.100221,0.218875,1.174823
1804,-344.731823,-105.470359,79.530022,0.494026,-0.236576,0.905409
1808,-127.199207,34.851606,-24.292363,-0.510262,-0.16894800000000001,1.829984
1812,-79.40795,-88.31921899999999,29.846646999999997,1.436667,0.232303,1.9999689999999999
1816,-37.170977,-43.091478,-1.281758,0.49256099999999997,0.093751,1.362814
1820,-36.072328000000006,-6.897078,2.197299,-0.021851,-0.006226,1.125017
1824,-18.066682,5.859464,3.90631,0.021485,0.047363999999999996,1.00441
1828,-23.132676999999997,-2.624552,2.868696,-0.009888,0.030639999999999997,0.998184
1832,-16.968032,-4.638743,2.746624,-0.009155,0.014649,1.006973
1836,-12.817578,-5.737392,2.014191,0.019043,0.045655,1.019791
1840,-11.779964999999999,-6.836042,0.671397,0.004639,-0.030151999999999998,0.928481
1844,-11.657893,-8.239872,-0.122072,0.029419,-0.015381,0.9627829999999999
1848,-11.779964999999999,-6.408789,0.549325,0.025757,-0.00061,1.018936
1852,-22.1561,-5.737392,0.976577,0.030639999999999997,-0.014405000000000001,0.9792629999999999
1856,-26.489662,-4.699779,1.342794,0.029175,-0.021851,0.995132
1860,-34.79057,-5.188067,1.70901,0.061890999999999995,-0.041382,1.0439610000000001
1864,-40.40589,3.723201,4.577707,-0.003662,-0.021973,1.056168
1868,-48.52369,-0.732433,-13.061722999999999,-0.060426,-0.11950899999999999,1.020157
1872,-36.377508,2.4414439999999997,-8.972305,0.164675,-0.26269899999999996,1.140398
1876,-112.184329,26.550697999999997,-22.46128,-0.037598,0.45581800000000006,0.703624
1880,-461.73800300000005,-68.909743,-57.923246999999996,-0.7581899999999999,0.42969399999999996,1.017716
1884,-1147.051194,-255.00877400000002,255.313954,-1.003433,-0.897597,1.9999689999999999
1888,61.158159999999995,28.564889,34.424353,-0.790295,0.706554,0.38721300000000003
1892,59.449149,-3.418021,45.838102,0.23120500000000002,0.542733,0.542
1896,127.870604,20.263981,-8.911269,0.095705,0.461921,1.214984
1900,227.11528199999998,39.978637,-28.747996999999998,-0.053101,0.10669100000000001,1.302266
1904,293.705653,48.82887,-18.005646,0.235721,-0.144656,1.202167
1908,298.771649,52.429999,-77.69894000000001,0.522957,-0.422858,1.273823
1912,236.758984,74.341955,-98.69535400000001,-0.141482,-0.776745,0.906752
1916,243.04570099999998,107.789731,-41.016251000000004,0.007568000000000001,-0.741344,1.9999689999999999
1920,259.586481,100.892653,6.591897,0.205447,-0.9709620000000001,1.848173
1924,216.311894,57.49599499999999,34.058137,0.078614,-1.5807129999999998,1.360616
1928,117.982757,122.86564399999999,7.812619000000001,0.68043,-2.0000310000000003,0.45361999999999997
1932,-206.424048,-187.19768100000002,59.63225799999999,1.055558,-1.7796900000000002,-1.4769510000000001
1936,-234.866865,-104.493782,38.513771000000006,-0.870497,0.191409,-0.13159400000000002
1940,-129.579614,-21.972992,16.968032,1.3936979999999999,-0.390997,1.857939
1944,-67.627985,-103.639277,21.362631,1.298726,0.210575,1.9999689999999999
1948,-20.386053,-27.527276,-6.164645,0.389532,0.094484,1.2024110000000001
1952,-22.034028,-4.455634,0.0,-0.062989,-0.0063479999999999995,1.0390780000000002
1956,-16.113526999999998,0.48828900000000003,2.685588,0.047974,0.034791,1.033341
1960,-14.526589000000001,6.530861,3.90631,-0.014893,0.020630000000000003,1.002823
1964,-11.047532,5.0049589999999995,1.342794,-0.019653999999999998,0.009522,1.085588
1968,-9.887846000000001,0.976577,1.8921189999999999,-0.024537,0.026978,0.992691
1972,-11.474784,0.793469,1.464866,-0.022705,-0.005615,0.988418
1976,-9.52163,-2.2583349999999998,1.586938,-0.032837,-0.006958,1.023819
1980,-9.399557000000001,-8.667124000000001,-0.366217,-0.022705,-0.004761,0.985611
1984,-11.902037,-10.437171000000001,0.30518,-0.005737,0.005737,0.9946440000000001
1988,-18.310826000000002,-7.751583,1.037613,-0.000244,0.005493,0.9873200000000001
1992,-25.879301,-5.676356,1.70901,0.016602000000000002,-0.031373000000000005,1.010391
1996,-29.724575,-3.90631,1.2207219999999999,0.013306,-0.039918,0.99379
2000,-29.236286,0.48828900000000003,5.371176,0.053834,-0.049561,0.984634
2004,-32.532235,2.624552,0.244144,0.09131,-0.166751,0.826673
2008,-44.129090999999995,-0.793469,-18.188754,-0.031617,-0.016968,0.9873200000000001
2012,-32.593271,-2.80766,-6.958114,0.012573,-0.138918,1.017716
2016,-145.265888,-0.9155409999999999,-22.1561,0.038331,0.535042,0.6049899999999999
2020,-607.370108,-69.520104,6.347753,-0.519173,-0.044312,1.02211
2024,-695.262074,-222.354467,195.37651599999998,-0.134524,-0.8482799999999999,1.9999689999999999
2028,-26.67277,27.038987,-13.611048,-0.473884,0.560189,1.438743
2032,62.684062,-6.408789,19.836728,-0.20325,0.230594,0.48548100000000005
2036,146.913863,25.26894,-9.094377,0.158694,0.43408900000000006,1.0648360000000001
2040,249.027237,40.10071,-37.659265999999995,0.014282,-0.081544,1.1002370000000001
2044,273.624781,58.411536,-37.537194,0.066163,-0.578378,1.2433049999999999
2048,269.657435,61.890593,-27.466239,-0.057984,-0.9515530000000001,1.1899600000000001
2052,231.387808,62.012665000000005,-9.399557000000001,0.117922,-0.8281379999999999,1.325216
2056,180.972,53.528649,-8.239872,0.037354000000000005,-0.7208359999999999,1.3458459999999999
2060,180.239567,60.486763,-15.442129999999999,-0.009155,-0.6004729999999999,1.6947279999999998
2064,158.937972,82.21561,-9.82681,-0.016846,-0.708507,1.467185
2068,133.97421200000002,111.69604,16.662851999999997,0.222171,-1.00795,1.139788
2072,115.66338600000002,49.195087,7.6905470000000005,0.591928,-2.0000310000000003,-1.153948
2076,-154.05508500000002,-93.812467,-5.554284,0.866468,-0.138918,1.138079
2080,-260.563058,-75.135424,28.931106,-1.202533,-0.703868,0.688609
2084,-115.114061,-50.2327,15.075914000000001,0.24243499999999998,0.120119,1.9999689999999999
2088,-28.870069,-30.823224,11.718929,0.44715,0.099001,1.302632
2092,-33.569848,-21.789883,0.244144,0.026978,0.018433,1.092912
2096,-18.066682,-6.775005999999999,2.197299,0.042602999999999995,0.0021969999999999997,1.052873
2100,-21.606775,-1.09865,5.127031,-0.030151999999999998,0.056275,0.946792
2104,-30.273899,-6.469825,1.525902,-0.021485,0.013916,0.9907379999999999
2108,-25.391012,-13.427939000000002,-0.854505,-0.029053,-0.008301000000000001,1.044938
2112,-25.818265,-16.174563,0.244144,0.00061,-0.036988,1.0274809999999999
2116,-17.822538,-9.033341,-0.30518,0.034791,-0.043946,1.032853
2120,-15.503166,-3.967346,-0.30518,0.017823,-0.074586,1.045182
2124,-7.568475,-2.014191,0.122072,0.025147,-0.063111,1.011124
2128,-4.333562000000001,-0.549325,0.48828900000000003,0.025147,-0.073121,1.005631
2132,-1.8921189999999999,2.136263,0.854505,0.012695999999999999,-0.069093,1.000259
2136,-4.272526,0.366217,0.427253,-0.000732,-0.048341,0.9664450000000001
2140,-0.183108,-0.427253,-1.2207219999999999,0.021363,-0.075929,1.006729
2144,-0.366217,-1.8310830000000002,-1.525902,0.01709,-0.064576,1.003922
2148,2.990768,1.2207219999999999,0.48828900000000003,0.024903,-0.09192,1.015763
2152,6.71397,1.8921189999999999,0.244144,0.0177,-0.062989,1.001724
2156,1.342794,2.014191,0.732433,0.008911,-0.05139199999999999,0.992691
2160,3.234913,1.464866,0.30518,-0.002686,-0.06286699999999999,0.989883
2164,4.089418,-0.671397,-1.70901,0.0177,-0.05127,1.003067
2168,5.432212,3.356985,1.037613,0.019653999999999998,-0.046876,1.005264
2172,4.699779,2.2583349999999998,0.732433,0.009155,-0.064942,0.984512
2176,8.1178,-0.793469,-1.586938,-0.0015869999999999999,-0.017212,0.937514
2180,-6.897078,-1.2207219999999999,2.990768,0.018921,-0.065309,1.0251620000000001
2184,-2.990768,-5.981537,-0.549325,-0.008057,-0.031738999999999996,0.976089
2188,-2.014191,-5.127031,-1.525902,0.054077999999999994,-0.07019199999999999,1.0477450000000001
2192,7.507439,4.150454,-0.366217,0.011231,-0.036622,0.9799950000000001
2196,2.075227,2.075227,-1.953155,0.008911,-0.055421000000000005,1.014176
2200,3.540093,0.732433,-0.244144,-0.007935,0.041627,0.890394
2204,-1.7700470000000001,2.197299,-0.549325,0.033692,-0.037964,1.010147
2208,-3.051804,-1.8921189999999999,-2.075227,0.023316,-0.08142200000000001,1.055436
2212,3.234913,5.127031,1.647974,0.014893,-0.090822,1.0628819999999999
2216,5.065995,4.455634,1.525902,0.012329000000000001,-0.020752,0.9716950000000001
2220,1.586938,-1.953155,-0.183108,-0.011475,-0.086427,1.0601969999999998
2224,3.295949,-6.897078,-1.8310830000000002,-0.004028,0.004883,0.953506
2228,-6.897078,-4.760815,-0.732433,0.026368,-0.034058,1.0251620000000001
2232,-0.061036,-4.455634,-1.525902,0.014405000000000001,-0.036866,1.018936
2236,-8.667124000000001,-2.80766,-0.366217,0.031127999999999996,-0.038819,1.014298
2240,-5.7984279999999995,-1.586938,-0.976577,0.020142,-0.043091000000000004,1.024308
2244,-0.6103609999999999,-0.061036,-0.427253,0.016846,-0.041627,1.017105
2248,-0.976577,0.0,-3.356985,0.008179,-0.029664,0.979873
2252,0.854505,0.061036,-0.793469,0.015625,-0.030274000000000002,1.0156399999999999
2256,-3.479057,-1.953155,-0.793469,0.027955,-0.011475,0.982559
2260,-0.48828900000000003,-0.48828900000000003,0.0,0.033936,-0.031006,0.973526
2264,-2.50248,-1.464866,0.793469,0.023804,-0.042237000000000004,1.01442
2268,1.2207219999999999,0.30518,0.30518,0.015259,-0.028443,0.996597
2272,-8.728161,-1.281758,1.159686,0.0094,-0.076539,0.986099
2276,3.90631,0.854505,1.037613,0.011231,-0.027344,0.9984280000000001
2280,2.075227,0.183108,-0.244144,0.004639,-0.010498,0.979751
2284,2.868696,0.48828900000000003,-0.671397,0.022338999999999998,-0.015259,0.989395
2288,3.479057,0.0,0.0,0.011231,-0.027955,1.004532
2292,2.4414439999999997,-0.671397,1.342794,0.021485,0.005005,0.9746239999999999
2296,0.244144,0.244144,-0.122072,0.018189,-0.016602000000000002,1.006119
2300,-1.2207219999999999,-0.732433,0.793469,0.02356,-0.0074459999999999995,1.002213
2304,6.103609,-1.037613,3.234913,0.024781,-0.016602000000000002,1.000504
2308,3.784237,0.671397,0.48828900000000003,0.028931000000000002,0.003052,0.992935
2312,-0.732433,1.09865,-2.319371,0.031861,-0.005493,0.9959870000000001
2316,-2.2583349999999998,1.09865,-2.380407,0.014159999999999999,-0.002441,0.9984280000000001
2320,0.427253,0.793469,-2.50248,0.019287000000000002,-0.009033,1.008804
2324,0.30518,0.9155409999999999,-2.380407,0.008789,-0.005615,1.0053860000000001
