Packet number,Gyroscope X (deg/s),Gyroscope Y (deg/s),Gyroscope Z (deg/s),Accelerometer X (g),Accelerometer Y (g),Accelerometer Z (g)
0,0.671397,0.549325,0.061036,0.000732,0.008667,1.00209
2,0.793469,-0.122072,0.0,0.0008550000000000001,0.010376,1.003067
4,0.366217,-0.30518,0.0,-0.0035399999999999997,0.009766,0.992691
6,-0.122072,-0.48828900000000003,-0.122072,-0.001099,0.011109,1.002457
8,0.30518,-0.30518,0.0,-0.002686,0.013062,0.9939120000000001
10,-0.122072,-0.244144,0.0,-0.001221,0.011231,0.99855
12,0.122072,-0.30518,0.0,0.000122,0.0058590000000000005,0.9984280000000001
14,0.427253,-0.30518,0.0,0.004761,0.0051270000000000005,1.000748
16,0.9155409999999999,-0.183108,-0.122072,0.000244,0.005493,1.002579
18,0.061036,-0.30518,-0.122072,-0.000122,0.00647,0.985367
20,0.244144,-0.183108,0.0,0.0021969999999999997,0.005249,0.995743
22,-0.30518,-0.183108,0.0,0.005615,0.004639,1.0008700000000001
24,0.061036,0.0,0.0,-0.003418,0.0070799999999999995,0.997818
26,0.427253,0.0,0.061036,-0.002564,0.0037840000000000005,1.004532
28,0.671397,0.122072,0.0,-0.0037840000000000005,0.0063479999999999995,0.999771
30,0.793469,0.122072,-0.183108,0.00293,-0.000488,0.991348
32,-0.122072,-0.30518,-0.122072,-0.005737,0.007324,1.001236
34,-1.159686,-0.48828900000000003,-0.183108,-0.0015869999999999999,0.005615,0.99379
36,-0.48828900000000003,0.122072,-0.122072,0.0031739999999999997,0.006958,1.0011139999999998
38,-0.793469,0.366217,0.0,0.001099,0.00061,1.002945
40,0.30518,0.671397,0.061036,0.004028,0.007812999999999999,1.001968
42,1.09865,0.183108,0.0,0.001343,0.001831,1.00209
44,0.671397,0.0,-0.122072,0.003296,0.004761,1.0085600000000001
46,0.366217,-0.122072,0.0,-0.000122,0.0028079999999999997,0.987808
48,0.244144,0.0,0.0,0.004273,0.007324,0.9973299999999999
50,0.244144,0.0,0.0,0.00293,0.0028079999999999997,1.005509
52,0.183108,0.0,0.0,0.0023190000000000003,0.001343,1.007706
54,0.671397,0.0,0.0,0.0023190000000000003,0.008423,1.0036770000000002
56,-0.122072,-0.061036,-0.122072,0.000122,0.0031739999999999997,1.003922
58,0.732433,0.0,-0.244144,-0.0037840000000000005,0.009644,0.989151
60,-0.244144,-0.183108,-0.122072,0.001343,0.003662,0.999771
62,0.061036,0.183108,0.061036,0.006226,0.0058590000000000005,1.003311
64,0.366217,0.9155409999999999,0.122072,0.0063479999999999995,0.002686,1.0047760000000001
66,0.427253,0.793469,0.061036,0.001953,0.004028,0.999771
68,0.549325,0.671397,0.0,-0.003296,0.004761,0.999771
70,1.037613,0.48828900000000003,0.0,-0.005615,0.002686,1.001236
72,0.976577,0.183108,0.0,-0.002686,0.003662,0.996719
74,0.48828900000000003,0.0,-0.122072,0.000732,0.0058590000000000005,0.9922030000000001
76,-0.183108,-0.061036,0.061036,0.001709,0.0063479999999999995,1.002335
78,0.0,0.0,0.0,0.001221,0.00293,1.002701
80,0.183108,0.122072,0.0,-0.001099,-0.001099,1.000626
82,0.9155409999999999,0.061036,0.0,0.001221,0.0021969999999999997,0.989151
84,1.159686,0.061036,-0.183108,0.007568000000000001,0.006104,1.005509
86,1.2207219999999999,0.122072,0.0,-0.001099,0.009522,0.995743
88,1.037613,0.122072,0.0,0.00293,0.013306,1.0031889999999999
90,0.671397,0.366217,-0.122072,0.00415,0.00415,1.003922
92,0.366217,0.30518,0.0,-0.001221,-0.000244,1.007706
94,0.732433,0.244144,0.061036,0.000488,0.002075,1.008438
96,0.9155409999999999,0.0,0.0,-0.000732,0.0051270000000000005,1.002945
98,0.48828900000000003,-0.183108,-0.122072,0.0021969999999999997,0.007324,1.003922
100,0.793469,0.122072,-0.122072,0.001221,0.005493,0.9948879999999999
102,0.366217,0.061036,0.0,-0.001099,0.001953,1.0011139999999998
104,0.732433,0.244144,0.0,0.00415,0.0063479999999999995,0.9980620000000001
106,0.976577,0.48828900000000003,-0.122072,-0.005737,0.002564,0.992813
108,1.2207219999999999,0.30518,0.0,0.001709,0.006836,0.9904940000000001
110,0.244144,-0.183108,-0.122072,0.000977,-0.0035399999999999997,1.0095370000000001
112,0.671397,0.061036,0.0,0.0023190000000000003,0.001709,0.999527
114,0.671397,0.0,0.183108,-0.006592,0.000488,0.9973299999999999
116,1.159686,0.244144,0.244144,0.0063479999999999995,0.009644,1.0040440000000002
118,0.976577,0.671397,0.183108,0.015137000000000001,0.006592,0.996475
120,1.342794,0.793469,0.244144,0.001831,0.00415,0.9984280000000001
122,2.136263,1.037613,0.30518,0.000977,-0.007568000000000001,1.0199129999999998
124,3.234913,1.159686,0.427253,0.001221,-0.0031739999999999997,1.0236969999999999
126,6.103609,1.342794,0.183108,-0.007201999999999999,0.014038,0.9823149999999999
128,6.042573,0.366217,0.0,-0.007935,0.022095,1.000504
130,5.493248,0.061036,-0.122072,-0.009033,0.016602000000000002,0.989517
132,4.638743,-0.122072,-0.183108,-0.00293,0.017212,1.0000149999999999
134,3.540093,0.0,-0.183108,-0.004883,0.013306,0.9952540000000001
136,4.089418,0.30518,-0.366217,-0.028321,0.017456,0.984268
138,3.90631,0.061036,-0.244144,0.0035399999999999997,0.014893,0.9902489999999999
140,3.051804,-0.366217,-0.122072,-0.002564,0.020508000000000002,0.9979399999999999
142,2.990768,-0.183108,-0.427253,-0.010376,0.019287000000000002,0.9948879999999999
144,2.014191,-0.671397,-0.122072,-0.003662,0.015747,1.001724
146,1.8310830000000002,-0.427253,-0.244144,-0.0015869999999999999,0.019409,0.9869540000000001
148,1.647974,-0.48828900000000003,0.0,-0.0031739999999999997,0.019043,0.996719
150,1.586938,-0.122072,0.061036,-0.011109,0.024781,0.984756
152,1.281758,-0.427253,0.122072,0.003418,0.018433,1.0008700000000001
154,1.647974,-0.6103609999999999,0.0,-0.000366,0.020630000000000003,0.992691
156,1.7700470000000001,-0.976577,0.0,0.019287000000000002,0.019776,1.001602
158,2.197299,-0.549325,0.061036,0.0037840000000000005,0.011963,0.995743
160,2.624552,-1.2207219999999999,0.671397,-0.005982,0.01648,0.9871979999999999
162,2.380407,-2.2583349999999998,0.671397,0.005737,0.038087,0.985
164,2.746624,-3.418021,0.366217,0.002564,0.021241,0.9901270000000001
166,2.746624,-3.418021,0.671397,0.019532,0.029175,0.9907379999999999
168,-0.122072,-1.647974,1.09865,0.01294,0.017456,1.009415
170,2.075227,0.671397,1.342794,0.015747,0.016236,1.050187
172,5.371176,1.2207219999999999,1.09865,-0.018677000000000003,0.046876,0.946059
174,-3.784237,-2.380407,0.183108,0.004883,0.053712,0.945815
176,-8.789197,-2.2583349999999998,0.061036,0.039185000000000005,0.013428,1.0365149999999999
178,-1.647974,1.342794,0.30518,0.013793999999999999,0.0,1.040055
180,0.671397,1.8921189999999999,0.671397,-0.005737,0.02295,0.984756
182,-0.6103609999999999,-0.061036,0.183108,0.00061,0.017823,0.9969629999999999
184,-1.7700470000000001,-1.281758,-0.30518,-0.006714,0.015259,0.988785
186,-1.525902,-2.2583349999999998,-0.48828900000000003,-0.002075,0.022705,0.9944
188,-0.30518,-1.037613,-0.48828900000000003,0.03772,0.009644,1.025528
190,-0.244144,1.281758,-0.183108,0.029419,0.012818000000000001,1.014298
192,1.464866,3.1128400000000003,0.061036,0.01001,0.015991,0.997452
194,0.976577,2.075227,0.0,0.0023190000000000003,0.018311,0.9862209999999999
196,1.525902,0.427253,-0.366217,-0.008179,0.018677000000000003,0.9799950000000001
198,1.7700470000000001,-0.48828900000000003,-0.427253,0.011475,0.003052,1.011368
200,3.356985,0.732433,-0.122072,0.006714,0.018311,0.9897610000000001
202,2.563516,1.342794,0.0,0.006836,0.026733999999999997,0.9813379999999999
204,-0.671397,1.09865,0.0,-0.005371,0.045533,0.944106
206,-7.01915,-0.9155409999999999,0.0,-0.007324,0.017945,0.97377
208,-11.718929,-2.50248,0.061036,0.010376,0.010498,0.994766
210,-9.82681,-1.8921189999999999,0.122072,0.010742,-0.005737,1.013077
212,-5.676356,0.244144,0.732433,0.014771000000000001,-0.003906,1.006485
214,-6.591897,0.48828900000000003,1.464866,0.01001,0.011475,0.9720610000000001
216,-12.268253999999999,-1.159686,1.525902,-0.001465,0.014159999999999999,0.968765
218,-14.831769,-1.159686,1.8921189999999999,0.025757,-0.0051270000000000005,1.0127110000000001
220,-12.146181,0.061036,2.380407,0.011353,-0.013672,1.019059
222,-10.376135000000001,0.061036,2.319371,-0.000977,-0.016724,1.0048979999999998
224,-10.498207,-1.647974,1.647974,0.000977,-0.001343,0.988907
226,-14.953841,-5.065995,2.2583349999999998,0.008057,-0.0043950000000000005,0.938125
228,-25.085832,-8.484016,2.868696,-0.003052,0.0023190000000000003,0.937392
230,-30.029754999999998,-8.728161,2.80766,0.025879000000000003,-0.04358,1.022477
232,-23.559929999999998,-7.263294,2.746624,0.009766,-0.056152999999999995,1.0167389999999998
234,-22.034028,-7.324331,2.50248,0.026246,-0.057374,1.001968
236,-25.513085,-8.42298,2.990768,0.020996,-0.064576,1.000504
238,-18.982223,-5.554284,2.990768,0.042602999999999995,-0.043091000000000004,1.022354
240,-20.386053,-4.028382,3.540093,0.030762,-0.008545,1.045914
242,-29.17525,0.183108,2.014191,0.029664,-0.061646000000000006,0.964981
244,-30.518044,0.793469,-1.7700470000000001,0.010986,-0.043824,0.9994049999999999
246,-32.959487,1.037613,-3.723201,0.006592,-0.06884900000000001,0.9876860000000001
248,-34.180209000000005,0.671397,-9.033341,-0.018677000000000003,-0.046998000000000005,1.03566
250,-66.285191,5.859464,-39.734493,0.057617999999999996,-0.035157,0.8930799999999999
252,-47.669184,2.868696,-11.108568,0.076417,-0.202029,1.057389
254,-51.880674,5.859464,-7.9957270000000005,0.07776,-0.13916199999999998,1.006485
256,-68.726635,13.244831,8.056764,0.039429,-0.067018,0.9190809999999999
258,-105.65346799999999,10.131991000000001,12.268253999999999,0.020263999999999997,-0.067262,0.91725
260,-138.673991,13.916228,-20.325017000000003,-0.029053,0.44947,1.125261
262,-385.99221800000004,40.466926,16.357671,0.109865,0.026368,1.463401
264,-437.689784,92.225528,-19.287404000000002,0.340093,0.083864,1.40798
266,-537.483787,143.86205800000002,39.30724,-0.008301000000000001,-1.046159,1.8023959999999999
268,-160.158694,57.190814,-37.90341,-0.591806,-0.9004040000000001,1.9999689999999999
270,-5.7984279999999995,50.537881,-10.254063,-0.38294,0.35242199999999996,1.383566
272,-43.152514000000004,13.672084,56.275273,0.155642,0.341924,1.136248
274,-17.090104999999998,-10.193027,26.428626,0.41834099999999996,0.525154,0.957778
276,48.157472999999996,-17.456321,-7.629511,0.392828,0.49012,1.21413
278,78.370336,-45.593957,-28.503853000000003,0.230106,0.384405,1.117815
280,114.86991699999999,-61.036088,-43.945983,0.088014,0.347051,0.985611
282,140.932326,-51.880674,-52.063783,-0.126101,0.22302600000000003,1.120012
284,168.703746,-37.29305,-45.410849,-0.32800799999999997,0.10620299999999999,1.2207219999999999
286,197.146563,-29.053178000000003,-27.649348,-0.390509,0.0015869999999999999,1.2019229999999999
288,216.49500299999997,-19.409476,-9.82681,-0.30737800000000004,-0.03772,1.319356
290,236.697948,-3.540093,-1.70901,-0.18115499999999998,-0.10254100000000001,1.491356
292,250.980392,3.6621650000000003,-5.065995,0.017334,-0.271977,1.024186
294,216.250858,16.906996,-23.804074,0.16125699999999998,-0.37585999999999997,0.797986
296,177.431907,25.818265,-42.90837,0.042237000000000004,-0.269413,1.732692
298,202.639811,30.640116,-50.598917,-0.052247,-0.335454,1.9999689999999999
300,235.599298,32.532235,-53.833829,-0.06836,-0.501839,1.635889
302,224.734875,30.029754999999998,-46.692607,-0.193118,-0.561898,1.9999689999999999
304,255.497063,27.405203000000004,-39.795528999999995,-0.07837000000000001,-0.581064,1.811063
306,247.98962400000002,35.156786,-42.236973,0.034668,-0.615854,1.541161
308,230.28915800000001,45.410849,-46.204318,0.018555000000000002,-0.6825060000000001,1.4463110000000001
310,208.987564,51.697565999999995,-44.61738,0.085084,-0.771984,1.161151
312,166.262303,58.472572,-47.73022,0.119387,-1.0167389999999998,0.81239
314,104.188602,73.975738,-58.04531899999999,0.197147,-1.4221409999999999,0.73695
316,60.914015,86.549172,-57.740139,0.155642,-1.890898,0.66273
318,28.442816999999998,29.297321999999998,-25.085832,-0.041138,-1.632349,-0.068116
320,-78.492409,-98.146029,38.147555,-0.220096,-1.255268,-0.161501
322,-143.37377,-138.918135,60.425727,0.20325,-1.350607,0.8686659999999999
324,-113.03883400000001,-60.364691,54.077974,0.16736099999999998,0.099733,0.583749
326,-248.35584,-67.627985,55.664912,0.800916,0.505745,1.340108
328,-215.945678,-41.748684000000004,19.226368,0.5793550000000001,-0.207767,1.93753
330,-147.524224,-28.564889,2.014191,-0.43372200000000005,-0.394049,1.9999689999999999
332,-89.600977,-82.459754,41.80972,-0.42591,-0.317144,1.2112
334,-69.88632,-53.04036,14.953841,1.606714,0.180301,1.9999689999999999
336,-41.565576,6.836042,-2.868696,-0.695689,-0.050538,1.1456469999999999
338,-11.596857,-9.399557000000001,-4.028382,0.240116,0.071046,1.168475
340,-29.236286,-7.812619000000001,2.014191,-0.0037840000000000005,-0.072999,1.270649
342,-12.451362,-4.089418,1.342794,-0.000122,0.044312,1.001724
344,-4.699779,-5.7984279999999995,0.30518,0.001221,0.059449,0.949477
346,-12.878614,-5.371176,0.793469,-0.000122,0.02295,1.014908
348,-8.789197,-1.464866,-0.122072,0.079713,-0.051759000000000006,0.8718389999999999
350,-7.812619000000001,-1.8921189999999999,1.342794,-0.003052,0.0365,0.9868309999999999
352,-10.620279,-2.80766,1.342794,0.010864,0.027222000000000003,1.028702
354,-5.249104,-1.7700470000000001,1.037613,0.022583000000000002,0.027344,0.999527
356,-6.347753,0.976577,-0.30518,0.125368,-0.118898,0.7718619999999999
358,-9.887846000000001,1.037613,2.014191,0.001465,0.028808999999999998,0.9900049999999999
360,-9.887846000000001,0.9155409999999999,2.014191,0.001343,0.015503,0.9904940000000001
362,-10.864424,-0.48828900000000003,1.647974,-0.011353,0.0,0.9911040000000001
364,-9.460594,-0.976577,1.342794,-0.010254000000000001,-0.002564,1.034562
366,-6.164645,-0.549325,1.70901,0.004639,0.010864,0.9906159999999999
368,-8.178836,-1.037613,1.464866,-0.009155,0.016358,0.925917
370,-17.517357,-1.953155,2.014191,0.00415,-0.00647,0.995499
372,-15.564201999999998,-1.40383,1.7700470000000001,0.008545,-0.007812999999999999,0.998184
374,-14.160372,-0.732433,2.197299,0.024537,-0.027832,1.017227
376,-10.864424,1.8310830000000002,3.356985,0.005371,-0.028076999999999998,1.001968
378,-11.291675999999999,1.037613,2.50248,0.010376,-0.014405000000000001,0.994766
380,-10.803388,0.30518,2.319371,0.004639,-0.040406,0.982925
382,-11.718929,-2.50248,2.075227,-0.022827,-0.00061,0.954849
384,-20.935378,-7.507439,1.342794,0.008423,0.011963,0.953262
386,-21.179522,-9.155413000000001,0.732433,0.001099,-0.01294,0.985733
388,-26.855878999999998,-9.155413000000001,1.09865,0.008057,-0.052979,1.006485
390,-25.818265,-9.765774,3.418021,0.014282,-0.048219,0.981094
392,-20.996414,-8.239872,7.812619000000001,0.066041,-0.021851,1.048966
394,-29.846646999999997,-2.319371,6.225681,0.008423,-0.052003,1.0167389999999998
396,-41.504540000000006,-1.09865,3.356985,0.022216999999999997,-0.034791,0.98024
398,-48.096437,0.061036,0.0,0.011597,-0.083986,0.9867090000000001
400,-49.195087,-1.8310830000000002,-3.6621650000000003,-0.023072,-0.08191,1.034928
402,-54.261081999999995,1.342794,-22.827497,-0.023072,-0.180545,1.062638
404,-51.33135,13.488975,-33.69192,0.080323,-0.39649,1.041398
406,-29.419394,-0.671397,-7.934691,0.061769000000000004,-0.04419,1.081682
408,-96.742199,16.235599,-11.779964999999999,0.083497,0.07055800000000001,1.006119
410,-104.921035,7.324331,11.841001,-0.083864,0.350713,0.917006
412,-321.721218,-2.319371,-31.372549,-0.054077999999999994,0.7076520000000001,1.757473
414,-599.435416,-41.016251000000004,20.141909,-0.266728,-0.007568000000000001,1.417624
416,-716.68574,-27.588312,12.085144999999999,0.114748,-0.342779,1.1572440000000002
418,-530.281529,53.589684999999996,27.710384,-1.5715569999999999,-0.937026,1.9999689999999999
420,217.47158,98.817426,-44.678416,-1.1154959999999998,0.7104600000000001,1.9999689999999999
422,-20.569162,21.362631,73.975738,-0.627817,0.09131,0.554208
424,82.581827,-22.949569,70.49668100000001,-0.11609100000000001,0.450324,0.174807
426,64.271,-15.930419,57.923246999999996,0.193851,0.435065,0.702037
428,90.63859000000001,9.704738,20.325017000000003,0.27881300000000003,0.556649,0.795666
430,131.593805,-0.366217,-5.61532,0.067872,0.47718,0.872816
432,166.445411,-16.357671,-12.878614,-0.16736099999999998,0.335088,1.253315
434,216.372931,-18.860151000000002,-6.897078,-0.330205,0.15332300000000001,1.426169
436,257.81643399999996,-18.921187,4.760815,-0.34521999999999997,0.014771000000000001,1.293843
438,276.493477,-9.277485,12.939651,-0.26160100000000003,-0.069459,1.391135
440,288.45655,10.193027,13.427939000000002,-0.123171,-0.239261,1.310201
442,276.798657,32.715343,-1.8921189999999999,0.114748,-0.42249200000000003,0.961074
444,233.40199900000002,31.189441,-17.883574,0.049561,-0.409674,1.295186
446,212.95491,40.344854,-24.048219,-0.24194699999999997,-0.404303,1.9199509999999997
448,228.213931,44.129090999999995,-10.376135000000001,-0.43238000000000004,-0.6026699999999999,1.9999689999999999
450,250.85832000000002,44.495308,7.812619000000001,-0.41724300000000003,-0.6895859999999999,1.9999689999999999
452,269.596399,44.007019,21.667811,-0.186282,-0.692149,1.9161669999999997
454,260.013733,44.129090999999995,17.090104999999998,0.138918,-0.596078,1.570092
456,242.374304,34.973678,-3.723201,0.283696,-0.587778,1.364157
458,212.893874,22.827497,-24.536507,0.15674100000000002,-0.790539,1.1819030000000001
460,166.872663,23.437858,-30.640116,-0.09838999999999999,-1.254902,0.948867
462,102.72373499999999,46.265353999999995,-31.311513,0.208499,-1.876371,1.017716
464,68.726635,93.018997,-43.762875,0.270756,-2.0000310000000003,0.6004729999999999
466,16.418708,44.61738,-0.122072,-0.12195,-1.7766380000000002,-0.057617999999999996
468,-42.236973,-52.307927,53.101395999999994,-0.196536,-1.195331,0.709361
470,-183.108263,-101.136797,78.98069699999999,-0.098512,-0.8795299999999999,-0.20325
472,-138.36881100000002,-63.294422999999995,58.411536,-0.11230599999999999,0.66981,1.721584
474,-256.290532,-88.197147,86.610208,0.5770350000000001,0.248295,1.031998
476,-232.730602,-40.650034000000005,43.884947,1.094743,-0.048585,1.918608
478,-175.722896,9.216449,-0.244144,0.326909,-0.280156,1.9999689999999999
480,-142.763409,-22.949569,22.949569,-1.346334,-0.403937,1.914336
482,-66.163119,-92.16449200000001,31.799802000000003,1.222675,0.313848,1.9999689999999999
484,-40.222782,-0.732433,3.6011290000000002,-0.665171,-0.033448,0.898817
486,-31.067369,-39.856565,4.028382,0.551034,0.10901,1.44802
488,-22.583351999999998,-16.052491,2.685588,-0.21118499999999998,-0.05712999999999999,1.159686
490,-17.761501000000003,-11.963073,1.2207219999999999,-0.028443,0.023438,1.030411
492,-4.394598,-9.094377,1.342794,0.11218399999999999,0.081666,1.048966
494,-13.550010999999998,0.976577,5.065995,0.059083000000000004,0.015869,1.067887
496,-14.343481,5.371176,6.042573,-0.0058590000000000005,0.036133,1.013443
498,-13.305867000000001,1.586938,4.028382,-0.011109,0.051148,0.961685
500,-15.014878,-1.281758,1.525902,-0.01648,-0.0094,1.049454
502,-13.000687,-5.432212,2.197299,0.000122,-0.024903,1.006363
504,-13.672084,-7.446403,0.976577,0.001465,-0.000244,1.0057530000000001
506,-12.63447,-7.263294,0.427253,0.001465,-0.012695999999999999,0.992447
508,-16.235599,-9.277485,0.183108,0.001953,-0.002441,0.973281
510,-14.770732999999998,-9.094377,1.342794,0.019287000000000002,-0.0063479999999999995,0.9908600000000001
512,-17.334249,-6.530861,1.8921189999999999,0.012085,-0.046265,1.031998
514,-13.061722999999999,-4.394598,1.8921189999999999,0.013428,-0.045288999999999996,1.0306549999999999
516,-6.103609,-4.028382,1.159686,-0.0063479999999999995,-0.027710000000000002,1.000504
518,-8.545052,-5.7984279999999995,-0.244144,0.009155,-0.029297000000000004,0.9979399999999999
520,-9.216449,-4.699779,-0.732433,0.024413999999999998,-0.032227,1.018204
522,-8.667124000000001,-3.479057,-0.244144,-0.000122,-0.038452999999999994,0.9673
524,-12.878614,-5.0049589999999995,0.30518,-0.0037840000000000005,-0.043336,0.9875639999999999
526,-15.869383,-6.347753,0.671397,0.011963,-0.024781,0.949111
528,-24.048219,-7.934691,-0.549325,0.023316,-0.055177,0.9560690000000001
530,-26.794842,-9.216449,3.051804,0.046143,-0.045288999999999996,1.03151
532,-29.907683000000002,-2.014191,3.234913,0.065064,-0.096803,1.0407870000000001
534,-29.724575,5.188067,6.836042,0.044312,-0.052979,1.006607
536,-25.26894,7.751583,10.193027,0.038452999999999994,-0.081544,1.032975
538,-34.729534,7.2022580000000005,9.52163,-0.024048,-0.073121,0.9752350000000001
540,-32.410163,1.953155,-0.366217,-0.022338999999999998,-0.028443,0.965835
542,-45.044633000000005,-3.90631,-16.174563,-0.052247,-0.046632,1.0428629999999999
544,-66.407263,7.446403,-40.466926,0.067506,-0.03772,0.879408
546,-44.373236,1.8310830000000002,-20.569162,0.11120799999999999,-0.257328,1.0714270000000001
548,-46.875715,5.432212,-9.948882000000001,0.082521,-0.036744,1.008316
550,-101.808194,19.775692000000003,-6.652933999999999,0.0813,0.019898,0.818738
552,-137.392233,1.159686,-8.972305,0.066896,0.573861,0.807874
554,-461.73800300000005,-5.0049589999999995,-0.793469,-0.056764,0.401617,1.5526360000000001
556,-659.067674,-34.424353,38.69688,0.23889499999999997,-0.05127,1.32607
558,-795.422293,-14.099336,64.148928,0.246098,-2.0000310000000003,1.9999689999999999
560,-12.512398,4.699779,-64.45410799999999,-0.326909,-0.15613,1.9999689999999999
562,-11.535821,4.8218510000000006,-56.031128,-0.48755600000000004,0.478767,1.737209
564,-35.767146999999994,-55.664912,37.781338,-0.195438,0.41724300000000003,1.605005
566,67.994202,-37.476158,5.9205,-0.06225700000000001,0.655528,1.262348
568,140.932326,-9.948882000000001,-14.221407999999998,0.01355,0.497688,0.996353
570,150.453956,-12.32929,-25.024796,-0.11877599999999999,0.30493600000000004,0.797375
572,185.732815,-13.488975,-27.527276,-0.25903699999999996,0.235477,0.886
574,208.621347,1.8921189999999999,-17.822538,-0.356817,0.076783,1.1631040000000001
576,240.17700499999998,4.577707,0.122072,-0.283085,-0.014405000000000001,1.2383
578,266.544595,8.606088,7.507439,-0.036011,-0.012085,1.368307
580,287.296864,34.241245,-6.775005999999999,0.364874,-0.10486,1.4188450000000001
582,281.74258,53.650721,-49.317159000000004,0.752087,-0.37085500000000005,0.800183
584,228.45807599999998,57.007706000000006,-90.699626,0.559335,-0.49305,1.2325629999999999
586,212.832837,52.613108,-109.315633,0.157839,-0.6119479999999999,1.7827419999999998
588,219.72991499999998,51.758602,-99.855039,-0.186526,-0.757092,1.6904549999999998
590,201.113909,70.313573,-75.745785,-0.298466,-0.786145,1.9999689999999999
592,222.293431,85.69466700000001,-41.321431,-0.34778400000000004,-0.834119,1.943389
594,224.612802,82.642863,-7.141222,0.025879000000000003,-0.7782100000000001,1.518578
596,210.879683,83.37529599999999,-3.234913,0.49866499999999997,-0.589975,1.694606
598,227.176318,58.594643999999995,-21.911955,0.6574810000000001,-0.5691,1.4581520000000001
600,208.987564,40.650034000000005,-43.274586,0.454963,-0.718761,1.128679
602,177.676051,34.729534,-47.73022,-0.048585,-1.000137,1.053361
604,140.199893,42.236973,-36.865797,-0.07422000000000001,-1.315084,0.718029
606,82.276646,67.689021,-28.564889,-0.0070799999999999995,-1.7491720000000002,0.503426
608,23.132676999999997,84.71809,1.8310830000000002,-0.159548,-1.9360650000000001,0.354009
610,-29.663539,13.794156,60.547799,-0.138186,-1.57998,0.230961
612,-102.357519,-68.787671,92.347601,0.012085,-1.970977,-1.4646219999999999
614,-103.761349,-70.191501,74.769207,0.098146,0.598398,1.3985809999999999
616,-171.633478,-122.98771599999999,101.319905,0.241459,0.603769,-0.24438800000000002
618,-312.932021,-73.609522,91.187915,1.357687,-0.176394,1.9212939999999998
620,-159.30418899999998,-24.475471,3.234913,1.658595,0.082521,1.9999689999999999
622,-137.636378,25.635157,-30.762188000000002,-1.313863,-0.18188800000000002,1.405051
624,-93.324178,-95.216297,62.684062,-0.436042,-0.376471,1.280781
626,-68.48249,-66.163119,25.513085,1.171649,0.136599,1.7665060000000001
628,-48.889905999999996,-48.157472999999996,15.747310999999998,-0.373663,0.072999,1.122454
630,-38.269627,-27.893492,0.30518,0.11071900000000001,-0.018311,1.16286
632,-14.465553,-26.245518,-2.197299,0.13379100000000002,0.011475,1.138811
634,-20.691233999999998,-6.530861,-0.549325,0.028687,-0.006714,1.087785
636,-10.131991000000001,4.8218510000000006,1.09865,0.13196,0.058717,1.051774
638,-7.01915,10.315099,2.2583349999999998,0.044312,0.040772,1.010758
640,-6.958114,10.315099,2.075227,-0.001099,0.025025,0.9867090000000001
642,-13.916228,6.775005999999999,1.037613,-0.015625,0.12842,1.038956
644,-8.606088,6.2867169999999994,1.647974,-0.000732,0.034546,1.002579
646,-8.850233,4.089418,2.685588,-0.015625,-0.00293,0.993668
648,-8.1178,0.793469,3.784237,0.009888,0.018555000000000002,0.9942780000000001
650,-4.150454,0.0,3.418021,0.000488,-0.0058590000000000005,0.9602200000000001
652,-7.6905470000000005,-5.61532,2.136263,-0.003906,0.04065,0.9907379999999999
654,-7.751583,-7.080186,0.183108,-0.016114,0.095949,1.079118
656,-9.765774,-9.582666,0.9155409999999999,-0.0094,0.008789,0.9911040000000001
658,-5.554284,-9.460594,0.366217,0.026489999999999996,-0.010742,1.036149
660,-3.295949,-9.582666,0.0,0.006836,-0.02417,0.928725
662,-5.432212,-10.803388,0.427253,0.040527999999999995,-0.010864,1.019181
664,-2.075227,-7.9957270000000005,1.159686,0.025635,-0.0037840000000000005,0.993179
666,-7.2022580000000005,-8.728161,0.48828900000000003,0.021851,0.034058,0.9323870000000001
668,-14.282444,-9.338521,0.183108,0.037110000000000004,0.021973,1.022354
670,-18.860151000000002,-8.1178,0.976577,0.05285700000000001,0.002075,0.9870760000000001
672,-26.489662,-7.629511,2.014191,0.052369000000000006,0.0037840000000000005,0.9427629999999999
674,-34.851606,-6.897078,3.356985,0.041871,-0.029541,0.9817040000000001
676,-35.339895,-4.089418,4.760815,0.05712999999999999,-0.053346000000000005,0.972427
678,-32.776379,-1.953155,6.897078,0.016114,-0.04419,1.01735
680,-32.898451,-1.70901,5.61532,0.001465,-0.040894,0.9708399999999999
682,-55.664912,1.464866,1.342794,-0.043213999999999995,-0.008057,0.971817
684,-51.697565999999995,2.50248,-0.9155409999999999,0.021485,-0.060303999999999996,1.034806
686,-58.594643999999995,3.051804,-0.671397,0.0043950000000000005,-0.06384400000000001,1.033707
688,-61.097124,1.464866,-15.075914000000001,-0.009522,-0.203494,1.1460139999999999
690,-70.618753,9.094377,-45.227740999999995,0.098146,-0.289799,0.984756
692,-25.26894,1.953155,-2.50248,0.099855,-0.14648699999999998,1.1267260000000001
694,-97.047379,18.066682,-7.934691,0.08423,0.064698,0.9664450000000001
696,-123.53704099999999,6.958114,5.249104,-0.039796,0.21069699999999997,0.741222
698,-271.000229,-17.761501000000003,-10.070953999999999,0.150637,0.788708,0.795666
700,-560.1281759999999,-112.48950900000001,61.46334,-0.3252,-0.008423,1.791897
702,-664.072633,-101.686122,44.495308,0.208499,-0.14038299999999998,0.7860229999999999
704,-733.592737,0.854505,162.72221000000002,-0.6267189999999999,0.045167,1.9999689999999999
706,208.010987,44.434272,-58.411536,-0.32227100000000003,0.608164,1.9999689999999999
708,-13.733120000000001,-14.282444,4.699779,-0.395392,0.661509,1.303487
710,114.5037,-19.65362,-5.493248,-0.076295,0.43262399999999995,0.8365610000000001
712,63.843748,-1.464866,-15.869383,0.088624,0.398688,0.7137560000000001
714,110.04806599999999,27.161059,-35.88922,0.020874,0.348638,0.755993
716,126.649882,4.150454,-33.997101,-0.100465,0.284794,1.097673
718,172.91523600000002,-2.075227,-30.212863,-0.10351700000000001,0.30933099999999997,1.425925
720,229.373617,18.066682,-30.273899,-0.07849199999999999,0.17615,1.412985
722,266.056306,30.334936,-30.640116,-0.05127,0.007691,1.167498
724,278.202487,36.072328000000006,-30.273899,0.034302,-0.075441,1.215717
726,284.672313,45.105669,-39.00206,0.07055800000000001,-0.257328,0.8997940000000001
728,242.374304,70.435645,-44.861523999999996,0.10669100000000001,-0.433478,0.68397
730,195.37651599999998,73.731594,-52.246891,0.172,-0.255497,1.616114
732,213.199054,84.046693,-56.214237,0.047852,-0.387701,1.9999689999999999
734,236.27069500000002,88.807507,-45.899138,-0.119875,-0.6633399999999999,1.825589
736,221.92721400000002,79.65209399999999,-25.146867999999998,-0.107546,-0.7618520000000001,1.9999689999999999
738,249.82070699999997,86.488136,-9.338521,-0.044677999999999995,-0.8153199999999999,1.9999689999999999
740,265.445945,83.92461999999999,2.014191,0.323491,-0.740734,1.546044
742,247.19615499999998,66.77348,6.164645,0.351446,-0.796277,1.591577
744,235.111009,48.157472999999996,11.963073,0.13843,-1.082414,1.338766
746,195.68169699999999,48.157472999999996,18.982223,0.20556999999999997,-1.553124,0.8056760000000001
748,111.81811200000001,82.03250200000001,-15.747310999999998,0.819226,-2.0000310000000003,0.603891
750,59.20500500000001,146.059358,-44.068055,0.25806100000000004,-2.0000310000000003,0.159915
752,-12.32929,45.044633000000005,18.127717999999998,-0.231449,-1.802884,-0.08923500000000001
754,-235.904479,-193.85061399999998,84.046693,0.698253,-1.6300299999999999,-0.537362
756,-113.34401499999998,-81.78835699999999,20.874342000000002,-0.310796,1.045914,1.9999689999999999
758,-284.30609599999997,-108.94941599999999,74.280919,0.435676,-0.171023,0.306767
760,-284.611276,-72.816052,51.941711,1.429099,-0.009888,1.9999689999999999
762,-127.50438700000001,7.324331,-17.456321,0.12976300000000002,-0.25684,1.999298
764,-129.274434,-70.98496999999999,42.603189,-1.348409,-0.528817,0.9984280000000001
766,-79.71313,-87.891966,25.513085,1.7020520000000001,0.23498899999999998,1.9999689999999999
768,-64.332036,-34.119172999999996,2.929732,-0.6189060000000001,-0.135378,1.1428399999999999
770,-33.569848,-23.315785,-10.315099,0.329717,-0.08191,1.30251
772,-4.577707,-20.386053,-3.234913,0.10693499999999999,0.077394,0.938735
774,-35.339895,-6.164645,-1.159686,0.015503,-0.088746,1.113542
776,-23.315785,2.319371,2.197299,0.051759000000000006,-0.032105,1.077775
778,-14.709697,7.873655,4.8218510000000006,0.052979,0.004761,1.008682
780,-14.770732999999998,8.42298,5.493248,0.030883999999999998,-0.006836,1.01796
782,-17.395285,8.239872,4.028382,0.004883,-0.005615,1.0167389999999998
784,-14.526589000000001,5.737392,4.21149,0.013428,-0.029664,1.009659
786,-8.789197,5.737392,4.333562000000001,0.006836,-0.043458,1.034928
788,-7.141222,4.882887,3.6621650000000003,-0.012695999999999999,-0.024413999999999998,1.000381
790,-6.836042,2.2583349999999998,2.380407,-0.010376,-0.028443,0.985
792,-6.408789,0.061036,1.8921189999999999,0.005249,-0.060303999999999996,1.030167
794,0.183108,-0.549325,1.647974,-0.0015869999999999999,-0.045167,1.015518
796,1.281758,-1.8921189999999999,1.342794,-0.016602000000000002,-0.025513,0.988663
798,-1.037613,-3.479057,0.854505,0.0028079999999999997,-0.02417,0.973404
800,-2.2583349999999998,-2.2583349999999998,1.2207219999999999,0.018067,-0.031861,1.000626
802,-2.990768,-0.061036,-0.671397,0.028564999999999997,-0.21240599999999998,0.851698
804,-4.8218510000000006,-1.7700470000000001,1.647974,-0.000122,-0.009033,1.012589
806,-4.699779,-3.173877,1.342794,0.005982,-0.01648,0.988174
808,-8.850233,-3.6621650000000003,0.671397,0.013428,-0.032227,0.9831690000000001
810,-10.620279,-4.272526,0.793469,0.001465,-0.029664,0.9753569999999999
812,-15.686275,-5.371176,0.244144,0.005371,-0.04065,0.9673
814,-21.179522,-6.408789,0.671397,-0.002686,-0.046632,0.9630270000000001
816,-25.26894,-8.42298,2.4414439999999997,0.013306,-0.064332,0.976699
818,-25.879301,-8.545052,4.089418,0.013916,-0.102296,1.016373
820,-17.456321,-9.033341,7.01915,0.032349,-0.026123,1.034562
822,-23.376822,-9.033341,4.8218510000000006,0.027832,-0.046876,1.01088
824,-30.640116,-5.676356,2.685588,0.030762,-0.069459,1.010513
826,-34.058137,-4.272526,2.4414439999999997,0.037964,-0.049194999999999996,1.013077
828,-42.786297,-2.380407,0.122072,0.012206999999999999,-0.09094400000000001,0.9973299999999999
830,-39.917601,-2.929732,-8.789197,-0.032349,-0.102174,0.996597
832,-74.402991,6.530861,-36.682689,-0.011597,-0.148074,1.061784
834,-36.011292,-2.929732,-12.32929,0.089357,-0.21741100000000002,1.023087
836,-31.250477000000004,-0.671397,-3.295949,0.07483,-0.038697,1.058976
838,-96.192874,13.794156,-19.592584,0.07715,0.034546,1.055192
840,-113.34401499999998,4.760815,-8.972305,-0.130129,0.09509400000000001,0.879774
842,-311.406119,-10.986496,-43.457694000000004,0.095705,1.160784,1.5401850000000001
844,-615.243763,-81.11695999999999,25.757229000000002,-0.274296,-0.325933,1.0442049999999998
846,-728.465705,-156.80170900000002,58.594643999999995,0.138186,-0.532845,0.9124899999999999
848,-505.62295,-106.446937,106.20279199999999,-1.097673,-0.574716,1.9999689999999999
850,259.830625,2.2583349999999998,-43.884947,-0.591806,1.185443,1.9999689999999999
852,-63.416495,-17.700464999999998,32.288090000000004,-0.406256,0.453132,0.7260850000000001
854,99.916075,-3.418021,17.883574,-0.210208,0.385992,0.559579
856,46.509499,-20.141909,28.564889,-0.026978,0.311772,0.94081
858,113.03883400000001,-3.723201,6.469825,0.125978,0.5023270000000001,1.012467
860,155.642023,9.033341,-11.902037,0.06958099999999999,0.3794,1.281392
862,208.74342,6.958114,-20.325017000000003,-0.034546,0.198245,1.297627
864,251.712825,3.90631,-21.05745,-0.038575,0.061402,1.215717
866,282.413977,11.413748,-21.728847000000002,-0.025269,-0.061890999999999995,1.327779
868,302.738994,16.418708,-22.217136,0.026123,-0.191165,1.236225
870,294.316014,24.109254999999997,-29.297321999999998,0.105715,-0.462409,0.639048
872,226.260777,55.054551000000004,-37.842374,0.059083000000000004,-0.44715,1.010147
874,212.34454900000003,54.261081999999995,-41.321431,-0.017334,-0.329351,1.8365759999999998
876,219.424735,56.94667,-33.38674,-0.078737,-0.488045,1.9999689999999999
878,253.91012400000002,63.233387,-29.907683000000002,0.001709,-0.598154,1.9999689999999999
880,266.17837799999995,60.608835,-25.024796,0.083497,-0.707408,1.9999689999999999
882,271.122301,73.914702,-30.090790999999996,0.15967,-0.796887,1.7179220000000002
884,253.29976299999998,80.140383,-33.752956,0.167605,-0.8993059999999999,1.59707
886,227.42046200000001,90.089265,-36.682689,0.296269,-0.9858549999999999,1.522972
888,203.982605,89.662013,-37.476158,0.328252,-1.303487,1.197162
890,148.683909,90.02822900000001,-34.424353,0.500496,-1.869657,0.776867
892,89.723049,90.882734,-43.030442,0.5789880000000001,-2.0000310000000003,0.389288
894,43.152514000000004,52.063783,-28.015564,0.15893800000000002,-2.0000310000000003,-0.239994
896,-49.011978000000006,-43.030442,28.503853000000003,-0.268559,-1.511254,0.424201
898,-221.43892599999998,-163.149462,68.665599,0.043336,-0.454719,0.92079
900,-96.864271,-44.61738,44.129090999999995,-0.6323340000000001,1.083146,1.087053
902,-334.050507,-137.270161,101.136797,0.572274,-0.12976300000000002,0.481575
904,-267.643244,-80.628672,71.778439,1.495262,-0.23621,1.9999689999999999
906,-155.39787900000002,-18.799115,2.014191,0.522347,-0.254276,1.998199
908,-147.463188,-39.856565,25.696193,-1.206073,-0.284794,1.9999689999999999
910,-44.739452,-56.763560999999996,16.296635000000002,1.031388,0.063355,1.612818
912,-82.642863,-31.128404999999997,12.878614,-0.323735,-0.110109,1.055192
914,-20.996414,-22.339208,-1.281758,0.13196,-0.023681999999999998,1.108782
916,-27.893492,-17.029068,-2.197299,0.10192999999999999,-0.025391,1.0985280000000002
918,-24.353399,-9.643702000000001,-2.014191,0.052735000000000004,-0.010620000000000001,1.028092
920,-16.174563,-2.014191,1.037613,0.12451400000000001,-0.040527999999999995,1.065812
922,-15.686275,4.394598,3.723201,0.057374,-0.092164,1.0268709999999999
924,-10.193027,5.981537,4.577707,0.0058590000000000005,-0.020142,0.97377
926,-11.474784,3.479057,4.21149,0.019898,-0.026001,1.004532
928,-17.090104999999998,0.6103609999999999,2.4414439999999997,0.0015869999999999999,-0.027955,0.9914700000000001
930,-10.620279,0.671397,1.7700470000000001,0.030274000000000002,-0.068727,1.046891
932,-5.432212,1.342794,1.8921189999999999,0.027344,-0.057617999999999996,1.022354
934,-2.075227,1.281758,1.647974,0.028443,-0.050416,1.00441
936,-2.380407,-0.549325,1.342794,0.014893,-0.026123,0.970474
938,-6.652933999999999,-2.014191,0.793469,0.011719,-0.053712,0.9626610000000001
940,-12.512398,-2.2583349999999998,1.586938,0.020263999999999997,-0.041871,1.005997
942,-11.169604,-2.136263,2.075227,0.023072,-0.059083000000000004,1.006851
944,-7.629511,-1.342794,2.319371,0.030762,-0.074952,1.042985
946,-1.647974,-0.48828900000000003,2.4414439999999997,0.023438,-0.06067,0.96144
948,-11.779964999999999,-2.746624,2.746624,0.007201999999999999,-0.021729,0.937758
950,-19.470512,-6.347753,1.525902,0.036011,-0.037110000000000004,0.993179
952,-20.141909,-6.2867169999999994,1.647974,0.048707,-0.09399600000000001,1.01442
954,-18.127717999999998,-3.540093,2.746624,0.039429,-0.092653,1.013077
956,-14.953841,-1.464866,2.746624,0.030274000000000002,-0.080446,1.03444
958,-19.714656,-2.685588,1.586938,0.019653999999999998,-0.053956,0.9720610000000001
960,-26.428626,-0.671397,1.8310830000000002,0.128664,0.049194999999999996,0.834241
962,-31.860838,1.159686,6.897078,0.06640700000000001,-0.136599,1.012222
964,-23.682002,4.943923000000001,10.742351,0.046021,-0.096803,1.010269
966,-31.128404999999997,4.089418,7.812619000000001,-0.000244,-0.069825,0.9782860000000001
968,-36.1944,-0.061036,-1.464866,-0.020386,-0.11035299999999999,1.0352940000000002
970,-36.743725,-0.793469,-15.564201999999998,-0.010620000000000001,-0.217288,1.055924
972,-61.402304,12.024109,-47.852292999999996,0.080446,-0.192752,1.026749
974,-12.817578,9.216449,-9.704738,0.096315,-0.18701500000000001,1.115129
976,-43.823910999999995,9.216449,-16.968032,0.120974,0.419806,0.772473
978,-161.867704,19.531548,-7.141222,-0.031861,0.213993,0.806897
980,-331.97528,7.568475,-53.894865,0.09192,0.7411,1.100847
982,-667.307546,-39.124132,35.156786,-0.451057,-0.41236000000000006,1.5682610000000001
984,-764.965286,-40.588998,82.581827,0.56788,-2.0000310000000003,1.9999689999999999
986,-188.052186,-28.442816999999998,-31.555657,-0.21203899999999998,-1.162249,1.9999689999999999
988,27.771420000000003,42.1149,-67.872129,-0.24914899999999998,0.536141,1.723659
990,-126.58884599999999,-43.823910999999995,57.618067,-0.130983,0.220829,1.516014
992,85.450523,-38.391698999999996,17.700464999999998,0.081666,0.619638,0.812024
994,76.84443399999999,-39.673457,6.469825,0.120485,0.407599,1.141375
996,127.07713400000002,-43.21355,-18.982223,0.058473000000000004,0.42847299999999994,1.044083
998,174.99046299999998,-45.716029999999996,-37.90341,-0.106325,0.29041,0.997818
1000,192.446784,-33.997101,-42.175937,-0.297124,0.144778,1.136004
1002,223.025864,-18.677042999999998,-33.020523,-0.407477,0.048707,1.320943
1004,257.694362,-0.976577,-17.822538,-0.366827,-0.016236,1.519799
1006,292.48493199999996,21.484703,-6.469825,-0.208988,-0.140261,1.522972
1008,311.772335,39.734493,-7.324331,0.035767,-0.25757199999999997,1.140764
1010,279.911498,64.08789200000001,-27.771420000000003,0.366583,-0.480232,0.534432
1012,213.076982,65.186542,-42.664225,0.238773,-0.39148499999999997,1.342428
1014,221.43892599999998,42.481117,-51.33135,0.127199,-0.30640100000000003,1.9999689999999999
1016,254.03219700000002,70.252537,-54.993515,-0.016724,-0.629892,1.9999689999999999
1018,243.289845,76.96650600000001,-38.086519,-0.17383099999999999,-0.693736,1.9999689999999999
1020,290.409705,69.825284,-25.26894,0.099611,-0.77528,1.9999689999999999
1022,262.333104,78.370336,-34.546426000000004,0.441779,-0.725841,1.479149
1024,237.674525,73.853666,-61.585412,0.5655600000000001,-0.7121689999999999,1.360494
1026,199.282826,80.994888,-83.49736800000001,0.35352100000000003,-0.875135,0.949111
1028,138.429847,87.769894,-83.680476,-0.018921,-1.334127,0.929213
1030,89.23476,74.769207,-54.322118,0.009522,-2.0000310000000003,0.838392
1032,65.552758,45.227740999999995,-17.273213000000002,0.09399600000000001,-2.0000310000000003,-0.083986
1034,-23.620966,-31.677729,45.654994,-0.124392,-1.468772,0.38464899999999996
1036,-143.801022,-147.280079,90.516518,0.332769,-1.269673,0.38294
1038,-204.470893,-83.863584,67.07866,0.354986,-0.650645,0.680064
1040,-139.22331599999998,-61.524376000000004,36.926833,0.5234449999999999,0.8589,1.550561
1042,-261.905852,-48.462654,40.344854,0.465095,-0.273075,1.144671
1044,-202.700847,-24.719615,18.310826000000002,0.405402,0.002564,1.9999689999999999
1046,-105.714504,-4.699779,6.225681,-0.641001,-0.210452,1.134295
1048,-101.50301400000001,-89.784085,51.148241,0.023926,-0.21216100000000002,1.3962620000000001
1050,-52.246891,-37.476158,14.953841,0.824842,0.034913,1.7245139999999999
1052,-52.857252,-26.123445,14.526589000000001,-0.138552,0.02002,1.1456469999999999
1054,-33.142596000000005,-3.90631,2.685588,-0.027344,-0.01709,1.089006
1056,-17.151141,-11.596857,0.793469,0.040772,0.024781,1.01857
1058,-18.371862,-6.775005999999999,1.2207219999999999,-0.038087,-0.026123,1.075212
1060,-11.169604,-5.432212,1.464866,0.035157,0.021729,1.0370030000000001
1062,-10.193027,-3.234913,2.014191,0.026123,0.015869,1.027359
1064,-9.094377,-2.014191,2.197299,-0.010620000000000001,0.020142,1.010758
1066,-6.652933999999999,-1.70901,1.525902,0.023316,0.014893,1.033219
1068,-5.7984279999999995,1.586938,2.2583349999999998,-0.00647,0.010864,1.009049
1070,-2.868696,2.80766,2.380407,-0.001099,0.006714,1.010758
1072,-3.845274,1.8310830000000002,2.136263,0.0023190000000000003,0.0070799999999999995,1.011002
1074,-2.4414439999999997,1.342794,1.586938,-0.004517,0.019653999999999998,0.999649
1076,-3.356985,0.6103609999999999,1.342794,-0.011719,0.011840999999999999,0.9828030000000001
1078,-6.469825,2.929732,-1.525902,0.087892,-0.21765500000000002,0.688243
1080,-8.361944,0.854505,2.136263,-0.008789,0.008789,0.973892
1082,-7.01915,-0.061036,1.8310830000000002,-0.007935,-0.011109,1.01857
1084,-6.042573,-1.09865,2.014191,-0.008301000000000001,-0.0063479999999999995,0.9864649999999999
1086,-6.347753,-2.50248,1.159686,-0.111696,0.11230599999999999,1.246967
1088,-10.193027,-6.225681,1.8921189999999999,0.0021969999999999997,-0.013793999999999999,0.9555809999999999
1090,-10.070953999999999,-5.493248,1.586938,0.0094,-0.015259,1.017227
1092,-10.559242999999999,-5.249104,2.197299,-0.008667,-0.013062,0.997574
1094,-12.63447,-6.836042,2.746624,-0.017823,0.023438,1.002823
1096,-15.991454999999998,-10.131991000000001,2.014191,0.0008550000000000001,0.000977,0.96791
1098,-22.217136,-10.803388,1.586938,0.004517,0.001465,0.980972
1100,-31.006332,-10.559242999999999,2.136263,0.01294,-0.044556,1.0042879999999998
1102,-29.419394,-8.667124000000001,2.380407,0.017945,-0.063111,1.009903
1104,-25.757229000000002,-7.629511,3.051804,0.023316,-0.055299,1.0118559999999999
1106,-21.484703,-6.775005999999999,4.150454,0.041260000000000005,0.0008550000000000001,0.991836
1108,-35.217822999999996,-9.704738,3.051804,0.038575,-0.020142,0.9901270000000001
1110,-41.199359,-4.150454,-0.9155409999999999,0.012451,-0.08484,1.04445
1112,-35.400931,-2.4414439999999997,-3.6011290000000002,-0.035279000000000005,-0.046265,1.000259
1114,-46.997787,-6.164645,-24.658579,-0.046754000000000004,-0.05774,1.012833
1116,-58.10635500000001,0.976577,-35.339895,0.129152,-0.27270900000000003,1.024674
1118,-48.767834,-1.8310830000000002,-5.3101400000000005,0.09838999999999999,-0.059692999999999996,0.98854
1120,-112.12329299999999,14.0383,-14.953841,0.14257999999999998,0.257694,0.83534
1122,-180.727855,-0.061036,2.014191,-0.252567,0.39710100000000004,0.8562139999999999
1124,-416.205081,-26.184482,-29.724575,0.121706,0.627939,1.8275430000000001
1126,-696.971084,-179.995422,29.419394,-0.180911,-0.086061,1.334127
1128,-901.258869,-89.662013,211.123827,-1.240253,0.544686,1.9999689999999999
1130,323.796445,51.575494,-26.977951,-0.351812,0.812879,1.9999689999999999
1132,8.728161,31.677729,0.244144,-0.514656,0.44006999999999996,0.145754
1134,-82.642863,-28.442816999999998,49.256122999999995,0.045045,-0.024781,0.77528
1136,48.767834,-1.647974,17.334249,-0.018433,0.613657,0.7954220000000001
1138,70.49668100000001,7.01915,12.756542,-0.20618000000000003,0.41455699999999995,0.988907
1140,98.390173,5.249104,19.104295,-0.26819299999999996,0.459113,1.018326
1142,155.764096,15.869383,27.405203000000004,-0.251347,0.364996,1.436667
1144,212.588693,23.193713,37.048905,-0.23108299999999998,0.195071,1.475608
1146,263.85900699999996,20.508125,41.80972,-0.018677000000000003,0.041627,1.1299
1148,277.653162,15.747310999999998,26.977951,0.313237,0.003296,0.988907
1150,271.671626,20.874342000000002,-8.728161,0.470588,-0.167849,0.790539
1152,231.387808,31.799802000000003,-42.359045,0.313237,-0.262211,1.0865639999999999
1154,229.678798,14.526589000000001,-61.951629000000004,0.173709,-0.194217,1.641382
1156,228.519112,33.325703999999995,-67.994202,-0.118288,-0.41821899999999995,1.9999689999999999
1158,249.14931,55.115587,-57.679103000000005,-0.276738,-0.654673,1.7972689999999998
1160,234.866865,48.767834,-35.156786,-0.24670799999999998,-0.753796,1.908232
1162,236.51483900000002,55.176623,-20.386053,-0.110597,-0.73695,1.9999689999999999
1164,249.637598,61.097124,-18.738079,0.199222,-0.701183,1.749783
1166,233.829252,58.899825,-20.935378,0.25500900000000004,-0.780652,1.479393
1168,208.43823899999998,44.678416,-19.287404000000002,0.178836,-0.917861,1.200702
1170,166.201267,40.039673,-23.559929999999998,0.246586,-1.1190360000000001,1.005142
1172,113.64919499999999,58.10635500000001,-50.049592,0.571054,-1.601953,1.066667
1174,81.72732099999999,90.699626,-78.553445,0.42603199999999997,-2.0000310000000003,0.286503
1176,13.183795000000002,28.747996999999998,-35.156786,-0.104372,-1.806668,-0.18188800000000002
1178,-47.669184,-58.228428,32.227053999999995,-0.380499,-1.22475,0.741955
1180,-162.35599299999998,-117.31136000000001,69.459068,0.027710000000000002,-0.988296,-0.614267
1182,-130.006867,-68.543526,53.589684999999996,-0.018067,0.444953,1.538109
1184,-246.402686,-95.765621,73.853666,0.362554,0.318242,0.9851219999999999
1186,-240.78736600000002,-51.880674,44.92256,0.9749899999999999,-0.22204899999999997,1.9999689999999999
1188,-137.331197,-3.845274,-7.141222,0.478401,-0.20691199999999998,1.9999689999999999
1190,-137.94155800000001,-36.316472,21.911955,-1.387961,-0.32861799999999997,1.6506599999999998
1192,-74.83024300000001,-110.353246,39.124132,1.22536,0.252445,1.9999689999999999
1194,-36.560615999999996,-12.451362,-2.014191,-0.608164,0.021118,1.14406
1196,-27.710384,-46.32639,5.065995,0.52076,0.09509400000000001,1.289326
1198,-28.931106,-16.84596,2.990768,-0.073976,-0.05774,1.190692
1200,-16.357671,-14.465553,-0.732433,-0.008423,0.061279999999999994,0.952041
1202,-15.747310999999998,-10.193027,-0.122072,0.109499,-0.00293,1.0789959999999998
1204,-8.300908,4.638743,4.089418,0.072877,-0.003418,1.071916
1206,-8.850233,6.836042,5.61532,0.01709,0.06482,0.973159
1208,-13.916228,5.188067,4.272526,0.014038,-0.028076999999999998,0.895766
1210,-17.761501000000003,0.854505,2.380407,-0.004883,0.020630000000000003,0.976944
1212,-18.616007,0.793469,1.70901,0.012818000000000001,-0.006592,1.033097
1214,-13.366903,4.8218510000000006,2.197299,0.041505,-0.019653999999999998,1.057755
1216,-10.498207,7.751583,2.563516,0.018067,-0.020630000000000003,1.016983
1218,-10.437171000000001,7.446403,1.8310830000000002,-0.001709,0.001343,0.9758450000000001
1220,-16.906996,5.981537,1.70901,-0.007691,-0.011231,0.9830469999999999
1222,-19.226368,5.371176,2.50248,0.015625,-0.025757,0.9863430000000001
1224,-19.34844,4.8218510000000006,2.868696,-0.001953,-0.024781,0.991958
1226,-17.883574,3.295949,2.380407,0.003052,-0.054932,1.020157
1228,-11.047532,3.967346,2.136263,0.011109,-0.070924,1.021622
1230,-8.545052,2.746624,1.8921189999999999,-0.018921,-0.047486,0.972427
1232,-12.085144999999999,-1.70901,0.30518,-0.021729,-0.029786,0.972793
1234,-11.108568,-2.746624,-0.9155409999999999,0.003906,-0.067384,1.020035
1236,-10.681315,-1.159686,0.0,0.026489999999999996,-0.068116,1.000748
1238,-17.334249,0.48828900000000003,1.7700470000000001,0.011353,-0.046143,0.9922030000000001
1240,-23.376822,0.671397,2.197299,0.002441,-0.033569999999999996,0.946548
1242,-32.776379,-0.6103609999999999,3.479057,-0.0051270000000000005,-0.093751,1.004532
1244,-26.001373,-0.793469,5.554284,-0.009766,-0.095583,1.0057530000000001
1246,-28.686961,-5.249104,5.371176,0.027344,-0.057617999999999996,0.957046
1248,-31.860838,-9.704738,0.549325,-0.011597,-0.058227999999999995,0.9946440000000001
1250,-38.330663,-6.530861,-5.371176,0.002075,-0.069093,1.020157
1252,-46.692607,-6.71397,-11.047532,-0.059692999999999996,-0.06652899999999999,1.030411
1254,-61.219196,-7.385367,-34.546426000000004,-0.047974,-0.21008600000000002,1.0394450000000002
1256,-62.989242000000004,3.356985,-29.785611,0.142702,-0.423468,1.093156
1258,-56.214237,-4.577707,-19.409476,0.05835,0.045777,0.969375
1260,-110.10910200000001,1.953155,-3.295949,0.05774,0.091554,0.8222780000000001
1262,-161.07423500000002,-2.4414439999999997,-32.532235,-0.001343,0.8973530000000001,1.309102
1264,-582.467384,10.437171000000001,8.850233,-0.076539,0.47363999999999995,1.9999689999999999
1266,-688.4260320000001,12.024109,32.166018,0.254276,-0.163821,1.015274
1268,-878.797589,13.366903,136.6598,-1.142107,-1.776028,1.9999689999999999
1270,18.921187,8.606088,-43.335622,-0.6479590000000001,-0.21936399999999998,1.9999689999999999
1272,-175.41771599999998,-29.114214,37.781338,-0.739147,0.405402,1.9999689999999999
1274,21.118485999999997,-63.416495,77.332723,-0.19836700000000002,0.297612,1.9999689999999999
1276,63.172351,-49.011978000000006,66.407263,0.249638,0.561898,1.3464559999999999
1278,136.964981,-10.986496,19.531548,0.329351,0.47559300000000004,0.922744
1280,150.270848,-10.009917999999999,-14.465553,0.14551,0.252079,0.8372930000000001
1282,178.652628,-26.367590000000003,-32.166018,-0.063111,0.14941600000000002,0.906386
1284,210.14725,-41.748684000000004,-34.485389,-0.259281,0.072145,1.432029
1286,268.253605,-39.368276,-29.968719,-0.34815,-0.044923000000000005,1.748684
1288,318.303197,-18.860151000000002,-26.001373,-0.327642,-0.21936399999999998,1.3432819999999999
1290,328.740368,6.591897,-21.789883,-0.253056,-0.338506,1.2722360000000001
1292,333.86739900000003,23.620966,-20.691233999999998,-0.113283,-0.41944,1.112932
1294,308.232242,30.273899,-28.442816999999998,0.054322,-0.543343,0.638437
1296,238.773175,57.007706000000006,-47.547112,0.123293,-0.450568,1.162493
1298,223.331044,67.444877,-63.599603,0.033448,-0.437507,1.915068
1300,229.373617,79.468986,-60.852979000000005,-0.210208,-0.630869,1.99527
1302,227.42046200000001,83.98565699999999,-38.879988,-0.236942,-0.751843,1.9999689999999999
1304,263.797971,79.041733,-21.606775,-0.036744,-0.817884,1.9999689999999999
1306,266.239414,87.464714,-24.048219,0.220951,-0.823011,1.538842
1308,233.09681899999998,95.399405,-36.255435999999996,0.192996,-0.846082,1.376974
1310,195.74273300000002,99.610895,-32.654307,-0.139773,-1.068376,1.427268
1312,180.239567,56.336309,-1.342794,-0.049683,-1.7000990000000002,1.4533909999999999
1314,137.453269,52.857252,12.390326,0.813245,-2.0000310000000003,0.45142299999999996
1316,90.45548199999999,64.148928,-19.531548,0.404547,-2.0000310000000003,-2.0000310000000003
1318,-224.06347799999998,-198.61142900000002,64.51514499999999,0.553964,-1.9474169999999997,-0.533333
1320,-222.171359,-156.130312,30.212863,0.31396999999999997,-0.40235,1.686793
1322,-199.160754,-78.126192,36.438544,-0.266972,0.535409,1.386862
1324,-277.103838,-82.887007,52.124819,0.708019,-0.5629970000000001,1.613916
1326,-189.333944,-23.132676999999997,23.315785,0.201907,-0.344854,1.9999689999999999
1328,-99.671931,-80.933852,44.556344,-0.622324,-0.223148,1.297993
1330,-68.84870699999999,-39.00206,5.493248,1.255024,0.101564,1.62295
1332,-78.61448100000001,-33.752956,15.442129999999999,-0.378058,-0.087282,1.121843
1334,-28.259709,-13.183795000000002,-2.136263,-0.040894,-0.039796,1.106096
1336,-7.324331,-18.493935,0.30518,0.167483,0.039550999999999996,1.1427180000000001
1338,-21.484703,-12.573433999999999,1.40383,-0.047608,0.0070799999999999995,0.979507
1340,-19.165332,-12.390326,0.244144,0.106081,-0.029297000000000004,0.9991610000000001
1342,-12.878614,-3.173877,2.4414439999999997,0.058838999999999995,-0.009522,1.047623
1344,-11.169604,-0.427253,4.028382,0.043091000000000004,0.012451,1.064225
1346,-10.009917999999999,-0.976577,3.234913,-0.013672,0.023072,0.963882
1348,-12.32929,-5.188067,2.197299,0.039673,0.014893,1.0095370000000001
1350,-13.061722999999999,-5.859464,0.366217,0.053223,-0.031738999999999996,1.018204
1352,-10.193027,-3.723201,1.159686,0.037842,0.024903,1.041642
1354,-10.559242999999999,-1.525902,1.464866,0.051026,-0.032471,1.006363
1356,-13.244831,-0.9155409999999999,1.159686,0.030639999999999997,-0.02002,0.9817040000000001
1358,-16.601816,-2.380407,0.0,0.019776,-0.033936,0.984024
1360,-17.700464999999998,-3.479057,-0.6103609999999999,0.036744,-0.048096,1.008438
1362,-14.709697,-2.563516,0.30518,0.036866,-0.06836,0.999771
1364,-15.197985999999998,-2.746624,0.671397,0.032349,-0.075929,1.01088
1366,-16.84596,-1.8310830000000002,0.48828900000000003,0.048096,-0.058106,1.037858
1368,-8.1178,0.6103609999999999,1.70901,0.054444000000000006,-0.078981,0.9987950000000001
1370,-6.775005999999999,2.990768,4.028382,0.045655,-0.080934,0.991226
1372,-8.484016,4.272526,5.065995,0.043458,-0.057252,0.9941559999999999
1374,-10.620279,3.479057,3.418021,0.022338999999999998,-0.054322,0.9901270000000001
1376,-14.160372,0.6103609999999999,0.854505,0.012085,-0.066285,0.969741
1378,-19.775692000000003,-2.2583349999999998,-1.09865,-0.000488,-0.052369000000000006,0.996475
1380,-28.381781,-4.272526,-3.1128400000000003,0.034058,-0.086427,1.000381
1382,-25.26894,-1.70901,0.671397,0.07531900000000001,-0.096071,1.021622
1384,-33.142596000000005,3.540093,8.361944,0.012573,-0.123537,1.004166
1386,-34.302281,3.845274,6.836042,0.014649,-0.060792,0.993423
1388,-38.269627,0.183108,3.356985,-0.031373000000000005,-0.076783,1.000137
1390,-35.88922,0.854505,-12.085144999999999,-0.007568000000000001,-0.19983199999999998,0.9201799999999999
1392,-47.974365,7.629511,-39.00206,0.117556,-0.262455,1.080705
1394,-7.9957270000000005,6.775005999999999,0.732433,0.14844000000000002,-0.157229,1.145892
1396,-40.466926,18.371862,2.075227,0.010498,0.136477,0.9427629999999999
1398,-122.6215,23.559929999999998,-0.854505,0.058961,0.128298,0.801404
1400,-169.680324,-15.075914000000001,9.582666,-0.06640700000000001,0.632944,1.241352
1402,-558.175021,-51.697565999999995,53.101395999999994,-0.503426,0.350591,1.831693
1404,-718.455787,-106.446937,72.205692,0.125856,-0.248173,1.25417
1406,-956.252384,-96.009766,154.848554,-0.251347,-1.721096,1.9999689999999999
1408,241.39772599999998,37.354085999999995,-38.513771000000006,-0.37830199999999997,0.763195,1.9999689999999999
1410,79.16380600000001,34.058137,-7.751583,-0.65333,0.328374,1.112444
1412,-3.967346,-48.340581,79.041733,-0.023316,0.238773,0.42468900000000004
1414,95.887694,-31.250477000000004,42.481117,0.128908,0.44934799999999997,0.308354
1416,75.31853199999999,-18.371862,20.080873,0.170901,0.393561,0.7486689999999999
1418,115.968566,-23.193713,-8.606088,0.062013,0.45423100000000005,1.019303
1420,175.173571,-31.250477000000004,-26.428626,-0.083864,0.266117,1.383688
1422,222.293431,-18.127717999999998,-33.936065,-0.228397,0.014771000000000001,1.404562
1424,259.2813,5.371176,-27.588312,-0.321294,-0.1897,1.227192
1426,271.793698,15.197985999999998,-8.911269,-0.280034,-0.307256,1.292378
1428,284.916457,16.296635000000002,-3.784237,0.039796,-0.413458,1.392477
1430,291.447318,27.649348,-18.982223,0.19836700000000002,-0.395514,1.4032200000000001
1432,283.573663,34.241245,-40.772107,0.180911,-0.550912,1.520165
1434,272.89234799999997,40.222782,-54.505226,-0.022705,-0.676036,1.379782
1436,240.17700499999998,53.650721,-55.84802,-0.115969,-0.706188,1.254536
1438,198.12313999999998,64.148928,-51.270314,-0.024291999999999998,-0.554696,1.786893
1440,208.43823899999998,67.811093,-56.641489,0.18701500000000001,-0.53492,1.9999689999999999
1442,235.049973,88.685435,-71.900511,0.257939,-0.6562600000000001,1.886259
1444,226.504921,90.943771,-75.135424,0.231327,-0.77467,1.420676
1446,197.146563,77.882048,-72.999161,0.295048,-0.8402229999999999,1.378927
1448,180.483711,70.313573,-76.722362,0.292485,-1.025895,1.270283
1450,151.613642,74.586099,-75.806821,0.21155100000000002,-1.4537579999999999,1.09279
1452,115.66338600000002,86.060884,-60.791943,0.150393,-2.0000310000000003,0.6825060000000001
1454,87.159533,59.388113,-21.423667000000002,-0.008179,-1.9728080000000001,-0.381231
1456,-21.423667000000002,-34.912642,41.687647999999996,-0.042725,-1.356222,-0.034302
1458,-57.373922,-71.778439,75.31853199999999,-0.079713,-0.804944,1.1223319999999999
1460,-181.826505,-185.915923,79.65209399999999,0.712291,-0.114748,0.8217899999999999
1462,-106.385901,-72.51087199999999,40.588998,-0.0070799999999999995,1.187518,0.48560299999999995
1464,-316.77729500000004,-94.30075500000001,54.749371,0.7089949999999999,-0.460945,0.9525290000000001
1466,-209.10963600000002,-32.898451,12.512398,1.088396,-0.120729,1.9999689999999999
1468,-81.36110500000001,22.827497,-16.418708,-0.546517,-0.098268,1.9999689999999999
1470,-41.931792,-40.650034000000005,33.936065,-0.295781,-0.14551,0.803113
1472,-78.187228,-55.970092,35.278859000000004,0.279423,0.011231,1.42678
1474,-48.157472999999996,-50.598917,18.432898,-0.036133,0.098756,1.125139
1476,-58.838788,-39.490349,5.371176,0.098146,0.053467999999999995,1.015885
1478,-51.33135,-29.541465999999996,-1.70901,0.092287,-0.086793,1.169818
1480,-35.88922,-8.667124000000001,1.40383,0.048951,0.016846,1.088762
1482,-27.710384,4.272526,2.075227,0.053346000000000005,-0.014159999999999999,1.118914
1484,-17.395285,15.381094000000001,3.418021,0.04004,-0.007691,1.065812
1486,-10.864424,12.451362,3.1128400000000003,-0.0015869999999999999,0.019043,0.991714
1488,-11.291675999999999,6.836042,1.159686,-0.04065,0.006226,0.996597
1490,-8.545052,4.882887,1.09865,-0.015747,-0.017945,1.0359040000000002
1492,-4.272526,4.943923000000001,2.685588,-0.027344,-0.001709,0.980728
1494,-4.943923000000001,2.990768,3.723201,-0.025879000000000003,-0.005371,0.989273
1496,-5.737392,-0.244144,3.418021,-0.026733999999999997,0.005982,0.988052
1498,-7.9957270000000005,-3.295949,2.380407,-0.026001,0.000732,0.961807
1500,-11.657893,-5.737392,0.0,0.038575,-0.036378,0.8963760000000001
1502,-9.643702000000001,-7.080186,0.854505,-0.004517,-0.020752,1.015396
1504,-3.6011290000000002,-6.652933999999999,0.0,-0.010742,-0.008057,0.982925
1506,-8.789197,-9.094377,-0.793469,0.082277,-0.050904000000000005,0.816541
1508,-9.765774,-12.878614,-0.427253,-0.018067,-0.002075,0.964614
1510,-10.620279,-13.244831,-1.2207219999999999,0.002564,-0.018555000000000002,0.977554
1512,-13.305867000000001,-11.474784,-0.122072,0.038697,-0.062623,1.033219
1514,-8.178836,-7.2022580000000005,0.854505,0.015259,-0.030762,0.9983059999999999
1516,-10.864424,-7.568475,0.549325,-0.0035399999999999997,-0.0031739999999999997,0.9519190000000001
1518,-21.972992,-12.512398,-0.9155409999999999,0.012573,-0.001099,0.945327
1520,-28.992141999999998,-11.963073,-0.366217,0.029907999999999997,-0.08569500000000001,1.011734
1522,-25.818265,-8.300908,1.342794,0.046387,-0.07324299999999999,0.9984280000000001
1524,-26.123445,-3.540093,3.356985,0.06421,-0.086061,1.058366
1526,-25.329976000000002,2.990768,9.399557000000001,0.051759000000000006,-0.037354000000000005,0.997452
1528,-25.818265,3.6011290000000002,10.070953999999999,0.008789,-0.027710000000000002,0.999649
1530,-41.992828,-0.427253,4.394598,-0.022461000000000002,-0.028931000000000002,0.964126
1532,-45.532921,-4.577707,-6.2867169999999994,-0.038331,-0.055299,1.009049
1534,-48.645762,-5.493248,-21.362631,-0.055299,-0.189334,1.176654
1536,-47.364004,7.568475,-35.645075,0.11413699999999999,-0.39758899999999997,1.036027
1538,-14.587625,-0.793469,2.380407,0.09289700000000001,-0.025757,0.979507
1540,-82.398718,11.657893,-16.601816,0.099245,0.20972,0.9784079999999999
1542,-152.956436,12.451362,-16.235599,-0.116701,0.12414700000000001,0.568124
1544,-296.330205,-17.395285,-40.650034000000005,0.22302600000000003,1.313619,1.238666
1546,-625.680934,-85.938811,6.591897,-0.20972,0.21521300000000002,1.159442
1548,-808.484016,-162.294957,41.260395,0.07776,-0.163333,0.816297
1550,-603.219654,-71.717403,138.735027,-1.550439,-0.822522,1.9999689999999999
1552,346.623941,6.103609,-41.992828,-0.612192,1.026505,1.9999689999999999
1554,-16.113526999999998,-25.696193,46.936751,-0.44275600000000004,0.388556,0.22900700000000002
1556,83.98565699999999,-14.526589000000001,21.667811,-0.141726,0.24853899999999998,0.425055
1558,30.212863,-8.545052,11.169604,0.017212,0.390753,0.693004
1560,104.67689,12.63447,-8.361944,-0.026001,0.447395,1.043595
1562,130.617227,5.7984279999999995,-13.733120000000001,-0.090211,0.382818,1.364767
1564,198.91660900000002,20.386053,-19.165332,-0.11609100000000001,0.319463,1.5832760000000001
1566,262.333104,44.3122,-17.273213000000002,-0.138308,0.06421,1.71548
1568,321.35500099999996,43.762875,-10.131991000000001,-0.044556,-0.15967,1.225727
1570,330.632486,27.527276,-10.131991000000001,0.199344,-0.196292,0.8736709999999999
1572,302.006561,33.997101,-32.776379,0.38660300000000003,-0.397955,0.558724
1574,233.95132400000003,86.30502800000001,-59.63225799999999,0.349248,-0.394049,0.678111
1576,187.014572,79.041733,-69.214923,0.069703,-0.25977,1.9625540000000001
1578,208.926528,94.666972,-56.885633999999996,-0.04065,-0.527474,1.9999689999999999
1580,288.273442,110.475319,-41.138323,-0.10583699999999999,-0.91371,1.76614
1582,246.585794,81.72732099999999,-7.263294,-0.015503,-1.050065,1.9999689999999999
1584,233.46303500000002,105.226215,-7.324331,0.281621,-1.079728,1.286885
1586,186.343175,113.46608700000002,-9.155413000000001,0.301396,-1.113298,1.914824
1588,212.95491,72.69398000000001,-9.82681,0.569711,-1.1584649999999999,1.555077
1590,191.165026,47.058824,-20.935378,0.592172,-1.285908,0.869642
1592,147.03593500000002,21.484703,-26.428626,0.260258,-1.558618,0.784192
1594,111.63500400000001,12.756542,-21.850919,0.102296,-1.796414,0.519783
1596,51.819638,20.935378,-1.8310830000000002,-0.169802,-1.87747,0.21240599999999998
1598,-14.099336,2.868696,44.3122,-0.585458,-1.787869,0.071778
1600,-232.91371,-163.94293100000002,85.206378,0.38782300000000003,-1.068254,0.614633
1602,-73.853666,-63.965819999999994,37.537194,-0.364263,1.2256049999999998,1.234638
1604,-320.256352,-123.53704099999999,96.375982,0.695933,-0.417975,0.644663
1606,-196.59723799999998,-63.416495,45.288777,1.5213860000000001,0.028564999999999997,1.9999689999999999
1608,-97.291524,3.6621650000000003,-11.169604,0.003418,-0.030274000000000002,1.451682
1610,-147.03593500000002,-49.683375,53.528649,-1.025406,-0.5570149999999999,1.5205309999999999
1612,-58.289464,-64.45410799999999,19.043259,1.3076370000000002,0.241581,1.9999689999999999
1614,-74.769207,-29.053178000000003,11.596857,-0.44361000000000006,0.097536,1.230365
1616,-36.926833,-25.26894,-5.554284,0.278325,0.011475,1.342061
1618,-17.151141,-22.400244,-2.990768,0.121218,-0.036866,1.080705
1620,-25.696193,-7.873655,2.685588,-0.026246,-0.04065,0.985
1622,-17.94461,-6.897078,3.418021,0.017334,0.042725,0.976944
1624,-21.423667000000002,-6.836042,3.234913,0.034546,-0.01709,1.044327
1626,-12.817578,-8.606088,2.80766,0.03003,0.049683,0.98793
1628,-18.127717999999998,-9.094377,1.2207219999999999,0.005493,-0.013793999999999999,1.018326
1630,-15.381094000000001,-8.056764,2.197299,0.055665,-0.0015869999999999999,1.027359
1632,-15.686275,-6.652933999999999,2.868696,0.019653999999999998,0.004639,1.006851
1634,-12.878614,-4.8218510000000006,1.7700470000000001,0.025635,-0.008667,1.006607
1636,-17.761501000000003,-5.554284,1.159686,0.011597,-0.0070799999999999995,0.9864649999999999
1638,-19.958801,-7.446403,-0.671397,0.029297000000000004,-0.032471,0.999283
1640,-18.188754,-7.446403,-0.427253,0.029786,-0.025513,1.006485
1642,-21.667811,-5.188067,-0.976577,0.045288999999999996,-0.047974,1.027115
1644,-8.728161,-5.371176,0.366217,0.036011,-0.049561,1.017227
1646,-8.361944,-6.775005999999999,0.30518,0.029419,-0.034302,1.010269
1648,-10.131991000000001,-7.141222,-0.793469,0.041749,-0.055909,1.001968
1650,-9.033341,-5.0049589999999995,-0.9155409999999999,0.060303999999999996,-0.072511,0.996841
1652,-9.216449,-1.464866,1.2207219999999999,0.068971,-0.061402,1.0205229999999998
1654,-14.343481,2.685588,2.80766,0.067262,-0.066041,0.897963
1656,-9.399557000000001,2.990768,3.479057,0.025391,-0.033082,0.9826809999999999
1658,-14.892805,0.122072,1.2207219999999999,0.015259,-0.055542999999999995,0.926528
1660,-19.043259,-1.8310830000000002,-0.549325,0.050904000000000005,-0.0636,0.989883
1662,-21.05745,-0.854505,-0.183108,0.049317,-0.071534,0.9784079999999999
1664,-30.273899,3.540093,3.90631,0.027832,-0.074952,0.9715719999999999
1666,-31.128404999999997,5.432212,8.178836,0.041505,-0.094972,1.005264
1668,-32.288090000000004,5.065995,9.399557000000001,0.020630000000000003,-0.084596,1.015152
1670,-28.015564,3.356985,2.868696,0.007324,-0.079591,0.9834129999999999
1672,-31.677729,1.342794,-9.765774,-0.014159999999999999,-0.133669,1.033463
1674,-38.818952,5.737392,-32.288090000000004,-0.07128999999999999,-0.109499,1.0869309999999999
1676,-24.292363,2.990768,-20.019837,0.120119,-0.30847600000000003,0.991714
1678,-9.216449,1.281758,2.868696,0.072023,-0.066896,1.029557
1680,-79.041733,18.921187,-13.244831,0.068482,0.16406500000000002,0.95436
1682,-143.312734,21.789883,-27.161059,-0.12134,0.471321,0.73109
1684,-228.030823,-35.400931,-21.728847000000002,-0.180911,0.510628,1.531395
1686,-547.920958,-113.221942,-29.236286,-0.656138,-0.144289,1.1701840000000001
1688,-730.724041,-221.43892599999998,38.513771000000006,0.087648,0.066651,0.8805069999999999
1690,-1011.0017550000001,-202.273594,170.717937,-0.301152,-0.905409,1.9999689999999999
1692,339.05546699999996,18.738079,-118.226902,-0.189944,0.918349,1.9999689999999999
1694,124.452583,29.48043,-99.427787,-0.953017,0.5081859999999999,1.000992
1696,-3.295949,-22.766461,15.014878,-0.524666,0.0813,0.39026500000000003
1698,133.791104,14.526589000000001,8.728161,-0.444587,0.323613,0.5372399999999999
1700,105.83657600000001,20.630198,34.363316999999995,-0.356329,0.20056500000000002,1.22414
1702,181.765469,30.945296000000003,40.283818,-0.142702,0.303471,1.230732
1704,223.39208100000002,47.791257,34.607462,0.146242,0.185306,1.2638129999999999
1706,247.19615499999998,70.130465,14.953841,0.39014299999999996,0.003906,1.416892
1708,291.081102,84.107729,-13.366903,0.404181,-0.21325999999999998,1.437522
1710,309.20882,69.703212,-32.227053999999995,0.45191099999999995,-0.388434,1.2833450000000002
1712,296.69642200000004,68.604562,-56.214237,0.49988599999999994,-0.655161,0.9875639999999999
1714,245.85336099999998,88.380255,-67.322805,0.14636500000000002,-0.848402,0.599252
1716,188.906691,51.392386,-55.603876,0.026978,-0.5832609999999999,1.404929
1718,180.544747,62.439918000000006,-51.087205,0.020263999999999997,-0.57203,1.9999689999999999
1720,232.364385,104.066529,-50.476844,-0.148074,-0.883558,1.6767830000000001
1722,195.193408,99.549859,-15.320058,-0.299809,-0.9212790000000001,1.854887
1724,227.42046200000001,82.03250200000001,18.188754,-0.057617999999999996,-0.794446,1.9881900000000001
1726,228.030823,99.732967,20.202945,0.267704,-0.719371,1.416159
1728,202.82291899999998,107.911803,5.61532,0.297612,-0.710704,1.329732
1730,189.944305,94.42282800000001,-4.028382,0.244022,-0.790417,1.3305870000000002
1732,180.727855,68.055238,-8.972305,0.24560900000000002,-0.969375,0.991348
1734,139.894713,65.308614,-12.817578,0.22693200000000002,-1.4118870000000001,0.8870979999999999
1736,101.991302,77.882048,-10.986496,0.122438,-1.946563,0.312627
1738,30.273899,49.195087,23.682002,-0.160647,-1.7897,-0.333257
1740,-46.387427,-31.494621000000002,79.59105799999999,-0.249638,-1.291768,0.626108
1742,-184.756237,-84.657053,86.549172,0.187381,-0.09253099999999999,0.574472
1744,-52.063783,-83.009079,45.532921,-0.311284,1.472068,1.178485
1746,-291.996643,-113.34401499999998,88.685435,0.13073900000000002,-0.042237000000000004,-0.121218
1748,-254.03219700000002,-65.186542,71.717403,1.642725,0.027832,1.9999689999999999
1750,-135.988403,8.1178,-16.784924,0.768688,0.081666,1.7207290000000002
1752,-135.133898,39.368276,14.648660999999999,-1.6859389999999999,-0.21130700000000002,1.9999689999999999
1754,-36.682689,-44.3122,48.82887,0.023438,0.24548699999999998,0.921035
1756,-77.515831,-54.627297999999996,32.532235,0.0094,0.099489,0.9863430000000001
1758,-50.537881,-79.468986,23.071641,0.19763499999999998,-0.006958,1.218158
1760,-59.937438,-57.007706000000006,9.033341,-0.012085,0.07470800000000001,1.084367
1762,-45.349813,-45.716029999999996,-1.586938,0.21008600000000002,0.0094,1.1213549999999999
1764,-34.180209000000005,-13.550010999999998,0.9155409999999999,0.134524,-0.034546,1.25539
1766,-24.475471,3.356985,0.976577,0.000366,0.036866,1.062516
1768,-17.273213000000002,5.859464,1.647974,-0.002075,0.030883999999999998,0.98024
1770,-25.329976000000002,2.075227,1.342794,0.010131999999999999,0.022461000000000002,1.014054
1772,-17.273213000000002,1.40383,0.30518,-0.03125,0.000122,1.005142
1774,-18.127717999999998,-1.525902,0.244144,-0.0051270000000000005,-0.008301000000000001,1.011368
1776,-15.13695,-3.723201,0.366217,-0.142702,0.092042,1.143572
1778,-20.202945,-8.178836,0.30518,-0.021851,-0.028199000000000002,0.991226
1780,-13.183795000000002,-6.958114,-1.09865,0.018433,-0.011963,1.0394450000000002
1782,-12.390326,-4.8218510000000006,-0.854505,-0.003906,-0.020752,1.0321200000000001
1784,-7.141222,-1.647974,0.30518,0.0051270000000000005,-0.038819,1.032242
1786,-6.408789,-1.09865,0.0,-0.000122,-0.024659,1.008682
1788,-0.9155409999999999,-0.793469,-0.183108,0.000732,-0.033082,1.012467
1790,-1.586938,-2.4414439999999997,-0.671397,-0.008057,-0.026368,0.9959870000000001
1792,0.244144,-2.990768,-0.732433,0.003296,-0.025391,1.017472
1794,1.281758,-1.2207219999999999,0.30518,0.015259,-0.037110000000000004,1.0234530000000002
1796,1.586938,0.549325,1.037613,0.018311,-0.019287000000000002,1.003433
1798,1.342794,3.1128400000000003,1.586938,0.011597,-0.021118,1.001968
1800,-0.976577,2.929732,1.8310830000000002,-0.012206999999999999,-0.027466,0.9907379999999999
1802,-1.159686,-0.244144,0.671397,-0.025147,-0.026246,0.985489
1804,-0.671397,-1.953155,-0.6103609999999999,0.024537,-0.026489999999999996,0.995132
1806,0.244144,2.2583349999999998,0.549325,0.01294,-0.027587999999999998,1.007218
1808,-1.281758,5.188067,2.319371,-0.01648,-0.013184,0.981827
1810,-4.577707,3.173877,1.525902,-0.021241,-0.018189,0.977798
1812,-5.188067,0.9155409999999999,0.671397,-0.026123,-0.021118,0.976211
1814,-6.836042,-4.028382,-0.671397,-0.026123,-0.017823,0.9793850000000001
1816,-8.42298,-5.7984279999999995,-0.854505,-0.00647,-0.03003,0.992935
1818,-12.451362,-6.347753,0.366217,-0.017578,0.035401,0.9317770000000001
1820,-25.513085,-7.873655,-0.366217,-0.000732,-0.013428,0.9792629999999999
1822,-26.489662,-7.01915,-2.014191,0.05127,-0.05285700000000001,1.009293
1824,-33.813992999999996,-2.624552,1.8921189999999999,-0.006592,-0.052490999999999996,1.008682
1826,-27.405203000000004,3.173877,5.9205,0.0063479999999999995,-0.07837000000000001,1.025772
1828,-30.334936,6.775005999999999,8.361944,-0.028199000000000002,-0.083009,1.032242
1830,-24.597542999999998,8.178836,6.2867169999999994,-0.023438,-0.026856,0.925917
1832,-42.481117,1.586938,0.0,-0.043458,-0.036622,0.988418
1834,-37.90341,-0.427253,-8.361944,-0.072389,-0.011840999999999999,0.965591
1836,-55.970092,-6.530861,-18.493935,-0.014159999999999999,-0.103029,0.9461809999999999
1838,-83.680476,-13.733120000000001,-14.465553,0.018433,-0.072023,0.996841
1840,-105.53139499999999,-4.272526,-10.864424,0.046876,-0.007568000000000001,0.848035
1842,-143.129625,6.408789,-0.244144,0.087404,-0.036378,1.103899
1844,-185.305562,9.460594,-1.037613,0.168704,-0.12414700000000001,1.296284
1846,-136.47669199999999,19.165332,-4.150454,-0.069459,0.47778999999999994,1.4103
1848,-144.960708,2.990768,20.447089000000002,-0.726696,0.505013,1.9999689999999999
1850,97.840848,12.63447,-14.343481,-0.44849300000000003,0.431525,1.030411
1852,48.584726,-1.159686,22.583351999999998,-0.401129,0.141726,1.1103690000000002
1854,122.804608,-1.464866,41.077287,-0.417487,0.087892,1.302876
1856,161.562524,3.90631,59.021896999999996,-0.21325999999999998,-0.06579700000000001,0.797375
1858,156.679637,23.682002,58.716716000000005,0.036622,-0.144533,0.7264520000000001
1860,154.848554,31.006332,49.073014,0.11218399999999999,-0.178714,0.8410770000000001
1862,159.18211599999998,13.061722999999999,42.359045,0.180545,-0.246952,0.930068
1864,154.665446,0.671397,28.686961,0.223514,-0.303105,0.912367
1866,138.79606299999998,-3.418021,11.841001,0.07361000000000001,-0.439216,0.845716
1868,112.001221,-1.8921189999999999,3.356985,-0.09033300000000001,-0.517586,0.717784
1870,-44.556344,-156.496529,28.259709,0.218021,-0.693858,1.9999689999999999
1872,95.216297,-4.8218510000000006,-43.823910999999995,0.67042,-2.0000310000000003,-1.029679
1874,-179.995422,-17.151141,19.043259,-0.11340499999999999,-0.583383,1.9999689999999999
1876,316.411078,46.753643,-70.740826,0.6030369999999999,1.085466,-0.44324399999999997
1878,-241.763943,-49.073014,56.824597999999995,-0.53138,0.468757,1.06569
1880,63.111315000000005,12.085144999999999,-13.611048,0.028321,0.11218399999999999,1.123308
1882,-66.22415500000001,-5.188067,5.61532,0.071412,-0.195682,1.184344
1884,-12.390326,3.173877,1.8921189999999999,-0.050904000000000005,0.032349,0.952407
1886,-8.239872,-0.366217,-0.30518,-0.07128999999999999,0.022461000000000002,0.9627829999999999
1888,-8.606088,-3.723201,-0.427253,-0.022461000000000002,0.000122,1.0047760000000001
1890,-10.681315,-6.164645,-0.427253,-0.038452999999999994,0.016602000000000002,0.9831690000000001
1892,-13.183795000000002,-7.9957270000000005,-0.122072,-0.009644,-0.000366,1.009415
1894,-10.681315,-6.103609,-0.30518,0.012695999999999999,-0.015869,1.05861
1896,-10.254063,-4.638743,0.366217,0.012695999999999999,-0.016968,1.025528
1898,-9.094377,-3.1128400000000003,0.061036,0.002564,-0.0023190000000000003,0.997452
1900,-10.193027,-2.746624,0.0,0.005615,-0.029297000000000004,1.020157
1902,-7.507439,-1.647974,-0.244144,0.001709,-0.050904000000000005,1.042618
1904,1.342794,0.671397,0.0,0.0028079999999999997,-0.046143,1.043839
1906,1.8921189999999999,0.366217,-0.183108,-0.021973,-0.004639,0.976822
1908,-0.9155409999999999,-1.525902,-0.30518,-0.009522,-0.006714,0.969619
1910,-2.746624,-2.136263,-0.30518,0.001831,-0.024048,1.017227
1912,-1.464866,-1.464866,0.0,-0.0015869999999999999,-0.028564999999999997,1.006363
1914,-0.732433,-0.9155409999999999,0.0,0.0021969999999999997,-0.032471,1.0215
1916,2.563516,0.0,-0.244144,0.0008550000000000001,-0.039429,1.017838
1918,4.394598,0.30518,-0.366217,0.003296,-0.033569999999999996,1.008804
1920,4.394598,0.366217,-0.366217,0.004517,-0.026733999999999997,1.006851
1922,6.2867169999999994,1.40383,-0.244144,0.007568000000000001,-0.025391,1.0150299999999999
1924,8.728161,2.868696,0.061036,0.009522,-0.032958999999999995,1.019791
1926,11.291675999999999,4.028382,0.0,-0.0037840000000000005,-0.000122,1.002457
1928,11.718929,3.540093,0.0,0.009155,-0.032471,1.045792
1930,17.456321,3.90631,0.48828900000000003,-0.015869,0.008301000000000001,0.9630270000000001
1932,5.676356,1.342794,0.732433,-0.005982,0.022461000000000002,0.951308
1934,5.249104,2.014191,0.671397,0.006592,0.024291999999999998,1.026139
1936,6.103609,2.50248,1.342794,-0.025635,0.001709,0.970108
1938,6.469825,1.09865,1.2207219999999999,-0.013184,0.037232,1.02504
1940,5.859464,-2.136263,0.854505,-0.041260000000000005,0.006592,0.9391010000000001
1942,5.188067,-5.371176,0.549325,0.0028079999999999997,-0.0031739999999999997,1.0486
1944,5.859464,-1.7700470000000001,0.48828900000000003,0.033448,-0.00415,1.048478
1946,9.155413000000001,4.028382,1.647974,-0.009522,0.039918,0.950576
1948,1.586938,-2.990768,0.366217,-0.055665,0.067872,0.9007709999999999
1950,-0.671397,-10.925460000000001,-3.295949,-0.021851,0.045411,0.9583889999999999
1952,-12.390326,-8.056764,-2.746624,0.041505,0.017334,1.1223319999999999
1954,-3.1128400000000003,2.685588,-0.122072,0.053956,-0.020874,1.0804610000000001
1956,1.09865,6.469825,0.244144,-0.06274500000000001,0.050172,0.910536
1958,-7.446403,-2.990768,-2.2583349999999998,-0.027710000000000002,0.066163,1.00795
1960,-7.934691,-4.333562000000001,-2.380407,0.017212,-0.072267,1.110002
1962,9.643702000000001,-0.122072,-1.464866,0.037598,-0.021973,1.065568
1964,13.427939000000002,6.103609,0.244144,0.026489999999999996,0.031495,0.998917
1966,6.591897,7.629511,0.793469,-0.08142200000000001,0.036378,0.92604
1968,2.990768,-0.48828900000000003,-1.525902,-0.010376,-0.002075,1.006729
1970,1.09865,0.48828900000000003,-0.9155409999999999,-0.002441,0.069703,0.918715
1972,-4.882887,2.685588,0.549325,-0.022095,0.012818000000000001,0.969619
1974,-9.338521,2.990768,1.342794,-0.019532,-0.018555000000000002,1.0278479999999999
1976,-6.042573,1.525902,1.09865,-0.030274000000000002,-0.016236,0.994766
1978,-3.90631,-3.90631,-1.40383,-0.010376,0.0023190000000000003,0.998184
1980,-1.8310830000000002,-3.90631,-1.8921189999999999,0.023194,-0.016236,1.0274809999999999
1982,1.586938,-0.427253,-1.2207219999999999,0.013428,-0.029175,0.989151
1984,0.549325,1.525902,0.0,0.003296,0.005371,1.0011139999999998
1986,-0.854505,2.4414439999999997,0.183108,-0.004517,-0.006104,1.000748
1988,-0.30518,2.014191,-0.122072,-0.013062,-0.010498,1.00148
1990,0.0,3.234913,-12.817578,0.036378,-0.043702,1.049699
1992,-1.159686,1.281758,-2.685588,-0.004761,-0.036011,1.068498
1994,3.1128400000000003,1.7700470000000001,-4.394598,-0.011231,0.034058,0.93019
1996,-3.845274,3.173877,-8.850233,-0.027222000000000003,-0.049439,0.9976959999999999
1998,1.342794,-0.244144,1.70901,-0.020142,-0.033082,1.04506
2000,2.014191,-0.244144,2.868696,-0.010131999999999999,-0.005737,1.0167389999999998
2002,5.127031,0.366217,1.2207219999999999,-0.009644,0.001343,0.9790190000000001
2004,3.1128400000000003,0.0,-0.244144,-0.007691,0.000488,0.9865870000000001
2006,1.037613,0.0,-1.281758,-0.010498,0.021241,0.9698629999999999
2008,-2.746624,-1.8310830000000002,-0.732433,-0.001953,-0.000122,1.003433
2010,-3.540093,-1.2207219999999999,-0.122072,0.0094,-0.029786,0.9956209999999999
2012,1.342794,0.30518,-0.244144,-0.0051270000000000005,0.001831,0.996231
2014,0.671397,-0.48828900000000003,1.342794,0.003906,-0.009888,1.0046540000000002
2016,-0.976577,-0.549325,3.356985,-0.0043950000000000005,-0.007812999999999999,1.0008700000000001
2018,0.671397,0.854505,-0.122072,-0.025879000000000003,0.001099,1.000504
2020,5.371176,0.549325,0.0,-0.014527000000000002,-0.01648,1.0164950000000001
2022,7.385367,0.854505,0.061036,0.001831,0.010254000000000001,0.9903719999999999
2024,1.464866,0.427253,-0.244144,0.000488,-0.007201999999999999,1.00209
2026,2.136263,1.09865,-1.281758,0.004639,-0.006226,1.024063
2028,5.9205,1.159686,-0.427253,-0.017456,-0.017823,1.008194
2030,11.169604,0.427253,-0.244144,-0.008789,0.030518,0.948501
2032,2.2583349999999998,-0.976577,-0.48828900000000003,-0.004273,0.016114,0.9625389999999999
2034,-0.122072,0.061036,-1.037613,-0.003662,-0.007201999999999999,1.015274
2036,-0.061036,0.0,-0.48828900000000003,-0.0058590000000000005,0.000732,1.002213
2038,3.6621650000000003,0.0,-0.48828900000000003,-0.0051270000000000005,0.006836,0.9922030000000001
2040,3.173877,-0.244144,-4.8218510000000006,0.022461000000000002,0.017212,0.9952540000000001
2042,3.784237,0.244144,-1.647974,-0.023438,0.011231,0.9834129999999999
2044,1.281758,-0.366217,-1.159686,-0.009155,0.008423,0.997574
2046,-0.793469,-1.037613,0.0,-0.002686,-0.003052,1.006851
2048,4.455634,1.159686,-1.159686,-0.009276999999999999,0.001831,1.0095370000000001
