Packet number,Gyroscope X (deg/s),Gyroscope Y (deg/s),Gyroscope Z (deg/s),Accelerometer X (g),Accelerometer Y (g),Accelerometer Z (g)
0,-0.976577,-0.610361,0.000000,-0.008667,0.005737,1.000381
1,-1.037613,-0.488289,-0.183108,-0.005371,0.006348,0.996109
2,-0.915541,-0.366217,0.000000,-0.007202,0.005249,0.997330
3,-0.915541,-0.061036,-0.122072,-0.004761,0.002197,0.996475
4,-0.793469,-0.183108,-0.183108,-0.005982,0.007324,1.003677
5,-0.549325,-0.305180,0.000000,-0.007202,0.003662,0.991470
6,-0.671397,-0.244144,0.000000,-0.007691,0.008789,0.996841
7,-0.488289,-0.427253,-0.183108,-0.004517,-0.000977,1.006241
8,0.061036,-0.366217,0.000000,-0.015625,0.004639,0.972305
9,-0.183108,-0.488289,0.000000,-0.003418,0.013550,0.989029
10,-0.976577,-0.549325,0.122072,-0.008789,-0.001343,1.005753
11,0.305180,-0.366217,0.000000,-0.003052,0.018433,0.995132
12,-1.403830,-0.488289,0.061036,-0.008423,0.000000,0.998917
13,-0.122072,-0.366217,0.000000,-0.001953,0.010010,0.991226
14,-1.281758,-0.427253,0.000000,-0.009033,0.001465,1.005142
15,-0.610361,-0.488289,0.000000,-0.008301,0.008179,0.999039
16,-0.976577,-0.427253,0.000000,-0.002564,0.007202,0.998306
17,-0.793469,-0.305180,0.000000,-0.009522,0.001709,0.999649
18,-0.305180,-0.244144,-0.122072,-0.008667,0.006714,0.995254
19,-0.610361,-0.427253,0.000000,-0.003540,0.005127,0.998550
20,-0.183108,-0.305180,0.000000,-0.002686,-0.000122,1.000015
21,-0.244144,-0.366217,-0.122072,-0.008423,0.012329,0.997940
22,-0.366217,-0.427253,0.000000,-0.005982,0.010010,1.000626
23,-0.854505,-0.610361,0.000000,-0.004761,0.010742,0.991592
24,-0.793469,-0.610361,0.000000,-0.005982,0.009400,0.999283
25,-0.854505,-0.610361,0.000000,-0.003540,0.009888,0.999161
26,-1.403830,-0.671397,0.000000,-0.006470,0.007691,1.003311
27,-0.915541,-0.488289,0.000000,-0.005737,0.003784,1.004044
28,-1.220722,-0.549325,0.000000,0.000366,0.008911,0.998306
29,-1.159686,-0.305180,0.000000,-0.006226,0.004761,1.003433
30,-0.793469,-0.244144,0.000000,-0.004883,0.009277,0.998428
31,-0.854505,-0.366217,0.000000,-0.006714,0.005737,1.003555
32,-0.671397,-0.305180,0.000000,-0.010010,0.008057,0.990494
33,-0.732433,-0.488289,-0.122072,-0.002319,0.003296,1.004776
34,-0.610361,-0.366217,0.000000,-0.004273,0.003296,1.017716
35,0.366217,-0.244144,-0.244144,-0.005371,0.013916,1.001480
36,-1.770047,-0.610361,0.000000,-0.005371,0.004639,0.998672
37,-0.061036,-0.549325,0.000000,-0.005737,0.002686,0.989517
38,-1.464866,-0.549325,0.000000,-0.007324,0.011963,0.996231
39,-1.037613,-0.427253,0.000000,-0.009033,0.004761,1.000870
40,-1.342794,-0.427253,0.000000,-0.007935,0.007324,1.000504
41,-1.342794,-0.549325,0.061036,-0.006226,0.004761,0.998795
42,-1.220722,-0.366217,0.000000,-0.006592,0.004395,1.000381
43,-0.915541,-0.488289,0.000000,-0.002808,0.010498,0.992691
44,-1.159686,-0.488289,0.122072,-0.014405,0.007324,0.996231
45,-0.793469,-0.549325,0.000000,0.001343,0.003174,1.009659
46,-0.732433,-0.549325,0.000000,-0.005493,0.001465,1.007095
47,-0.793469,-0.488289,-0.183108,-0.000732,0.003662,1.002335
48,-0.610361,-0.610361,0.000000,-0.005615,0.007202,1.013565
49,0.183108,-0.366217,0.000000,-0.000488,0.010498,1.003189
50,-1.525902,-0.671397,0.000000,-0.011719,0.001343,1.003311
51,0.122072,-0.427253,-0.122072,-0.003540,0.010864,0.988052
52,-1.464866,-0.671397,0.000000,-0.007691,0.004150,1.000381
53,-0.488289,-0.488289,0.000000,-0.007935,0.005737,1.002945
54,-1.037613,-0.488289,0.061036,-0.003174,0.006714,0.996597
55,-1.281758,-0.488289,0.000000,-0.006348,0.005737,1.001724
56,-0.915541,-0.427253,0.000000,-0.000366,-0.001099,0.999771
57,-0.610361,-0.305180,0.000000,-0.002686,0.005859,0.998672
58,-0.549325,-0.366217,0.061036,-0.009277,0.005615,0.999771
59,-0.610361,-0.366217,0.000000,-0.007324,0.004639,0.999893
60,-0.488289,-0.366217,0.000000,-0.005371,0.003296,1.007095
61,-0.366217,-0.366217,0.061036,-0.006226,0.008667,0.992813
62,-0.549325,-0.549325,0.122072,-0.002686,0.000244,0.994766
63,-0.122072,-0.610361,0.061036,-0.009155,0.009766,0.996719
64,-0.793469,-0.610361,0.000000,-0.006226,0.007935,0.994156
65,-0.732433,-0.488289,0.000000,-0.006836,0.005982,0.997452
66,-0.732433,-0.488289,0.000000,-0.006226,0.006226,0.998550
67,-0.793469,-0.427253,0.122072,-0.007568,0.005005,0.991348
68,-0.671397,-0.366217,0.000000,-0.005982,0.006836,0.997696
69,-1.037613,-0.549325,0.000000,-0.008423,0.004028,0.998306
70,-0.976577,-0.549325,0.000000,-0.013550,0.009888,0.997452
71,-0.976577,-0.732433,0.000000,-0.008545,0.004761,0.989395
72,-0.976577,-0.976577,-0.183108,-0.015015,0.000977,1.004776
73,-1.098650,-1.220722,0.000000,0.002441,-0.001587,1.017594
74,0.244144,-0.610361,0.000000,-0.012207,0.007080,0.992203
75,-1.037613,-1.159686,0.061036,-0.002686,0.001221,1.003677
76,-0.305180,-1.037613,0.061036,-0.015869,0.001709,0.999527
77,-0.427253,-1.525902,0.061036,-0.005249,0.006714,0.997574
78,-0.854505,-1.525902,0.000000,-0.005005,0.002808,1.010147
79,0.122072,-1.281758,0.000000,-0.004273,-0.002441,1.010025
80,0.488289,-0.976577,0.122072,-0.000977,-0.002564,1.016739
81,1.342794,-0.122072,-0.122072,0.041627,0.006104,1.109880
82,5.615320,0.000000,0.000000,0.012573,0.006958,1.036027
83,3.356985,0.305180,0.366217,0.004273,-0.009400,0.990860
84,6.836042,1.098650,-0.122072,-0.013428,-0.012573,1.013199
85,7.812619,1.464866,0.061036,0.003906,0.004150,1.029313
86,8.484016,1.464866,0.061036,-0.014527,0.001099,1.002335
87,10.193027,1.159686,0.000000,-0.007202,0.012940,0.988174
88,8.728161,0.000000,0.244144,0.001343,0.024537,1.002457
89,8.239872,0.671397,-0.427253,-0.019776,0.031128,0.960708
90,4.821851,-0.854505,-0.183108,-0.017090,0.011963,0.996841
91,7.080186,-0.915541,-0.305180,0.001465,0.023926,0.989273
92,4.882887,-1.037613,-0.244144,-0.007691,0.022461,0.982193
93,4.394598,-1.464866,0.000000,-0.005371,0.016114,0.995743
94,4.150454,-1.403830,0.000000,-0.006836,0.021485,1.002090
95,5.493248,-1.342794,0.061036,-0.006836,0.025391,0.997574
96,4.699779,-1.464866,0.183108,-0.005615,0.027710,0.991348
97,5.371176,-1.525902,0.366217,-0.003296,0.014282,0.999527
98,5.493248,-1.098650,0.671397,-0.003052,0.015137,0.999283
99,5.859464,-0.671397,0.671397,-0.008301,0.032349,0.990982
100,5.004959,-1.220722,0.671397,-0.011231,0.037964,0.985977
101,3.967346,-2.014191,0.549325,-0.008545,0.036500,0.974014
102,2.929732,-2.502480,0.427253,-0.002930,0.034180,0.989517
103,2.807660,-2.868696,0.305180,-0.012696,0.061646,1.007828
104,2.502480,-2.746624,0.305180,0.003662,0.003052,0.994156
105,3.173877,-2.929732,0.488289,-0.005615,0.062257,1.004166
106,2.319371,-3.356985,0.488289,0.001831,0.031373,0.994156
107,2.685588,-3.234913,0.000000,0.006592,0.004761,0.971572
108,2.197299,-2.746624,0.488289,0.009033,0.053223,1.010636
109,2.197299,-1.709010,1.037613,0.002564,0.027588,1.006241
110,2.990768,-1.159686,1.098650,-0.001465,-0.012818,0.954849
111,2.807660,-2.258335,1.403830,-0.011963,0.040162,0.987808
112,3.295949,-3.051804,1.037613,0.007324,0.046387,0.979019
113,1.464866,-3.479057,0.793469,0.001465,0.056519,0.965713
114,-1.037613,-3.479057,0.854505,0.022339,0.039185,1.023209
115,1.831083,-2.380407,0.915541,0.010010,0.029664,1.031754
116,3.967346,-1.831083,0.671397,0.017212,0.023560,0.991226
117,3.295949,-0.793469,0.976577,0.009888,0.030640,1.010513
118,4.699779,-0.305180,1.098650,-0.007202,0.028809,0.985855
119,4.882887,-0.854505,0.915541,-0.002197,0.044556,0.969009
120,2.380407,-0.915541,1.037613,0.015747,0.042725,1.016617
121,3.356985,0.366217,1.220722,-0.000366,0.030396,1.040421
122,6.591897,1.159686,1.159686,0.008057,0.045289,0.971817
123,2.807660,1.098650,1.037613,0.003174,0.063355,0.984390
124,1.892119,0.671397,0.793469,0.000977,0.017578,0.987564
125,3.479057,0.183108,0.732433,-0.005005,0.053712,0.983169
126,0.427253,-0.732433,0.915541,-0.012940,0.054078,0.984634
127,2.197299,-1.403830,0.305180,-0.013794,0.043458,0.986831
128,-0.732433,-3.723201,0.122072,-0.009888,0.048951,0.974990
129,-0.976577,-4.943923,-0.305180,-0.007568,0.045777,1.016495
130,0.061036,-4.882887,-0.366217,0.011719,0.024903,1.013443
131,2.441444,-4.089418,-1.037613,0.026368,-0.040528,0.942275
132,2.075227,-3.723201,-0.793469,0.030762,-0.002075,0.967056
133,0.671397,-2.624552,-0.610361,0.018067,0.062379,0.977188
134,-1.220722,-1.647974,-0.549325,0.017334,0.061036,0.982681
135,-2.441444,-0.732433,-0.610361,0.025391,0.049805,0.997940
136,-2.868696,0.671397,-0.549325,0.028077,0.038575,1.007095
137,-1.953155,2.624552,-0.610361,0.027955,0.048096,1.010636
138,-2.868696,3.967346,-0.305180,0.031861,0.034424,1.015030
139,-1.831083,5.554284,-0.244144,0.014405,0.038087,1.007340
140,-1.709010,6.164645,0.061036,0.005371,0.042969,1.002945
141,-0.915541,6.408789,0.061036,-0.011109,0.039918,0.976699
142,-0.732433,5.188067,0.061036,-0.013184,0.047974,0.969009
143,-2.014191,3.601129,0.000000,-0.017456,0.038819,0.978164
144,-0.610361,1.953155,-0.427253,-0.020630,0.041260,0.991836
145,-1.037613,0.244144,-0.366217,-0.023438,0.035889,0.980728
146,-0.793469,-1.037613,-0.549325,-0.012818,0.035035,1.002213
147,0.183108,-1.586938,-0.732433,-0.011963,0.040772,0.995743
148,0.000000,-1.770047,-0.671397,-0.009277,0.050294,0.986465
149,-0.488289,-2.014191,-0.610361,-0.005005,0.048951,0.979385
150,-1.831083,-2.075227,-0.671397,-0.003296,0.052857,0.966934
151,-3.479057,-2.258335,-0.488289,0.008911,0.052369,0.985977
152,-4.394598,-1.831083,-0.549325,0.006104,0.052613,0.984512
153,-5.493248,-1.647974,-0.366217,0.001465,0.033936,1.004654
154,-4.638743,-1.281758,-0.366217,0.002319,0.042847,0.996475
155,-6.408789,-1.586938,-0.183108,0.002686,0.044434,0.995621
156,-5.737392,-1.709010,-0.366217,-0.007202,0.045411,0.974014
157,-6.836042,-2.563516,-0.427253,-0.001587,0.059449,0.968765
158,-9.704738,-3.234913,-0.549325,-0.005615,0.037720,0.964370
159,-9.338521,-4.028382,-0.732433,0.005982,0.054200,0.974136
160,-12.939651,-4.150454,-0.793469,0.011963,0.032593,0.999527
161,-12.085145,-3.234913,-0.732433,0.015991,0.027710,1.006363
162,-12.573434,-2.319371,-0.244144,0.014405,0.027344,0.996719
163,-11.718929,-2.136263,0.122072,0.004028,0.031250,0.977432
164,-12.329290,-3.173877,0.244144,-0.006958,0.047486,0.931533
165,-15.564202,-5.676356,0.732433,0.001465,0.054932,0.933364
166,-20.325017,-8.545052,0.549325,-0.024170,0.034546,0.933852
167,-22.339208,-10.620279,0.366217,0.012329,0.027344,0.974990
168,-25.696193,-10.986496,1.159686,-0.011475,0.011719,0.982559
169,-24.231327,-11.108568,1.464866,0.019776,0.047364,0.921645
170,-33.142596,-11.596857,1.709010,0.004395,0.009766,0.972305
171,-39.734493,-11.902037,3.906310,0.034424,-0.042847,1.016495
172,-35.461967,-8.911269,4.577707,0.041871,-0.012573,1.098772
173,-33.875029,-6.591897,5.371176,-0.005005,-0.060548,1.061051
174,-22.705425,-5.188067,6.958114,0.051148,-0.032105,1.044205
175,-21.667811,-3.540093,6.713970,0.004883,0.000977,1.020035
176,-25.085832,-4.577707,6.836042,0.022827,0.022339,0.969009
177,-24.780652,-2.990768,3.723201,0.077150,0.083619,0.898085
178,-43.884947,-3.784237,2.014191,-0.056764,0.044312,0.901015
179,-53.833829,-7.690547,1.037613,0.066285,-0.003540,1.070695
180,-49.439231,-5.310140,-3.112840,-0.028321,-0.103273,1.050553
181,-44.800488,-2.807660,-6.103609,0.061280,-0.066407,0.889296
182,-42.725261,0.305180,-3.356985,-0.005493,-0.084840,1.052018
183,-48.157473,-2.380407,-6.042573,-0.032349,-0.056153,1.021988
184,-59.571221,-7.690547,-15.625238,0.004273,-0.160525,0.977676
185,-49.256123,-7.934691,-7.629511,0.065675,-0.108278,1.042863
186,-56.458381,1.281758,-14.709697,0.053468,-0.130739,1.022477
187,-55.298695,2.197299,-6.652934,0.071534,-0.153201,1.057145
188,-53.772793,0.366217,-2.197299,0.078126,-0.104250,1.014420
189,-10.559243,27.527276,-11.291676,0.350958,-0.573129,0.335821
190,-40.650034,8.789197,-1.709010,0.049683,0.130617,1.048844
191,-83.619440,14.221408,-6.347753,-0.001465,0.031861,0.952163
192,-116.884108,14.343481,-1.098650,0.051148,-0.013550,0.829603
193,-121.583886,14.770733,14.648661,0.008179,0.021485,0.983780
194,-143.312734,10.437171,3.601129,-0.163210,-0.018067,0.835462
195,-143.434806,-16.052491,-2.990768,-0.084474,0.538216,1.302632
196,-264.286259,-6.286717,-6.775006,0.195926,0.235966,1.363790
197,-389.654383,-9.033341,5.249104,-0.184451,-0.052491,0.914199
198,-448.065919,-40.527962,23.193713,-0.092042,0.095949,1.807767
199,-492.988479,-52.918288,3.356985,0.160525,-0.172610,1.026627
200,-576.302739,-46.265354,26.733806,-0.041749,-0.084840,1.043839
201,-629.159991,-56.885634,10.254063,-0.041993,-0.266850,1.003067
202,-714.000153,-59.327077,47.119860,0.505867,-2.000031,1.999969
203,-631.418326,8.789197,98.817426,-0.853162,-0.670298,1.999969
204,-44.556344,0.793469,-49.622339,-0.334600,-0.365240,1.999969
205,169.314107,32.410163,-54.932479,-0.575814,0.574594,1.999969
206,2.197299,26.489662,-40.466926,-0.378912,0.597421,1.987335
207,-61.158160,-16.540780,12.878614,-0.235111,0.163943,1.430564
208,66.102083,-13.916228,2.380407,-0.129152,0.203616,1.069718
209,99.305715,-19.897765,-1.770047,-0.045411,0.481697,0.459358
210,38.513771,-32.043946,1.342794,0.005493,0.344854,0.657115
211,59.082933,-21.423667,-6.408789,0.033814,0.273564,0.825330
212,88.014038,-5.554284,-16.601816,0.015869,0.396124,0.748058
213,77.393759,-1.892119,-19.836728,-0.039063,0.343755,0.817517
214,96.803235,-0.915541,-22.339208,-0.105837,0.294926,0.945815
215,118.654154,-3.112840,-22.095064,-0.159548,0.330205,1.051408
216,131.105516,-6.530861,-18.066682,-0.195804,0.321660,1.296895
217,156.801709,-2.868696,-15.564202,-0.195315,0.271855,1.477928
218,184.817273,6.713970,-12.817578,-0.192142,0.212894,1.585473
219,211.917296,17.334249,-9.948882,-0.169070,0.092653,1.471458
220,236.758984,25.696193,-6.286717,-0.172244,-0.004761,1.236469
221,248.416876,26.733806,-1.220722,-0.136110,-0.066285,1.020645
222,253.116655,23.071641,4.211490,-0.096803,-0.109133,0.907729
223,253.665980,18.554971,7.812619,-0.017578,-0.091432,0.953017
224,252.323186,16.845960,8.056764,0.072389,-0.071290,1.124773
225,255.497063,20.325017,4.211490,0.129763,-0.050782,1.373312
226,263.981079,26.733806,-2.136263,0.174441,-0.047852,1.613916
227,275.883116,34.424353,-10.070954,0.183474,-0.106691,1.704494
228,289.738308,40.222782,-18.127718,0.204959,-0.194949,1.598169
229,294.865339,45.960174,-27.466239,0.250736,-0.341802,1.275044
230,281.681544,56.946670,-35.767147,0.286625,-0.437751,1.103410
231,262.088960,66.041047,-42.603189,0.291875,-0.390143,1.363668
232,244.937819,65.491722,-48.401617,0.310063,-0.367071,1.721218
233,248.050660,62.134737,-56.214237,0.304082,-0.392340,1.850858
234,252.445258,65.369650,-64.271000,0.220706,-0.506722,1.752224
235,242.008087,71.656367,-65.247578,0.088380,-0.593271,1.663722
236,228.824292,68.055238,-60.975052,-0.063722,-0.640146,1.983795
237,223.819333,58.350500,-51.392386,-0.190677,-0.695811,1.999969
238,241.641871,50.354772,-38.757916,-0.225589,-0.831800,1.999969
239,282.719158,51.392386,-28.442817,-0.153323,-0.967422,1.999969
240,293.949798,58.960861,-20.874342,-0.049317,-0.998917,1.588647
241,265.690089,60.730907,-13.977264,0.030274,-1.060197,1.251484
242,242.130159,62.500954,-10.620279,0.081422,-1.106462,1.237079
243,220.279240,65.430686,-8.178836,0.083864,-1.161273,1.322408
244,199.282826,66.712444,-5.004959,0.139528,-1.333150,1.328023
245,184.512093,66.468299,-3.051804,0.381353,-1.569116,1.128557
246,157.961395,67.689021,-12.634470,0.659434,-1.920806,0.882338
247,123.231861,84.168765,-30.945296,0.789319,-2.000031,0.552132
248,83.680476,107.911803,-53.223468,0.663584,-2.000031,-0.002564
249,58.899825,102.418555,-54.871443,0.326909,-2.000031,-0.442878
250,4.577707,39.795529,-29.358358,0.088502,-2.000031,-0.485847
251,-40.466926,-48.950942,3.479057,-0.035279,-1.639185,0.274540
252,-55.725948,-101.747158,31.799802,-0.105715,-1.599512,-0.930068
253,-143.434806,-174.746319,51.392386,0.384527,-0.980728,-0.189456
254,-174.868391,-146.913863,37.842374,0.269535,-0.457038,1.471214
255,-100.587472,-35.889220,19.714656,-0.307622,0.540780,1.767361
256,-110.902571,-36.560616,36.011292,-0.355962,0.988174,1.107439
257,-208.010987,-96.131838,54.139010,0.332403,0.369268,0.226566
258,-241.702907,-78.370336,48.645762,0.396368,0.031006,0.405402
259,-239.871824,-44.373236,38.696880,0.489143,-0.043091,1.345602
260,-272.159915,-37.659266,41.504540,0.807996,-0.041138,1.999969
261,-204.104677,-16.968032,17.090105,0.658824,-0.247440,1.999969
262,-117.189288,11.352712,-8.056764,-0.068971,-0.156374,1.882353
263,-128.480964,-7.934691,9.948882,-1.188006,-0.095949,1.999969
264,-112.367437,-54.810407,39.734493,-0.829847,-0.563607,1.477806
265,-39.002060,-88.807507,32.715343,0.690806,0.255741,1.999969
266,-43.335622,-59.632258,19.592584,1.243061,0.214115,1.802884
267,-22.156100,-0.061036,-3.051804,-0.130983,0.050416,1.187030
268,-31.738766,-19.104295,7.141222,-0.509407,-0.071901,1.089616
269,-14.770733,-37.598230,8.178836,0.282231,0.112062,1.220844
270,-13.061723,-19.897765,0.000000,0.284794,0.089113,1.193744
271,-15.625238,-8.606088,2.563516,-0.161013,-0.009400,1.130999
272,0.732433,-15.259022,1.586938,0.005005,0.074464,1.076310
273,1.586938,-11.718929,0.549325,0.103883,0.113893,1.033341
274,-2.319371,-5.676356,1.464866,-0.019776,0.061036,1.046036
275,2.136263,-4.943923,2.197299,0.005982,0.073976,1.038956
276,3.540093,-1.281758,2.075227,0.063233,0.110719,0.989151
277,-0.610361,3.295949,3.601129,0.018189,0.094484,0.995621
278,-1.403830,4.516670,4.333562,0.000610,0.096925,0.982437
279,-2.441444,4.394598,4.333562,0.011475,0.087282,1.000748
280,-1.892119,4.638743,4.089418,0.000122,0.098024,0.976455
281,-3.173877,3.601129,3.784237,-0.047730,0.123049,0.912367
282,-8.850233,0.976577,2.990768,-0.040162,0.101808,0.919203
283,-14.709697,-2.868696,2.990768,-0.040284,0.085939,0.947890
284,-12.024109,-3.784237,1.464866,-0.036500,0.092409,0.952529
285,-13.244831,-4.943923,1.220722,-0.010010,0.103517,0.976577
286,-17.151141,-4.760815,1.709010,0.001587,0.075319,1.010880
287,-14.770733,-1.770047,0.671397,0.002930,0.107424,1.076432
288,-13.305867,-1.403830,1.647974,0.021118,0.063233,0.989395
289,-16.052491,-0.732433,2.014191,0.000244,0.043214,1.025528
290,-10.925460,0.915541,1.647974,-0.005249,0.064576,1.013199
291,-10.681315,1.709010,1.037613,-0.030152,0.136599,1.028458
292,-13.183795,-0.305180,1.709010,-0.028077,0.121218,0.942763
293,-14.831769,-0.915541,0.671397,-0.018067,0.058717,0.960098
294,-14.282444,-2.075227,0.427253,-0.029664,0.058961,0.990738
295,-16.052491,-3.723201,0.915541,-0.021485,0.047486,1.012467
296,-13.611048,-3.234913,0.427253,0.021973,0.032837,1.027970
297,-10.009918,-4.028382,0.976577,-0.021241,0.031373,0.994766
298,-12.817578,-6.286717,1.586938,-0.031495,0.058717,0.985122
299,-12.329290,-7.629511,1.342794,-0.031006,0.015137,1.016495
300,-10.193027,-8.361944,1.342794,-0.000610,0.061524,1.009049
301,-8.850233,-8.728161,1.159686,-0.003052,0.080079,0.972549
302,-12.573434,-9.765774,1.159686,-0.021973,0.041749,0.910658
303,-18.005646,-10.742351,1.342794,0.008545,0.063600,0.958267
304,-21.972992,-11.291676,2.258335,0.007324,0.078004,0.948257
305,-25.391012,-11.535821,1.464866,-0.011109,0.046876,0.965347
306,-26.306554,-12.024109,1.647974,0.002075,0.041749,0.991592
307,-26.550698,-11.596857,1.403830,0.020264,-0.001709,0.966934
308,-27.222095,-11.413748,1.770047,0.016358,0.015747,1.025040
309,-25.391012,-11.841001,1.770047,-0.006714,0.040162,0.938613
310,-30.701152,-13.061723,2.441444,0.027832,0.021118,0.968276
311,-36.255436,-12.756542,3.356985,-0.002197,0.000122,0.986831
312,-36.377508,-12.695506,3.723201,0.026123,0.020874,0.974746
313,-40.039673,-11.474784,3.601129,0.011475,0.028199,0.960830
314,-44.434272,-10.437171,4.394598,0.024903,0.003296,0.986343
315,-44.190127,-8.789197,5.249104,0.040894,-0.016358,1.063127
316,-42.420081,-7.568475,5.554284,0.016846,-0.046265,1.022721
317,-37.659266,-7.202258,6.713970,0.020508,-0.035035,0.994156
318,-39.734493,-6.408789,7.507439,0.103517,0.037842,1.009293
319,-39.246204,1.709010,3.234913,-0.016602,0.087648,0.998062
320,-57.129778,-2.502480,2.502480,0.010010,0.004273,0.969009
321,-56.397345,-3.723201,-0.915541,-0.027955,-0.049805,1.028824
322,-56.702525,-2.624552,-6.775006,-0.021485,0.022950,0.988540
323,-62.806134,-4.272526,-10.131991,-0.038087,-0.087892,0.914687
324,-69.336996,-3.479057,-16.357671,-0.130251,0.109499,1.534569
325,-71.290150,-6.713970,-33.142596,-0.056031,-0.170779,0.985489
326,-79.652094,2.624552,-35.278859,0.119509,-0.267338,1.172259
327,-53.894865,-2.685588,-22.888533,0.149905,-0.327031,1.039445
328,-35.645075,0.244144,-6.591897,0.143801,-0.101930,1.077775
329,-49.988556,7.568475,-3.723201,0.076051,0.255253,1.000015
330,-105.287251,20.325017,-12.817578,0.152102,0.198367,0.926894
331,-144.289311,30.334936,-4.516670,-0.012329,0.265141,0.711192
332,-165.285725,8.545052,4.760815,-0.275151,0.552621,0.445930
333,-195.803769,-31.006332,14.404517,-0.150271,1.078264,0.830457
334,-397.833219,-43.396658,-33.752956,0.067262,0.770520,1.999786
335,-567.818723,-109.742885,-5.798428,-0.944839,-0.026856,1.306905
336,-724.681468,-192.629892,43.030442,-0.197635,-0.065553,1.285420
337,-819.958801,-207.339590,85.023270,0.172488,-0.047242,0.982681
338,-901.319905,-196.108949,87.647822,0.662974,-2.000031,1.724758
339,-1070.572976,-151.552605,237.857633,-0.320439,-0.698253,1.999969
340,-180.849928,-88.136110,-0.976577,-0.182620,-1.309224,1.999969
341,247.806516,-20.935378,-45.532921,-0.045411,0.775280,1.999969
342,123.476005,17.456321,-57.190814,-0.005371,1.220722,1.999969
343,-6.530861,-12.512398,2.380407,-0.484382,0.982193,1.893950
344,2.685588,-25.940337,8.056764,-0.306035,0.412604,1.445701
345,137.087053,14.953841,-2.258335,-0.321782,0.366461,0.894057
346,149.050126,23.559930,-1.220722,-0.246098,0.489021,0.429206
347,96.070802,19.836728,7.507439,-0.210452,0.318120,0.488289
348,114.503700,24.536507,9.277485,-0.164431,0.235599,0.685069
349,145.143816,27.283131,7.629511,-0.094850,0.342657,0.670542
350,141.237507,21.057450,8.056764,-0.033814,0.359136,0.799939
351,155.214771,16.235599,4.943923,0.013184,0.341436,0.975967
352,182.497902,16.418708,-2.258335,0.067872,0.392706,1.067277
353,196.841382,19.043259,-10.254063,0.106813,0.391485,1.190204
354,215.274281,26.001373,-19.165332,0.135866,0.302861,1.274556
355,238.956283,35.767147,-29.541466,0.122316,0.246586,1.429221
356,261.600671,43.152514,-36.682689,0.123415,0.164431,1.439475
357,284.245060,47.547112,-41.626612,0.102907,0.064942,1.403708
358,303.471427,45.960174,-45.044633,0.076783,-0.043702,1.231220
359,314.763104,39.917601,-46.143282,0.113893,-0.061891,1.133928
360,314.091707,33.142596,-47.852293,0.164309,-0.078859,1.251484
361,316.899367,31.799802,-53.345541,0.172488,-0.117311,1.404318
362,316.899367,41.992828,-61.890593,0.141726,-0.351690,1.235981
363,303.532464,69.092851,-67.627985,0.080201,-0.632456,0.810315
364,283.451591,101.136797,-63.111315,0.097414,-0.612802,0.515755
365,237.796597,92.896925,-60.914015,0.278080,-0.399542,0.733898
366,203.738460,75.806821,-63.111315,0.262211,-0.187991,1.746120
367,189.883268,74.097810,-64.759289,0.118654,-0.194949,1.999969
368,205.020218,95.521477,-58.045319,-0.059449,-0.570565,1.999969
369,276.493477,114.686809,-45.654994,-0.193484,-0.976455,1.999969
370,325.322347,125.429160,-27.893492,-0.302007,-0.988540,1.999969
371,286.503395,94.544900,1.647974,-0.360357,-0.999527,1.999969
372,299.137865,61.768521,25.207904,-0.286381,-1.299092,1.999969
373,360.051881,70.862898,33.691920,-0.125978,-1.266621,1.999969
374,324.406806,86.915389,39.551385,0.045045,-1.188373,1.715480
375,287.724117,94.300755,41.016251,0.213504,-1.259419,1.784573
376,291.203174,97.962921,34.485389,0.301518,-1.339986,1.743191
377,272.831312,96.192874,30.701152,0.335088,-1.534936,1.520287
378,244.083314,90.272374,31.433585,0.519539,-1.966094,1.263935
379,212.527657,87.098497,28.137636,1.036149,-2.000031,0.888808
380,160.769055,91.737240,-1.647974,1.663722,-2.000031,0.294926
381,106.080720,114.869917,-42.298009,1.669825,-2.000031,-0.386114
382,93.446250,126.283665,-87.769894,1.089738,-2.000031,-0.924453
383,17.883574,56.153201,-81.300069,0.480720,-2.000031,-0.902358
384,-68.482490,-48.523690,-43.640803,-0.043946,-1.942535,0.111086
385,-78.675517,-120.363165,-12.451362,-0.519173,-1.523827,0.798962
386,-182.253758,-206.424048,-8.728161,-0.154788,-1.111589,-0.300175
387,-148.622873,-183.962768,20.447089,-0.192996,-0.258305,1.915435
388,-144.777600,-52.979324,36.865797,-0.819226,0.863416,1.620752
389,-160.952163,-67.322805,35.889220,-1.150896,0.509163,0.186038
390,-282.291905,-129.457542,89.051652,-0.072999,0.166506,0.172000
391,-334.050507,-103.456168,98.573281,0.902480,-0.338018,1.213886
392,-293.644617,-72.327764,79.774166,1.844633,-0.044312,1.999969
393,-233.768215,-31.189441,32.410163,1.999969,-0.046876,1.999969
394,-158.693828,14.343481,-20.630198,1.194232,-0.033936,1.999969
395,-151.125353,36.438544,-39.368276,-0.554696,-0.080446,1.941192
396,-158.327611,25.757229,3.601129,-2.000031,-0.398444,1.999969
397,-115.175097,-78.675517,52.368963,-1.669825,-0.725597,0.857313
398,-66.407263,-143.007553,49.866484,1.299825,0.356695,1.999969
399,-63.416495,-76.050965,11.596857,1.999969,-0.004883,1.807889
400,-30.273899,10.864424,-3.418021,-0.689342,0.240726,1.131121
401,-50.904097,-46.692607,7.507439,-0.534920,-0.006470,0.839734
402,-40.039673,-55.848020,2.807660,0.811292,0.267216,1.279438
403,-61.097124,-9.460594,-4.882887,0.166995,-0.151858,1.375753
404,-36.438544,-7.995727,1.586938,-0.234867,-0.117189,1.145281
405,-14.099336,-11.718929,-3.295949,0.261845,0.102785,1.086320
406,-30.762188,1.953155,3.051804,0.046509,0.048829,1.060319
407,-24.414435,3.967346,2.746624,-0.038575,0.003052,1.110735
408,-18.799115,4.516670,2.746624,0.121462,0.025513,1.091203
409,-18.066682,11.779965,3.479057,0.012818,0.035157,1.029923
410,-18.493935,11.352712,4.577707,0.007935,0.012207,1.025040
411,-14.892805,11.902037,4.150454,0.000366,0.029297,0.995499
412,-16.296635,10.681315,5.127031,-0.021485,0.025879,0.978897
413,-16.113527,8.117800,4.272526,-0.033814,0.017700,0.995743
414,-15.442130,4.943923,3.234913,-0.056031,0.014282,0.995377
415,-13.550011,1.770047,2.258335,-0.017456,0.008179,1.004898
416,-12.878614,1.098650,2.075227,-0.006348,0.013794,1.016251
417,-10.925460,0.488289,1.342794,-0.017090,0.016968,0.983169
418,-11.169604,0.000000,1.037613,-0.011109,0.017700,0.994522
419,-11.779965,0.183108,1.342794,-0.073365,0.066163,1.131975
420,-9.033341,0.244144,1.770047,0.001587,0.048463,0.952041
421,-14.160372,-1.464866,1.220722,-0.025879,0.019409,0.956191
422,-17.395285,-2.075227,1.342794,-0.003174,0.018433,0.982559
423,-17.761501,-1.709010,1.037613,-0.039185,-0.007568,0.995254
424,-15.625238,-2.014191,0.732433,-0.008667,-0.006836,1.005509
425,-16.113527,-2.075227,0.854505,-0.024781,-0.006592,1.012100
426,-14.038300,-2.319371,1.037613,-0.012940,-0.020142,1.016495
427,-12.939651,-2.136263,1.037613,-0.073243,0.027588,1.107683
428,-9.765774,-2.197299,2.441444,0.020142,-0.012207,0.968154
429,-9.765774,-2.624552,1.464866,-0.041260,-0.016236,0.953017
430,-8.545052,-4.638743,0.793469,-0.028809,0.008667,0.976455
431,-10.803388,-6.164645,0.061036,-0.020996,-0.012329,0.986954
432,-10.986496,-7.324331,-0.244144,-0.018189,-0.019043,0.985733
433,-9.948882,-7.446403,-0.488289,-0.005982,0.006714,0.995865
434,-11.413748,-7.568475,0.671397,-0.008057,-0.016968,0.987198
435,-10.742351,-7.751583,0.671397,-0.011109,0.020752,0.997818
436,-12.756542,-8.728161,1.342794,0.007568,-0.063355,0.976699
437,-13.305867,-7.873655,1.464866,0.013062,0.001343,1.057023
438,-12.451362,-5.859464,1.098650,0.024903,-0.021851,1.024674
439,-12.634470,-3.906310,1.892119,0.036866,-0.031617,1.009659
440,-10.986496,-1.892119,2.075227,0.008911,-0.011353,0.973404
441,-16.052491,-2.258335,2.258335,0.011963,-0.011353,0.948135
442,-22.888533,-2.319371,4.028382,-0.008057,-0.001099,0.953628
443,-26.245518,-2.258335,4.577707,0.008301,0.014038,0.947036
444,-35.095750,-2.868696,5.065995,-0.011963,-0.009155,0.976211
445,-36.499580,-3.356985,5.676356,0.011841,-0.041382,0.959854
446,-37.903410,-2.380407,5.432212,-0.026734,-0.042237,0.953750
447,-33.691920,-2.685588,7.812619,0.018677,-0.008911,1.019059
448,-40.222782,0.000000,8.056764,0.041016,-0.080690,1.099992
449,-35.095750,3.967346,9.521630,-0.032105,-0.092531,0.991226
450,-25.513085,4.211490,10.070954,0.027222,-0.044190,0.969253
451,-23.376822,7.202258,12.634470,-0.087770,0.092531,1.025284
452,-45.777066,0.732433,1.586938,-0.078614,0.017456,0.985977
453,-62.317845,-6.286717,-7.873655,-0.185550,0.113893,1.281270
454,-60.975052,-7.141222,-23.559930,-0.134157,-0.044923,1.017960
455,-78.187228,-6.286717,-28.015564,0.047730,-0.228641,1.094743
456,-65.491722,-2.990768,-8.484016,0.051514,-0.300175,1.124651
457,-40.100710,-2.807660,-6.775006,0.024781,-0.173953,1.063005
458,-29.663539,-7.019150,-13.916228,0.026978,-0.160525,1.029313
459,-45.593957,-4.699779,-14.343481,0.006104,0.015991,0.998184
460,-71.412222,-2.197299,-17.090105,0.047242,0.195682,0.944594
461,-126.771954,2.502480,-20.263981,0.016602,0.182742,0.842542
462,-131.715877,3.845274,-7.812619,0.055787,0.536507,0.749279
463,-177.859159,-17.029068,-33.997101,-0.082643,0.777478,0.755993
464,-349.553674,-25.085832,-37.781338,0.166506,1.518212,1.484031
465,-620.065614,-24.292363,-44.251164,-0.390265,0.782238,1.673243
466,-782.421607,-98.451209,15.320058,-0.556527,0.057862,1.238422
467,-900.953689,-145.021744,58.411536,0.018311,-0.302373,0.821180
468,-948.134585,-173.769741,58.106355,0.287114,-1.279438,1.043961
469,-1192.706188,-181.033036,208.255131,-0.592905,-0.601205,1.999969
470,-252.262150,-129.823758,-2.014191,-0.727062,-1.795438,1.999969
471,245.609216,-68.848707,-43.640803,-0.142702,0.706310,1.999969
472,157.167926,-27.832456,-44.617380,0.002686,1.289326,1.999969
473,-6.286717,-26.428626,2.685588,-0.466194,1.060807,1.999969
474,-36.255436,-46.570535,21.911955,-0.361700,0.450202,1.517479
475,105.714504,-8.300908,6.713970,-0.273442,0.335454,1.083635
476,160.830091,2.685588,3.662165,-0.252934,0.557382,0.535531
477,107.240406,-7.873655,10.498207,-0.151125,0.475105,0.645396
478,117.677577,-7.446403,9.521630,-0.118654,0.307134,0.924819
479,167.666133,2.014191,1.525902,-0.037842,0.375250,0.909316
480,176.455329,6.042573,-4.333562,0.010010,0.402716,0.841321
481,185.244526,8.361944,-11.291676,0.032593,0.329961,0.863539
482,210.330358,12.512398,-19.592584,0.024048,0.326787,0.897230
483,221.805142,12.207218,-25.696193,0.008423,0.315190,1.020768
484,235.538262,13.183795,-31.006332,0.013428,0.259281,1.239521
485,261.722744,22.217136,-37.232013,0.002075,0.162722,1.326802
486,285.038529,33.691920,-41.992828,-0.020264,0.079835,1.348165
487,305.302510,43.457694,-43.945983,-0.043702,-0.011475,1.209979
488,318.547341,47.119860,-43.579767,0.004273,-0.087526,1.101823
489,325.505455,41.992828,-41.748684,0.048707,-0.083986,1.059586
490,329.777981,26.306554,-43.213550,0.060426,-0.122560,1.126970
491,326.970321,17.334249,-46.936751,0.034546,-0.290410,0.957046
492,314.152743,27.954528,-52.674144,0.036744,-0.481453,0.741588
493,283.207446,60.730907,-53.894865,0.045777,-0.553841,0.891615
494,250.186923,86.305028,-53.894865,0.145510,-0.460334,1.275654
495,239.200427,88.868544,-57.495995,0.163210,-0.375982,1.731106
496,242.862593,83.680476,-57.801175,0.059937,-0.458869,1.969390
497,243.350881,84.718090,-52.124819,-0.034668,-0.524788,1.999969
498,240.421149,81.544213,-42.847333,-0.111330,-0.638071,1.999969
499,238.101778,83.314260,-32.349126,-0.109987,-0.783825,1.999969
500,239.566644,86.121920,-21.911955,-0.120974,-0.824475,1.999969
501,253.360800,85.267414,-12.024109,-0.110109,-0.925551,1.999969
502,286.198215,79.346914,-0.854505,-0.118776,-1.044816,1.999969
503,320.500496,75.501640,9.277485,-0.105104,-1.066056,1.999969
504,311.650263,71.290150,18.432898,0.015259,-1.047135,1.737697
505,287.907225,72.632944,22.034028,0.205081,-1.048722,1.686793
506,279.911498,78.004120,16.906996,0.237675,-1.070695,1.707790
507,265.079728,82.032502,10.620279,0.245731,-1.186542,1.623316
508,249.088273,90.333410,6.042573,0.229618,-1.392966,1.425437
509,227.359426,98.939498,2.990768,0.306279,-1.679347,1.130388
510,190.310521,112.245365,-0.976577,0.565316,-2.000031,0.919448
511,140.566110,132.448310,-11.230640,0.911635,-2.000031,0.759777
512,95.704585,161.562524,-31.616693,0.911635,-2.000031,0.447272
513,83.436332,163.637751,-37.170977,0.644297,-2.000031,-0.335088
514,48.462654,101.197833,-16.479744,0.187625,-2.000031,-0.986709
515,-85.511559,-46.448463,19.104295,0.228031,-2.000031,-2.000031
516,-259.220264,-205.325399,64.576181,0.795178,-2.000031,-1.167254
517,-301.457237,-223.270008,57.984283,1.030655,-1.511254,1.004898
518,-175.661860,-145.448997,24.170291,0.105592,0.116457,1.999969
519,-142.641337,-81.666285,29.358358,-0.506966,1.097795,1.999969
520,-225.406271,-92.225528,54.688334,-0.351934,0.387213,0.437140
521,-298.161288,-107.850767,65.247578,0.209720,-0.523568,0.274418
522,-307.011521,-91.981384,73.060197,0.937270,-0.191775,1.999969
523,-252.506294,-54.993515,54.200046,1.474388,-0.202884,1.999969
524,-126.649882,-0.488289,12.390326,1.329854,-0.431891,1.412009
525,-119.325551,25.757229,-8.545052,-0.159792,0.159792,0.906508
526,-217.166400,-15.564202,34.851606,-1.576684,-0.523934,1.999969
527,-140.016785,-79.041733,40.283818,-0.564218,-0.449836,1.999969
528,-39.490349,-101.747158,7.141222,1.467796,0.013550,1.999969
529,-24.780652,-21.545739,-6.530861,0.677989,0.063722,1.399680
530,-55.237659,-10.925460,4.882887,-0.824598,-0.116457,1.052750
531,-29.541466,-52.552071,3.356985,0.116457,0.148806,1.328267
532,-20.996414,-24.292363,-10.925460,0.597177,0.017945,1.080949
533,-36.743725,0.732433,-0.488289,-0.245853,0.046754,1.078019
534,-23.682002,-18.249790,0.122072,-0.100710,0.035401,1.037125
535,-20.386053,-17.639429,-6.530861,0.160159,-0.017700,1.100969
536,-22.278172,-8.422980,0.976577,0.021241,-0.070314,1.071672
537,-9.155413,-5.432212,0.854505,0.113161,0.057984,1.087297
538,-12.329290,1.586938,2.685588,0.093507,0.072023,1.070573
539,-13.488975,8.300908,4.882887,0.042603,0.058106,0.998062
540,-13.855192,11.902037,3.784237,0.037232,0.061158,0.944106
541,-17.334249,11.535821,5.798428,-0.005005,0.052979,0.952407
542,-17.090105,8.545052,5.004959,-0.016358,-0.012207,0.983780
543,-20.141909,5.554284,5.249104,0.009644,0.038331,1.006485
544,-19.592584,4.516670,2.807660,-0.038087,0.037476,0.962783
545,-21.118486,0.244144,2.441444,-0.018677,0.041749,1.009049
546,-21.545739,0.305180,2.502480,0.007446,0.022583,0.994034
547,-19.714656,0.610361,2.075227,-0.021607,0.025147,0.991470
548,-19.775692,-0.610361,1.770047,-0.034180,0.025513,0.982803
549,-19.287404,-2.563516,2.197299,-0.013794,0.014771,0.985611
550,-19.958801,-3.784237,2.075227,-0.013916,0.018433,0.973770
551,-21.240558,-6.530861,1.647974,-0.047608,0.030274,0.927504
552,-25.268940,-10.376135,1.403830,-0.019654,0.037598,0.957412
553,-31.250477,-12.634470,1.586938,-0.015015,0.012207,0.982315
554,-28.320745,-13.061723,0.000000,0.009277,0.020630,1.041032
555,-28.259709,-11.108568,-0.488289,0.031617,0.005982,1.008804
556,-27.283131,-9.277485,-0.976577,0.023682,-0.014527,1.014298
557,-26.794842,-7.568475,-0.610361,0.023072,-0.024292,1.034440
558,-25.391012,-6.347753,-0.305180,-0.004028,-0.030152,1.008927
559,-23.804074,-5.798428,-0.366217,0.013672,-0.039551,1.008438
560,-22.949569,-5.493248,0.366217,0.005737,-0.049928,1.002213
561,-21.728847,-6.042573,0.000000,-0.027344,-0.007935,0.963638
562,-25.268940,-7.934691,-0.427253,-0.005615,-0.020264,0.961807
563,-25.757229,-9.460594,-0.488289,0.015625,-0.036988,0.981704
564,-26.916915,-9.826810,-0.366217,0.021729,-0.026123,0.985855
565,-30.579080,-10.437171,0.061036,0.025635,-0.055909,0.992813
566,-28.198672,-10.376135,0.000000,0.030518,-0.069459,1.010025
567,-26.916915,-8.911269,0.427253,0.059937,-0.066407,1.051530
568,-24.719615,-4.699779,0.366217,0.052735,-0.060182,1.064469
569,-24.719615,-2.075227,0.549325,0.030640,-0.043580,0.968399
570,-29.663539,1.281758,4.028382,0.079469,-0.032715,1.020035
571,-35.095750,3.295949,5.554284,-0.008545,-0.057740,0.945327
572,-36.865797,2.380407,5.798428,0.017578,-0.005371,0.920912
573,-49.317159,1.709010,6.103609,-0.003662,-0.020508,0.948989
574,-57.190814,1.342794,5.249104,0.017090,-0.073121,1.002579
575,-59.082933,1.831083,4.699779,0.009766,-0.146120,1.042496
576,-50.232700,5.310140,5.127031,-0.023682,-0.182498,1.081071
577,-37.293050,4.333562,3.479057,-0.010742,-0.159304,1.110246
578,-19.775692,6.958114,-1.586938,-0.012451,-0.190921,0.988174
579,-12.939651,3.967346,-4.638743,-0.096315,-0.012940,1.078264
580,-33.203632,0.000000,-21.179522,-0.020752,-0.037598,0.919692
581,-41.565576,3.845274,-19.653620,0.112062,-0.255131,1.067765
582,-12.512398,6.286717,6.103609,0.082521,-0.289677,1.046403
583,-4.943923,3.723201,-0.488289,-0.042603,-0.049805,1.045426
584,-9.643702,-4.272526,-10.864424,0.030762,-0.099977,1.200458
585,-30.701152,3.356985,-16.113527,0.010742,0.138918,0.929091
586,-57.801175,7.751583,-23.071641,0.153445,0.200809,1.001480
587,-111.512932,18.799115,-30.212863,0.021973,0.480964,0.761975
588,-179.995422,24.963760,-36.987869,-0.000366,0.605600,0.737072
589,-250.675212,-9.033341,-22.034028,-0.470832,0.706432,1.171771
590,-430.975814,-27.466239,-37.109941,0.039307,1.306538,1.932769
591,-673.105974,-43.457694,-33.203632,-0.461799,0.615732,1.995392
592,-863.782712,-115.358206,42.969406,-0.335088,0.016114,1.509300
593,-940.566110,-138.246738,77.943084,-0.009155,-0.228641,0.786511
594,-1100.724804,-156.862745,127.321279,1.052018,-2.000031,1.999969
595,-662.363623,-53.711757,128.297856,-1.353780,-1.695583,1.999969
596,132.448310,-28.320745,-69.275959,-0.239261,0.507942,1.999969
597,223.208972,27.588312,-65.247578,-0.690440,1.505760,1.999969
598,-1.647974,34.241245,-54.688334,-0.633555,0.840589,1.999969
599,-140.077821,-30.518044,18.310826,-0.592660,0.596811,1.572412
600,-55.542840,-32.654307,28.747997,-0.409430,0.326787,1.459251
601,105.958648,-10.559243,18.432898,-0.339849,0.481086,1.058976
602,97.108415,-17.517357,22.888533,-0.156863,0.635996,0.745251
603,64.393072,-22.644388,28.381781,-0.092164,0.463752,0.947890
604,116.517891,-18.188754,22.217136,-0.006104,0.450202,1.177630
605,163.149462,-19.958801,12.634470,0.078126,0.561898,1.164935
606,179.873350,-26.855879,4.333562,0.090700,0.567269,1.168841
607,201.541161,-20.263981,-10.742351,0.122927,0.369146,0.986221
608,226.016632,-5.981537,-26.306554,0.140383,0.286748,0.804089
609,228.824292,8.606088,-36.987869,0.062501,0.209598,0.716442
610,226.688029,16.540780,-41.748684,-0.029664,0.114015,0.793713
611,236.942092,17.456321,-43.274586,-0.080201,0.073121,0.920668
612,249.271382,15.869383,-42.542153,-0.106569,0.067628,1.098405
613,260.013733,15.747311,-40.772107,-0.102541,0.034791,1.282856
614,276.554513,20.691234,-38.879988,-0.064454,0.017700,1.465354
615,296.696422,25.940337,-37.903410,-0.005249,0.002808,1.526024
616,312.565805,27.893492,-38.391699,0.090089,-0.036133,1.590112
617,325.017166,32.166018,-42.786297,0.195682,-0.107912,1.583398
618,336.552987,40.894179,-52.002747,0.248539,-0.213870,1.407370
619,334.966049,57.190814,-63.477531,0.271244,-0.390387,1.118547
620,316.838331,84.901198,-70.984970,0.294438,-0.571908,0.760266
621,291.630427,105.592432,-72.816052,0.252811,-0.556405,0.712535
622,254.276341,101.930266,-70.069429,0.199344,-0.496101,0.821302
623,229.922942,83.802548,-64.332036,0.127443,-0.359258,1.348287
624,206.363012,65.125505,-55.725948,0.135500,-0.206302,1.999969
625,206.790265,61.707485,-50.843061,0.130861,-0.420661,1.999969
626,269.169146,82.032502,-51.636530,0.139406,-0.658946,1.999969
627,305.851835,103.822385,-49.317159,0.054200,-0.753674,1.999969
628,298.893721,95.948730,-36.865797,-0.060914,-0.940444,1.999969
629,321.171893,81.910430,-25.085832,0.034668,-1.125750,1.999969
630,343.511101,85.755703,-21.423667,0.220096,-1.187274,1.999969
631,318.547341,89.906157,-18.738079,0.301640,-1.221332,1.730495
632,290.348669,84.229801,-17.883574,0.305547,-1.342916,1.773953
633,278.629740,73.365377,-18.432898,0.283696,-1.508690,1.758328
634,262.394141,66.407263,-18.432898,0.270634,-1.836088,1.557031
635,230.228122,67.750057,-17.090105,0.361089,-2.000031,1.203143
636,197.268635,84.229801,-13.794156,0.731945,-2.000031,0.760632
637,137.270161,108.888380,-39.368276,1.049332,-2.000031,0.184817
638,112.001221,141.847868,-56.641489,0.865126,-2.000031,-0.511482
639,58.289464,119.935912,-44.251164,0.265873,-2.000031,-2.000031
640,-113.344015,-71.229114,20.630198,0.390509,-2.000031,-2.000031
641,-269.657435,-238.834211,56.092164,1.092546,-2.000031,-0.493904
642,-290.043488,-235.782406,37.048905,1.056779,-1.007950,1.986847
643,-137.392233,-86.915389,7.934691,-0.026856,0.225345,1.999969
644,-118.837263,-35.339895,8.850233,-0.675914,0.952529,1.335225
645,-272.587167,-82.764935,42.053864,-0.378424,0.383917,0.199100
646,-323.552300,-76.600290,59.876402,-0.009155,-0.778943,0.948257
647,-285.648890,-69.398032,67.505913,0.816175,-0.334356,1.999969
648,-239.078355,-28.015564,48.157473,1.251118,-0.219608,1.999969
649,-152.895399,6.652934,13.061723,0.311650,-0.257816,1.500145
650,-174.685283,-30.212863,25.940337,-1.226825,-0.419196,1.999969
651,-121.583886,-88.380255,46.753643,-0.602670,-0.304326,1.999969
652,-75.684749,-119.630732,22.095064,1.785306,0.268925,1.999969
653,-42.053864,-22.827497,2.441444,0.878431,0.096681,1.458274
654,-67.627985,4.516670,0.549325,-0.866712,-0.048219,1.085344
655,-66.529335,-39.551385,9.399557,0.135134,-0.019532,1.202533
656,-38.513771,-19.104295,-9.033341,0.524788,0.011109,1.652247
657,-38.208591,4.882887,0.061036,-0.237919,-0.010986,1.007706
658,-28.320745,-9.704738,0.854505,-0.040650,0.007202,1.092790
659,-21.484703,-5.737392,0.183108,0.109865,0.022583,1.152361
660,-17.944610,-1.525902,1.831083,-0.119142,0.017212,1.022721
661,-13.611048,-5.493248,1.342794,0.037110,0.022950,1.075090
662,-13.183795,-0.366217,2.197299,0.022095,0.062501,1.020279
663,-16.479744,1.159686,2.685588,-0.027344,0.027710,0.958389
664,-14.953841,1.281758,2.319371,0.023560,0.059205,1.001724
665,-18.249790,2.136263,3.356985,0.020020,0.139040,0.984634
666,-19.531548,4.028382,4.699779,0.012329,0.044923,0.994156
667,-19.409476,5.859464,5.249104,-0.006348,0.024414,1.026871
668,-17.456321,6.164645,5.371176,-0.021118,0.011719,1.002457
669,-16.784924,5.859464,5.371176,-0.024414,0.013916,1.001724
670,-15.747311,4.943923,5.371176,-0.043458,0.013306,1.011490
671,-14.038300,3.479057,4.577707,-0.038819,0.011231,1.003189
672,-13.122759,1.770047,3.662165,-0.044556,0.009522,0.991714
673,-13.366903,-0.488289,2.807660,-0.038453,0.015137,0.971817
674,-10.620279,-2.136263,0.671397,-0.074098,0.027100,0.999039
675,-10.986496,-2.929732,0.000000,-0.039307,0.019165,0.983658
676,-14.587625,-4.516670,0.671397,-0.036255,0.006348,1.030167
677,-12.207218,-4.699779,0.122072,-0.028687,-0.017334,1.003067
678,-10.925460,-4.577707,0.427253,-0.017090,-0.017212,1.021988
679,-8.178836,-3.662165,0.854505,-0.017578,-0.029419,1.040055
680,-5.249104,-3.112840,1.525902,-0.028687,-0.034546,0.996109
681,-2.502480,-3.540093,1.403830,-0.033570,0.015869,0.996109
682,-4.272526,-4.943923,0.915541,-0.045655,0.003296,0.948867
683,-8.911269,-7.202258,1.403830,-0.041016,0.016358,0.976333
684,-10.864424,-8.728161,1.098650,-0.035035,0.032837,0.985733
685,-12.817578,-9.094377,-0.488289,-0.036133,-0.120241,0.881605
686,-15.808347,-10.864424,0.244144,0.001465,0.006958,0.954726
687,-22.705425,-11.718929,2.136263,0.006836,0.024781,1.018570
688,-24.536507,-9.948882,2.319371,-0.006592,0.003540,0.974136
689,-26.428626,-8.972305,2.746624,-0.004517,-0.009277,1.021134
690,-25.391012,-7.812619,2.685588,0.001587,-0.035767,1.023575
691,-23.254749,-6.958114,2.319371,-0.007202,-0.015747,1.027970
692,-22.400244,-6.897078,1.892119,-0.021607,-0.034913,0.990249
693,-21.972992,-8.056764,1.098650,-0.016236,-0.014405,0.992935
694,-23.804074,-9.094377,0.000000,-0.008667,-0.010986,0.957534
695,-27.832456,-9.887846,-0.366217,0.005249,-0.020508,0.982315
696,-30.273899,-9.704738,-0.427253,0.016114,-0.012085,0.991104
697,-32.593271,-7.690547,-0.915541,0.027466,-0.008301,0.969131
698,-41.870756,-6.164645,0.793469,-0.014527,-0.033936,0.976211
699,-41.565576,-6.713970,3.051804,0.033570,-0.053712,0.995010
700,-42.725261,-1.403830,5.920500,0.072023,-0.050416,1.071550
701,-44.800488,3.723201,7.263294,0.013794,-0.104494,1.028702
702,-44.678416,6.652934,11.291676,0.000122,-0.087282,1.052628
703,-44.922560,7.568475,12.878614,-0.026368,-0.067994,1.014908
704,-41.077287,7.873655,11.718929,-0.022095,-0.057496,0.903334
705,-38.269627,6.408789,11.718929,-0.037964,-0.098512,0.878309
706,-40.222782,2.075227,8.606088,-0.184939,0.055055,1.282979
707,-42.420081,-2.319371,-12.451362,-0.149783,-0.161624,1.028580
708,-53.589685,-5.249104,-33.691920,0.013062,-0.182132,0.974136
709,-52.185855,-4.516670,-18.799115,0.100465,-0.322026,1.029191
710,-36.011292,-0.183108,-3.418021,0.057374,-0.192386,1.084611
711,-24.658579,-1.892119,-10.193027,-0.015625,-0.162844,0.998428
712,-25.329976,-7.080186,-14.465553,0.009277,-0.021363,1.006851
713,-52.307927,-3.051804,-21.484703,0.024659,0.163088,0.919203
714,-92.225528,-1.464866,-24.475471,0.089845,0.171878,1.005509
715,-128.480964,6.897078,-30.640116,-0.023316,0.473640,0.578866
716,-165.835050,-0.610361,-48.340581,0.162356,0.483284,0.437629
717,-245.304036,-34.241245,-57.862211,0.073365,0.686900,1.153094
718,-504.158083,-12.695506,-77.393759,0.451179,1.256611,1.606592
719,-706.492714,-33.630884,-53.101396,-0.661753,0.442512,1.366232
720,-863.355459,-108.278019,-10.925460,-0.242557,-0.045289,1.306538
721,-928.053712,-152.651255,19.714656,-0.182742,-0.307256,0.701305
722,-1128.618296,-195.864805,78.431373,0.019409,-2.000031,1.999969
723,-618.112459,-88.929580,108.339055,-1.897978,-1.754421,1.999969
724,145.143816,-63.904784,-58.228428,-0.983291,0.441901,1.999969
725,243.289845,-27.038987,-18.921187,-1.160052,1.260761,1.999969
726,35.523003,-22.156100,9.277485,-0.845228,0.792493,1.999969
727,-59.021897,-69.764248,76.966506,-0.740124,0.596933,1.639796
728,38.452735,-60.242618,76.478218,-0.309087,0.232547,1.196429
729,155.214771,-33.447776,64.637217,-0.220218,0.489265,0.637949
730,113.038834,-37.903410,64.454108,-0.038453,0.544930,0.510506
731,93.018997,-36.316472,61.890593,0.019287,0.376959,0.693126
732,138.551919,-24.597543,46.570535,0.060670,0.372320,0.771252
733,153.200580,-15.808347,32.715343,0.138186,0.456306,0.855482
734,155.580987,-8.911269,21.667811,0.177127,0.395636,1.059709
735,185.976959,-2.868696,7.263294,0.136355,0.356695,1.151263
736,212.344549,-0.915541,-4.943923,0.106813,0.324590,1.111955
737,226.749065,-0.915541,-13.733120,0.068360,0.242069,1.116350
738,243.778134,1.037613,-20.569162,0.025269,0.154910,1.209369
739,263.248646,8.056764,-25.452049,-0.032105,0.131228,1.347311
740,278.995956,15.197986,-28.320745,-0.072755,-0.023194,1.344747
741,301.579309,23.193713,-28.992142,-0.099611,-0.113161,1.274067
742,316.289006,26.123445,-26.428626,-0.104005,-0.181643,1.094133
743,320.134279,23.804074,-22.583352,-0.062745,-0.203983,1.027481
744,318.486305,20.263981,-20.935378,0.033326,-0.196170,1.141131
745,317.509728,20.141909,-24.292363,0.091066,-0.200565,1.289693
746,315.861753,30.090791,-34.241245,0.195315,-0.301152,1.376974
747,307.072557,59.327077,-48.401617,0.275517,-0.485481,1.366354
748,300.175479,98.207065,-57.984283,0.228275,-0.529061,1.320455
749,288.517586,105.287251,-62.378882,0.141848,-0.521981,1.307027
750,276.249332,89.478904,-63.111315,0.085328,-0.508064,1.391501
751,265.812161,78.858625,-61.341268,-0.017090,-0.529671,1.642847
752,246.158541,80.323491,-53.467613,-0.066773,-0.507576,1.999969
753,246.402686,81.544213,-45.471885,-0.078492,-0.531746,1.999969
754,275.150683,78.797589,-38.879988,-0.061280,-0.577523,1.999969
755,308.232242,74.952316,-33.752956,0.054322,-0.670909,1.999969
756,342.534524,74.341955,-33.203632,0.232670,-0.817395,1.999969
757,343.938354,83.863584,-38.269627,0.421515,-0.869764,1.803861
758,310.429541,85.511559,-44.251164,0.385626,-0.879896,1.786770
759,283.573663,73.304341,-49.866484,0.309453,-1.001236,1.999969
760,281.498436,63.294423,-56.275273,0.255863,-1.172259,1.999969
761,270.939193,65.064469,-62.134737,0.161257,-1.473777,1.700587
762,242.923629,73.487449,-65.308614,0.063600,-1.962432,1.251118
763,192.202640,90.943771,-64.393072,0.304692,-2.000031,0.808850
764,134.218357,119.691768,-60.425727,0.724132,-2.000031,0.572641
765,82.948043,156.313420,-74.158846,0.834852,-2.000031,0.142702
766,78.248264,160.524910,-69.947356,0.605722,-2.000031,-0.685557
767,21.606775,70.435645,-33.569848,0.372564,-2.000031,-1.157366
768,-65.491722,-73.670558,18.371862,0.208621,-2.000031,-0.154177
769,-94.239719,-154.787518,53.650721,0.003906,-2.000031,-1.536034
770,-208.865492,-235.965515,53.223468,0.667002,-0.938857,0.766247
771,-137.148089,-181.033036,43.701839,0.086427,-0.284428,1.999969
772,-78.126192,-41.260395,39.002060,-0.360967,1.380758,1.673854
773,-64.026856,-76.112001,31.006332,-0.512215,0.490364,-0.841077
774,-321.232929,-162.050813,62.806134,0.328008,0.046509,-0.971328
775,-398.443580,-82.215610,154.787518,1.185199,-0.689464,0.646006
776,-351.384756,-79.468986,70.191501,1.599878,-0.447761,1.999969
777,-214.908064,-49.683375,31.006332,1.307149,-0.327520,1.999969
778,-132.875563,-23.193713,-1.220722,0.061769,-0.283696,1.803616
779,-146.303502,-37.109941,24.536507,-1.333516,-0.294072,1.999969
780,-105.531395,-90.333410,52.185855,-0.796033,-0.331426,1.197772
781,-80.018311,-115.175097,43.579767,1.312276,0.351568,1.997589
782,-73.731594,-59.143969,16.906996,1.480980,0.090455,1.999969
783,-50.843061,0.061036,8.361944,-0.608896,-0.035889,1.270649
784,-41.565576,-43.152514,12.634470,-0.381598,0.054444,1.236347
785,-28.320745,-48.645762,1.220722,0.729381,0.123415,1.416770
786,-26.489662,-8.789197,-2.563516,0.062867,0.099855,1.220111
787,-25.940337,-9.948882,5.920500,-0.235966,0.007080,1.043107
788,-14.587625,-18.799115,0.671397,0.113283,0.085695,0.967300
789,-21.728847,-9.521630,0.793469,0.124636,0.026368,0.981704
790,-20.202945,-3.234913,3.479057,0.010132,0.139162,0.995499
791,-27.100023,-2.502480,5.432212,0.064942,0.093263,1.032731
792,-25.513085,2.868696,4.394598,0.042237,0.047974,1.050309
793,-26.855879,5.310140,7.507439,0.039307,0.090211,0.977066
794,-28.259709,7.202258,7.812619,0.042847,0.063722,1.007462
795,-29.968719,7.751583,8.606088,0.002319,0.054932,1.014908
796,-27.710384,6.103609,7.385367,-0.050538,0.021973,0.962905
797,-27.466239,1.953155,7.263294,-0.015015,0.039796,0.988907
798,-27.649348,-1.220722,5.798428,-0.035279,0.042481,0.954360
799,-27.466239,-5.310140,4.333562,-0.047608,0.106691,1.033463
800,-29.785611,-4.577707,3.906310,0.010620,0.034546,1.006851
801,-29.480430,-4.211490,3.234913,-0.019776,0.028809,1.052262
802,-25.513085,-4.272526,2.685588,0.008179,0.037110,0.988174
803,-28.931106,-4.333562,2.441444,0.008423,0.029786,0.969375
804,-32.959487,-5.004959,3.234913,0.008057,0.001099,1.021134
805,-31.067369,-4.699779,3.112840,-0.003784,-0.011841,1.011856
806,-28.625925,-5.249104,2.502480,-0.007324,-0.001221,0.981338
807,-30.640116,-6.225681,2.685588,-0.004028,0.001099,0.979873
808,-30.395972,-6.530861,1.892119,-0.003662,-0.008911,0.988540
809,-32.349126,-7.019150,1.831083,-0.006470,-0.014527,0.979751
810,-34.607462,-7.934691,1.831083,-0.003174,-0.011231,1.005020
811,-31.982910,-8.300908,0.000000,0.020874,-0.019165,1.008194
812,-32.410163,-7.934691,-1.342794,0.009522,-0.052979,1.015030
813,-29.541466,-7.568475,-1.586938,0.003296,-0.069581,1.048234
814,-24.170291,-6.713970,-1.525902,0.031495,-0.073487,1.037491
815,-22.156100,-5.127031,-0.732433,0.020020,-0.088380,1.029557
816,-17.883574,-4.699779,0.305180,-0.001953,-0.082521,1.017716
817,-14.221408,-5.188067,0.305180,0.013550,-0.051148,1.002090
818,-14.892805,-6.103609,0.122072,-0.007324,-0.059571,0.999039
819,-13.183795,-7.568475,-0.305180,0.004639,-0.036866,0.969741
820,-17.090105,-8.422980,-0.488289,0.024048,-0.038697,0.972427
821,-18.921187,-8.239872,-1.281758,0.047730,-0.036500,1.034928
822,-20.447089,-5.676356,-2.380407,0.020386,-0.026490,0.969253
823,-22.888533,-7.019150,-2.319371,0.002075,0.009277,1.019547
824,-28.198672,-4.760815,-1.831083,0.025391,-0.014527,0.907851
825,-41.443503,-3.540093,1.709010,0.026612,-0.064820,1.039689
826,-42.175937,-2.502480,3.479057,-0.008789,-0.065064,1.019059
827,-41.809720,-0.854505,4.272526,0.049317,-0.084352,0.984024
828,-48.645762,0.183108,7.385367,0.042603,-0.121462,1.068254
829,-44.129091,4.211490,8.728161,0.027588,-0.141238,1.013077
830,-37.964446,3.967346,7.019150,0.013184,-0.131350,1.040543
831,-30.945296,4.638743,3.906310,-0.014038,-0.113405,1.018204
832,-29.663539,2.380407,-1.709010,-0.054810,-0.057618,0.989029
833,-30.212863,-2.075227,-10.315099,-0.037232,-0.129885,0.971572
834,-26.916915,-6.713970,-18.249790,-0.085573,-0.011719,1.019059
835,-57.312886,-0.061036,-28.747997,0.053834,-0.254765,1.006729
836,-40.527962,-3.967346,-10.376135,0.084596,-0.244022,1.026749
837,-21.545739,-8.117800,-4.089418,0.132326,-0.195193,1.079728
838,-10.315099,-4.760815,-5.554284,0.056397,-0.090700,0.972549
839,-31.982910,3.418021,-11.413748,0.112184,0.168948,1.025895
840,-75.989929,14.892805,-20.386053,0.120363,0.151247,0.996353
841,-111.146716,23.804074,-27.710384,0.009522,0.453620,0.837537
842,-178.042268,12.451362,-62.989242,-0.088380,0.600839,0.254154
843,-192.629892,-34.546426,-43.579767,-0.246464,0.279423,1.062760
844,-371.404593,-45.593957,-70.740826,0.066896,0.612192,1.579980
845,-502.937362,-70.862898,-88.746471,-0.746349,0.310063,1.443137
846,-660.898756,-176.943618,-67.933165,-0.443366,0.116091,1.009537
847,-836.072328,-253.116655,26.489662,-0.044800,0.042603,0.663096
848,-965.041581,-272.892348,78.370336,0.121096,-1.475731,1.559106
849,-1246.906233,-278.690776,265.568017,-1.125261,-1.576562,1.999969
850,-282.230869,-115.419242,39.246204,-0.860243,-1.883696,1.999969
851,312.809949,-29.724575,-34.363317,-0.419684,0.824109,1.999969
852,253.910124,39.368276,-33.447776,-0.133425,1.165057,1.998444
853,74.036774,31.372549,20.202945,-0.805921,0.662730,1.243183
854,-15.686275,-15.991455,61.402304,-0.550546,0.260990,0.739635
855,57.068742,0.366217,67.811093,-0.318486,0.180056,0.462654
856,121.156634,16.113527,63.172351,-0.231449,0.335088,0.225711
857,82.581827,14.892805,65.430686,-0.041505,0.389532,0.291997
858,66.224155,17.700465,64.576181,0.046509,0.320317,0.565194
859,101.625086,23.559930,52.918288,0.150271,0.392218,0.672374
860,121.889067,21.545739,41.382467,0.211185,0.512337,0.721935
861,127.321279,12.085145,31.433585,0.193729,0.484871,0.937636
862,153.505760,3.601129,20.386053,0.191043,0.485481,1.189227
863,185.671778,1.647974,7.934691,0.213016,0.477546,1.365621
864,210.330358,5.004959,-4.089418,0.194583,0.384039,1.502831
865,236.820020,13.000687,-15.197986,0.129152,0.248417,1.628565
866,269.840543,23.071641,-23.743038,0.045899,0.064820,1.531762
867,297.306783,31.494621,-27.710384,-0.043214,-0.078859,1.377707
868,309.941253,34.668498,-25.757229,-0.109621,-0.225223,1.273457
869,319.707027,32.837415,-21.118486,-0.114137,-0.303227,1.186664
870,327.763790,27.771420,-17.517357,-0.038209,-0.328374,1.127703
871,326.176852,23.987182,-16.906996,0.057252,-0.352544,1.113420
872,320.561532,25.146868,-22.705425,0.132815,-0.372930,1.080461
873,312.748913,31.555657,-32.471199,0.189456,-0.458381,0.883314
874,289.005875,43.396658,-44.251164,0.257816,-0.510140,0.843519
875,259.586481,60.486763,-56.275273,0.282475,-0.546151,0.938369
876,237.613489,72.816052,-67.200732,0.239628,-0.494392,1.177630
877,215.213245,79.102770,-74.097810,0.210330,-0.391608,1.779568
878,201.541161,78.919661,-76.661326,0.158816,-0.387335,1.999969
879,220.218204,80.323491,-77.698940,0.048951,-0.573373,1.999969
880,262.699321,92.286564,-76.539254,0.038697,-0.824842,1.999969
881,270.084688,109.071489,-73.182269,0.064454,-0.916884,1.876371
882,234.622721,111.207752,-63.843748,0.078370,-0.931289,1.999969
883,224.063478,106.507973,-56.763561,0.180545,-1.007950,1.999969
884,251.590753,109.315633,-54.566262,0.304692,-1.045548,1.999969
885,271.183337,110.658427,-56.458381,0.438727,-1.057755,1.829618
886,254.703594,107.362478,-57.740139,0.464118,-1.105974,1.378439
887,231.937133,99.366751,-61.036088,0.386114,-1.177508,1.242084
888,209.903105,88.990616,-62.378882,0.174563,-1.300557,1.417380
889,192.874037,72.144656,-56.641489,-0.001831,-1.534813,1.613428
890,194.705119,58.838788,-47.425040,0.025757,-1.868437,1.411398
891,189.761196,61.829557,-39.307240,0.225711,-2.000031,0.994156
892,161.318380,79.774166,-30.334936,0.385382,-2.000031,0.382330
893,122.926680,103.761349,-35.645075,0.362921,-2.000031,-0.240604
894,84.596017,104.066529,-24.170291,0.109010,-2.000031,-0.634165
895,9.399557,58.777752,0.366217,-0.309941,-2.000031,-1.558251
896,-110.963607,-99.244678,57.434958,-0.112673,-2.000031,-1.628565
897,-223.514153,-247.806516,96.498054,0.547860,-2.000031,-0.187015
898,-227.542535,-262.516213,98.817426,0.989883,-1.906523,0.586557
899,-154.177157,-206.057832,77.088579,0.617319,0.390997,1.999969
900,-160.158694,-83.802548,69.581140,0.512459,0.922622,1.999969
901,-230.228122,-89.600977,81.239033,1.139544,0.546761,0.698497
902,-255.313954,-100.831617,49.134051,1.589136,-0.164553,0.768322
903,-255.558099,-60.364691,22.949569,1.055314,0.004273,1.457420
904,-268.802930,-41.077287,10.864424,0.249516,-0.276860,1.999969
905,-223.208972,-18.127718,19.897765,-1.183124,-0.684947,1.999969
906,-155.336843,-108.155947,42.664225,-1.311788,-0.782605,1.999969
907,-71.107042,-143.739986,27.649348,1.114885,0.039063,1.999969
908,-28.137636,-75.196460,8.056764,1.853788,0.183108,1.463523
909,-67.078660,-3.356985,-13.183795,-0.250858,0.138430,1.245624
910,-76.905470,-35.889220,13.611048,-0.652110,-0.160281,1.143816
911,-17.456321,-48.218509,-2.197299,0.636240,-0.052735,1.469749
912,-20.935378,-16.113527,-5.188067,0.115724,0.045411,1.132708
913,-28.503853,-16.113527,1.464866,-0.080201,-0.092409,1.091447
914,-3.906310,-14.953841,-1.037613,0.143801,0.006836,1.033829
915,-11.841001,-9.887846,0.000000,-0.005982,0.023560,0.944350
916,-16.601816,-11.902037,2.563516,0.015259,-0.005982,1.068864
917,-6.836042,-9.521630,2.075227,0.075563,0.053834,1.041520
918,-9.582666,-5.859464,4.150454,0.068238,0.019776,1.010025
919,-7.568475,-3.356985,4.760815,0.022950,-0.005249,1.053605
920,-4.272526,-3.173877,5.004959,0.044923,0.039063,1.036393
921,-5.249104,-2.136263,4.394598,0.030274,0.007446,0.996719
922,-5.798428,-1.770047,4.333562,0.024292,0.046632,1.010880
923,-4.455634,-0.915541,4.028382,0.046387,0.042725,0.991836
924,-6.897078,0.000000,2.685588,-0.005371,0.100954,0.974258
925,-17.029068,-2.258335,3.112840,0.014893,0.037354,1.036759
926,-10.620279,-1.403830,3.112840,0.010620,0.065675,1.059342
927,-6.836042,-0.183108,2.502480,0.033692,0.070680,1.020157
928,-11.230640,0.366217,2.990768,0.026123,-0.029908,1.001846
929,-6.103609,1.770047,2.014191,0.028809,0.059083,0.991714
930,-12.756542,1.586938,2.136263,0.026246,0.022461,0.974624
931,-14.709697,1.281758,1.647974,0.023072,0.021607,0.977798
932,-16.296635,1.037613,1.403830,0.023438,0.019898,0.957900
933,-20.263981,0.366217,0.976577,0.008667,0.031006,0.956802
934,-24.414435,-1.403830,0.671397,-0.004517,0.022827,0.960342
935,-28.259709,-2.990768,0.244144,0.009400,0.007446,0.983902
936,-28.381781,-3.601129,0.000000,0.016724,-0.016602,1.011368
937,-27.283131,-3.234913,0.183108,0.027832,-0.032837,0.998184
938,-26.794842,-3.112840,1.037613,0.021485,-0.030884,1.016739
939,-26.428626,-2.380407,1.525902,0.024903,-0.039307,1.006363
940,-27.344167,-2.563516,2.014191,0.027100,-0.059571,1.027481
941,-22.095064,-2.807660,2.136263,0.030152,-0.058350,1.014664
942,-21.179522,-3.173877,2.197299,0.012451,-0.052369,1.020279
943,-17.883574,-3.418021,2.685588,0.034668,-0.045655,1.002945
944,-17.212177,-2.807660,2.807660,0.033692,-0.046265,0.989151
945,-18.005646,-1.770047,3.662165,0.058595,-0.025513,1.000381
946,-20.263981,-0.305180,3.784237,0.035035,-0.011475,0.951553
947,-25.391012,-0.061036,4.394598,0.047242,-0.030762,1.047379
948,-29.541466,3.051804,4.455634,0.028687,-0.091798,0.984878
949,-25.085832,3.295949,4.821851,0.049195,-0.053834,1.066300
950,-26.916915,4.394598,3.540093,0.018555,-0.051270,1.033829
951,-30.212863,4.821851,3.906310,0.032105,-0.063233,0.986465
952,-29.968719,5.065995,3.601129,0.013306,-0.034180,0.974380
953,-30.823224,7.080186,4.699779,0.049195,-0.032471,0.963272
954,-44.678416,6.408789,6.286717,0.007813,-0.070680,0.961685
955,-41.321431,6.836042,5.554284,0.006836,-0.038819,1.001846
956,-49.439231,6.530861,5.127031,0.010376,-0.076539,0.973648
957,-54.810407,8.300908,7.263294,0.082521,-0.017456,1.192035
958,-54.688334,8.422980,8.178836,-0.018677,-0.199588,1.131365
959,-34.546426,9.460594,4.760815,-0.021485,-0.135622,1.028946
960,-24.475471,7.995727,-0.610361,-0.058717,-0.122805,0.999771
961,-19.714656,3.723201,-5.920500,-0.084596,-0.118044,1.039445
962,-13.733120,-0.915541,-13.366903,-0.116945,0.015503,1.055070
963,-26.733806,2.136263,-17.212177,0.045777,-0.024537,0.954360
964,-29.785611,2.014191,-14.953841,0.071290,-0.224247,1.056657
965,-12.817578,-2.380407,-9.338521,0.020020,-0.213870,1.034806
966,-2.502480,-5.981537,-8.422980,0.067140,-0.157229,1.050065
967,-8.117800,-3.112840,-6.469825,0.007568,0.020996,0.998062
968,-33.630884,2.075227,-14.831769,0.085573,0.161013,0.963882
969,-77.515831,9.765774,-22.644388,0.060182,0.387579,0.809705
970,-129.152361,19.958801,-39.673457,0.019287,0.477302,0.579599
971,-202.761883,-1.709010,-41.626612,-0.251225,0.263310,0.720836
972,-270.695048,-31.616693,-19.043259,-0.102174,0.813001,0.872450
973,-440.924697,-50.843061,-54.383154,-0.122927,0.873548,1.999969
974,-584.420539,-137.514305,-47.974365,-1.144793,0.603159,1.624048
975,-807.080186,-235.538262,2.807660,-0.349981,0.024659,1.359030
976,-931.654841,-254.703594,76.050965,0.226932,-0.053712,1.022965
977,-1138.933394,-241.763943,148.256657,1.419577,-2.000031,1.999969
978,-742.870222,-88.502327,246.952010,-0.766247,-2.000031,1.999969
979,183.047227,-31.738766,-35.156786,-0.295171,0.224979,1.999969
980,357.000076,45.532921,-6.164645,-0.527230,0.927993,1.999969
981,144.045167,49.134051,-2.868696,-0.311284,0.922133,1.600366
982,-14.465553,-12.451362,50.782025,-0.401495,0.575082,0.542611
983,-21.850919,-32.715343,55.603876,-0.024292,0.219852,0.279667
984,77.943084,-10.437171,38.269627,0.028809,0.279423,0.275395
985,79.896239,-10.620279,29.663539,0.182742,0.595712,0.246708
986,36.316472,-12.268254,21.606775,0.254765,0.542733,0.608164
987,60.669871,-8.422980,7.690547,0.162234,0.481697,0.874525
988,107.728695,-11.841001,-4.821851,0.137331,0.583383,0.940444
989,121.644923,-23.437858,-11.230640,0.103639,0.592416,1.013199
990,141.969940,-32.837415,-17.883574,0.046876,0.523445,1.238911
991,177.126726,-32.104982,-24.963760,-0.045533,0.441657,1.357687
992,207.339590,-24.109255,-29.602502,-0.098146,0.354376,1.366598
993,230.106050,-11.474784,-31.677729,-0.180911,0.242435,1.390768
994,253.665980,-0.244144,-30.273899,-0.253422,0.113283,1.396017
995,278.324559,8.484016,-26.001373,-0.301518,0.010498,1.350362
996,296.574350,14.404517,-19.470512,-0.304570,-0.071656,1.322530
997,309.391928,19.409476,-12.512398,-0.265873,-0.132692,1.311666
998,320.378424,23.498894,-5.432212,-0.217655,-0.146975,1.250874
999,328.557259,21.911955,-3.173877,-0.078126,-0.268803,1.043473
1000,331.548028,15.869383,-5.188067,0.003418,-0.312016,0.980362
1001,321.049821,15.320058,-10.742351,0.096071,-0.359869,0.932509
1002,302.006561,28.686961,-21.118486,0.139773,-0.524788,1.084245
1003,281.559472,53.101396,-27.893492,0.162722,-0.453376,1.250385
1004,271.122301,74.464027,-37.842374,0.219486,-0.492073,1.316548
1005,270.878157,79.591058,-45.899138,0.189944,-0.482185,1.290669
1006,257.267109,78.309300,-50.049592,0.117922,-0.488411,1.374777
1007,222.903792,73.914702,-44.739452,0.021607,-0.480476,1.883452
1008,212.893874,64.820325,-41.565576,0.033326,-0.578134,1.999969
1009,233.951324,69.825284,-42.359045,0.062257,-0.779797,1.999969
1010,257.755398,87.281605,-45.288777,0.101320,-0.879896,1.999969
1011,247.440299,98.634318,-45.410849,0.060060,-0.925185,1.999969
1012,239.688716,96.437018,-43.152514,0.044923,-1.031632,1.999969
1013,264.469368,96.070802,-41.870756,0.097902,-1.092424,1.999969
1014,278.385595,98.817426,-42.298009,0.213626,-1.083635,1.883207
1015,259.525444,100.099184,-42.664225,0.262577,-1.130510,1.623682
1016,242.374304,98.634318,-42.603189,0.293584,-1.197772,1.617945
1017,231.021592,90.760662,-40.772107,0.338018,-1.257099,1.770779
1018,223.331044,79.774166,-37.109941,0.410651,-1.456077,1.783474
1019,220.767529,73.426413,-33.264668,0.499153,-1.810575,1.375631
1020,206.546120,73.487449,-28.076600,0.649668,-2.000031,0.736339
1021,167.299916,74.280919,-23.437858,0.829847,-2.000031,0.096437
1022,109.193561,70.191501,-37.659266,0.896498,-2.000031,-0.462654
1023,71.900511,54.383154,-35.706111,0.641855,-2.000031,-0.906264
1024,3.784237,16.418708,-25.207904,0.330571,-2.000031,-0.689464
1025,-112.245365,-75.257496,7.263294,-0.266361,-2.000031,-2.000031
1026,-295.109483,-221.072709,68.604562,0.453742,-1.882231,-0.518196
1027,-221.683070,-168.642710,55.420768,0.449348,-0.656016,1.999969
1028,-118.348974,-34.485389,37.659266,-0.279179,1.088762,1.999969
1029,-190.310521,-67.261769,50.476844,-0.253300,0.828260,0.874403
1030,-323.918517,-123.598077,65.003433,0.365850,-0.442145,0.761852
1031,-283.817807,-84.412909,66.956588,0.875746,-0.475715,1.620752
1032,-238.773175,-70.923934,49.011978,1.392966,0.089723,1.999969
1033,-208.377203,-27.344167,20.935378,0.934585,-0.333501,1.999969
1034,-105.104143,-0.671397,-2.807660,-0.004028,-0.176150,1.570214
1035,-128.480964,-18.127718,16.418708,-1.283589,0.026612,1.877348
1036,-156.435492,-67.139696,41.870756,-0.345586,-0.323980,1.999969
1037,-49.195087,-89.173724,8.239872,1.088029,-0.115358,1.999969
1038,-26.306554,-38.879988,-10.376135,0.584237,0.277348,1.498558
1039,-66.651408,-19.226368,2.258335,-0.427008,-0.035889,1.210468
1040,-47.730220,-47.302968,7.385367,-0.185672,-0.040406,1.252583
1041,-25.940337,-46.082246,-1.647974,0.511849,0.156252,1.232807
1042,-41.077287,-19.409476,-2.990768,0.158328,0.174197,1.163714
1043,-34.119173,-14.953841,1.464866,-0.162234,-0.025757,1.166644
1044,-13.733120,-20.752270,1.586938,0.109133,0.090822,1.062272
1045,-20.447089,-12.085145,0.549325,0.149783,0.065675,1.124041
1046,-21.240558,-4.211490,2.380407,0.021607,-0.015137,1.085466
1047,-7.995727,-0.427253,2.685588,0.109133,0.107546,0.967178
1048,-22.583352,5.981537,3.723201,0.067384,0.073976,0.984390
1049,-24.780652,8.545052,4.455634,0.021118,0.030274,1.043351
1050,-20.508125,9.338521,3.601129,0.042237,0.074098,0.952773
1051,-27.100023,11.108568,3.601129,0.036255,0.068971,0.967178
1052,-30.945296,10.986496,3.540093,0.011109,0.029297,1.053605
1053,-28.931106,10.131991,3.356985,0.022705,-0.000244,1.052140
1054,-24.353399,10.315099,2.502480,0.025147,-0.008911,1.047379
1055,-20.569162,10.315099,2.502480,0.016358,-0.007080,1.041398
1056,-17.456321,10.131991,2.014191,0.002564,-0.003296,1.029679
1057,-16.662852,9.460594,2.014191,-0.003784,0.006592,1.013199
1058,-15.808347,8.972305,1.586938,0.004150,0.004517,1.007218
1059,-15.442130,8.300908,1.342794,0.003906,-0.000488,1.002701
1060,-14.221408,7.873655,1.037613,0.005005,-0.007080,1.008927
1061,-12.634470,6.652934,1.098650,-0.017945,0.013550,0.967178
1062,-15.503166,4.516670,1.342794,-0.006592,0.003662,0.973404
1063,-16.723888,3.479057,1.403830,-0.004028,-0.008545,1.003189
1064,-16.418708,3.173877,1.709010,0.001221,-0.015015,1.003311
1065,-14.953841,3.479057,2.014191,0.005371,-0.012207,1.003189
1066,-15.686275,3.479057,2.685588,0.000610,-0.009766,1.004532
1067,-14.587625,3.173877,2.929732,-0.004273,-0.009522,0.981582
1068,-15.381094,2.197299,3.051804,-0.022217,0.000366,0.947402
1069,-19.531548,-0.549325,3.051804,-0.014282,-0.000366,0.975113
1070,-20.874342,-2.258335,2.258335,-0.012207,-0.031250,0.995010
1071,-17.700465,-2.685588,1.525902,0.001953,-0.038087,1.002213
1072,-18.799115,-3.234913,1.464866,-0.008789,-0.019532,1.018692
1073,-18.066682,-2.929732,1.403830,-0.003906,-0.047852,0.989273
1074,-15.014878,-3.418021,1.037613,-0.011475,-0.021607,1.001846
1075,-17.395285,-3.540093,1.220722,-0.004028,-0.027100,0.991470
1076,-17.334249,-3.356985,1.709010,0.002197,-0.044068,0.996109
1077,-16.968032,-3.356985,2.075227,-0.013428,-0.052735,0.990005
1078,-16.174563,-4.943923,1.464866,-0.025879,-0.049928,0.989517
1079,-14.587625,-6.897078,0.488289,-0.020142,-0.034546,0.963516
1080,-16.601816,-9.033341,-1.098650,-0.017578,-0.012940,0.952407
1081,-22.217136,-11.841001,-1.831083,0.002197,-0.015259,0.954482
1082,-26.184482,-12.207218,-3.112840,0.005493,-0.022705,0.958877
1083,-29.541466,-12.817578,-3.112840,0.035035,-0.020996,0.956924
1084,-36.621653,-10.620279,-0.915541,0.069337,-0.013428,1.058610
1085,-43.274586,-5.310140,2.868696,0.037232,-0.060670,1.061540
1086,-42.175937,-1.831083,3.784237,0.056886,-0.064088,1.013199
1087,-46.509499,2.502480,6.591897,0.037476,-0.098512,1.009415
1088,-47.730220,4.943923,10.498207,0.021118,-0.125368,1.038712
1089,-42.481117,7.202258,10.254063,0.020386,-0.095216,1.004288
1090,-40.405890,7.202258,8.056764,-0.055909,-0.079347,0.988296
1091,-36.865797,5.981537,7.629511,-0.052003,-0.088014,1.041154
1092,-26.794842,5.493248,3.479057,-0.095583,-0.166018,1.029679
1093,-22.400244,1.098650,-10.681315,-0.112795,-0.072267,1.022965
1094,-41.809720,-4.760815,-37.354086,-0.048341,-0.209476,0.991348
1095,-48.645762,-4.516670,-25.329976,0.145632,-0.363531,0.957656
1096,-36.011292,-3.845274,-3.662165,0.120485,-0.234623,1.099016
1097,-20.874342,-1.953155,-5.188067,0.002930,-0.167239,1.008560
1098,-15.808347,-3.906310,-6.591897,0.045533,-0.040284,1.093645
1099,-39.307240,2.868696,-11.169604,-0.008667,0.103761,0.932265
1100,-82.825971,5.859464,-15.442130,0.129397,0.166506,1.012711
1101,-116.884108,13.244831,-21.850919,-0.053468,0.422980,0.693858
1102,-149.050126,3.418021,-39.307240,0.073732,0.307012,0.729381
1103,-189.394980,-28.137636,-36.499580,-0.277348,0.510872,1.030411
1104,-395.574884,-34.241245,-45.899138,0.047974,1.072404,1.839384
1105,-595.040818,-41.443503,-52.185855,-0.726452,0.923964,1.814237
1106,-751.537346,-130.434119,-20.019837,-0.587900,-0.060914,1.191424
1107,-878.248264,-179.568170,25.085832,-0.043091,-0.260258,0.932998
1108,-948.073549,-188.113222,61.768521,0.723644,-2.000031,1.999969
1109,-1008.316167,-126.771954,229.068437,-0.694713,-0.503670,1.999969
1110,-68.665599,-82.276646,-50.965133,-0.322271,-1.671534,1.999969
1111,304.570077,-22.522316,-15.991455,-0.449958,0.832654,1.999969
1112,143.129625,2.075227,-24.719615,-0.252201,0.950454,1.989044
1113,-22.522316,-36.987869,49.622339,-0.678355,0.818738,1.266987
1114,-54.627298,-59.815366,62.134737,-0.267948,0.320928,1.035172
1115,69.642176,-16.357671,46.204318,-0.182986,0.317144,0.977310
1116,108.094911,8.728161,39.307240,-0.097780,0.550423,0.658091
1117,66.956588,14.343481,38.208591,-0.043824,0.469856,0.812146
1118,87.220569,21.240558,33.142596,-0.049317,0.366827,1.017227
1119,134.706645,19.714656,27.222095,-0.090211,0.396002,1.038834
1120,150.087739,1.831083,28.259709,-0.080079,0.379278,1.009049
1121,172.487984,-14.770733,26.733806,-0.007691,0.326787,1.045060
1122,199.465934,-20.386053,21.545739,0.028931,0.340948,1.027115
1123,211.551080,-19.104295,13.183795,0.073976,0.300053,1.006607
1124,226.138705,-10.315099,2.685588,0.096803,0.245609,1.053117
1125,239.871824,0.000000,-7.873655,0.083375,0.191531,1.056168
1126,254.520485,9.399557,-17.334249,0.064088,0.123049,1.066911
1127,264.774548,15.442130,-23.804074,0.038697,0.068360,1.114397
1128,275.394827,17.334249,-27.771420,0.017823,0.011109,1.218647
1129,287.663081,16.845960,-30.029755,0.040650,-0.049683,1.342672
1130,302.128634,17.395285,-34.058137,0.080934,-0.101320,1.386130
1131,315.190356,20.019837,-40.344854,0.130495,-0.171756,1.302388
1132,317.570764,27.893492,-49.927520,0.123781,-0.387701,0.890761
1133,305.302510,47.058824,-57.434958,0.148806,-0.610361,0.534188
1134,272.770275,61.158160,-57.007706,0.088869,-0.520272,0.649912
1135,235.355154,47.364004,-55.115587,0.101442,-0.424933,1.072648
1136,234.317540,35.400931,-58.777752,0.165408,-0.289189,1.552392
1137,230.228122,39.612421,-65.186542,0.155032,-0.302739,1.999969
1138,227.786679,64.698253,-68.665599,0.087037,-0.457160,1.999969
1139,258.670939,89.051652,-71.168078,-0.019409,-0.650767,1.999969
1140,270.267796,100.526436,-63.965820,-0.127077,-0.743175,1.999969
1141,255.497063,89.539940,-47.608148,-0.181765,-0.791028,1.999969
1142,261.600671,73.060197,-30.334936,-0.145144,-0.918471,1.999969
1143,291.874571,67.444877,-19.165332,0.038819,-0.953017,1.999969
1144,289.494163,67.627985,-12.939651,0.140505,-0.934463,1.967437
1145,275.883116,59.266041,-10.009918,0.255009,-0.961440,1.833768
1146,277.164874,54.200046,-16.296635,0.287602,-0.956802,1.673732
1147,262.088960,51.636530,-26.977951,0.268070,-0.979385,1.539452
1148,241.275654,56.702525,-39.490349,0.211551,-1.065690,1.480003
1149,226.199741,70.557717,-51.697566,0.125978,-1.207538,1.333761
1150,202.822919,85.145342,-58.045319,0.073121,-1.431907,1.115496
1151,172.060731,94.117647,-57.068742,0.198367,-1.734646,0.953140
1152,138.429847,98.023957,-52.735180,0.502937,-2.000031,0.724254
1153,99.244678,102.906844,-56.031128,0.714366,-2.000031,0.585824
1154,74.952316,116.090639,-56.580453,0.600717,-2.000031,0.170901
1155,47.241932,102.235447,-44.983597,0.010010,-2.000031,-0.343999
1156,-50.476844,-2.197299,1.586938,-0.256596,-2.000031,-1.622339
1157,-184.756237,-152.285039,56.702525,-0.013794,-2.000031,-0.937270
1158,-227.908751,-225.589380,84.046693,0.275883,-2.000031,0.112306
1159,-240.604257,-170.412757,100.831617,0.215335,-0.822522,1.441550
1160,-164.736400,-84.962234,95.582513,0.194705,0.524788,1.999969
1161,-211.856260,-91.004807,100.343328,0.808606,0.831800,1.666529
1162,-292.301823,-118.043793,84.473945,1.413840,0.027100,1.155291
1163,-288.944839,-80.750744,65.613794,1.333028,-0.324468,1.650538
1164,-251.285573,-60.242618,38.635843,1.241352,-0.145022,1.999969
1165,-216.617075,-15.320058,17.883574,0.487922,-0.404547,1.999969
1166,-126.283665,5.981537,6.469825,-0.370245,-0.202518,1.641260
1167,-112.733654,-18.066682,24.658579,-1.125017,0.120729,1.921538
1168,-167.605097,-66.834516,33.447776,0.318486,-0.212894,1.999969
1169,-52.491035,-66.285191,3.601129,0.916152,-0.177493,1.765652
1170,-44.251164,-26.672770,-12.207218,0.001587,0.113283,1.516991
1171,-88.014038,-49.500267,15.014878,-0.485237,-0.136233,1.003067
1172,-33.203632,-55.786984,-2.929732,0.403937,-0.048829,1.694728
1173,-27.100023,-32.654307,-3.540093,0.287114,-0.006470,1.198505
1174,-23.620966,-19.531548,-3.784237,-0.083375,-0.072145,1.081682
1175,-15.625238,-22.156100,1.586938,0.056519,0.036500,1.118547
1176,-13.855192,-20.386053,0.732433,0.049805,0.026734,1.033463
1177,-13.061723,-17.090105,2.014191,0.055421,-0.001709,1.066300
1178,-9.094377,-12.573434,2.990768,0.063478,0.015503,1.060441
1179,-5.920500,-8.484016,3.356985,0.066407,0.060670,1.041398
1180,-9.826810,-5.188067,2.502480,0.086671,-0.023560,1.002457
1181,-4.638743,-2.319371,4.028382,0.080934,-0.021363,1.060807
1182,0.488289,1.403830,3.356985,0.012085,0.084108,0.931167
1183,-10.681315,-1.770047,3.906310,0.005982,0.075074,0.963027
1184,-12.329290,-1.464866,3.234913,0.044678,0.031739,0.991104
1185,-10.803388,-1.037613,2.197299,-0.031128,0.109987,0.987808
1186,-16.723888,-4.028382,2.197299,-0.005371,0.055787,0.990127
1187,-18.066682,-5.310140,2.075227,0.001221,0.039918,1.070085
1188,-11.841001,-4.760815,1.403830,0.045533,-0.012451,1.043473
1189,-13.855192,-4.333562,1.342794,0.041382,0.057374,1.056291
1190,-10.009918,-2.502480,1.098650,0.055177,-0.036378,0.974624
1191,-11.047532,-1.098650,0.671397,0.046021,-0.029297,0.985489
1192,-10.864424,-0.549325,1.037613,0.032715,0.022705,0.987320
1193,-12.939651,-0.854505,0.793469,0.007691,0.043214,0.953506
1194,-19.348440,-2.929732,0.793469,0.010132,0.012573,0.985122
1195,-16.906996,-3.540093,0.122072,0.009522,0.023682,0.987564
1196,-18.005646,-4.394598,-0.427253,0.018555,0.006836,0.992691
1197,-19.592584,-4.821851,0.427253,0.038575,0.017945,1.024308
1198,-17.151141,-3.784237,0.366217,0.034546,-0.009644,0.996231
1199,-18.127718,-3.784237,0.671397,0.030640,-0.006592,0.987564
1200,-18.982223,-3.601129,0.549325,0.017945,-0.000366,0.956680
1201,-22.644388,-5.004959,0.671397,0.037598,-0.010620,0.971939
1202,-23.865110,-5.188067,0.488289,0.036255,-0.017945,1.000381
1203,-23.804074,-5.798428,0.366217,0.043336,-0.036255,1.014176
1204,-20.996414,-5.432212,0.793469,0.035279,-0.049928,0.997940
1205,-18.310826,-5.371176,1.525902,0.034913,-0.023438,0.980606
1206,-21.606775,-5.493248,2.807660,0.057740,0.023438,1.029435
1207,-25.024796,-3.418021,1.892119,0.048219,-0.024414,0.981338
1208,-27.344167,-1.525902,2.014191,0.068849,-0.029541,0.994888
1209,-29.968719,1.281758,1.892119,0.009155,-0.116335,1.193256
1210,-34.729534,2.807660,2.319371,0.054566,-0.123903,0.919081
1211,-26.855879,2.990768,2.319371,0.047242,-0.109010,0.975113
1212,-24.841688,2.990768,2.136263,0.023194,-0.066773,1.043717
1213,-23.315785,2.990768,1.037613,0.022583,-0.050904,1.001358
1214,-25.757229,2.868696,0.061036,0.014649,-0.050172,0.971084
1215,-28.809033,2.380407,-0.305180,0.082521,-0.004273,0.988785
1216,-37.720302,5.432212,-1.281758,-0.033448,-0.029175,0.960708
1217,-46.875715,3.662165,0.000000,0.073732,-0.082643,0.980606
1218,-47.241932,6.225681,2.319371,0.014771,-0.110231,1.024063
1219,-50.598917,8.300908,4.272526,0.052979,-0.162112,1.021256
1220,-37.842374,10.009918,3.540093,-0.015991,-0.114382,1.024308
1221,-32.898451,8.667124,-2.624552,-0.041871,-0.058350,1.021866
1222,-38.025483,5.859464,-9.582666,-0.091310,-0.174197,0.976577
1223,-42.664225,6.652934,-19.348440,-0.074098,-0.127565,1.032609
1224,-49.256123,2.136263,-21.667811,0.035035,-0.160891,1.022110
1225,-38.391699,-4.150454,-12.695506,0.088136,-0.255375,1.036637
1226,-16.662852,-5.615320,-9.033341,0.128664,-0.152590,1.044083
1227,-8.850233,-2.807660,-5.188067,0.185794,-0.128786,1.070451
1228,-30.762188,11.779965,-0.366217,0.123781,0.099733,1.054459
1229,-60.242618,21.179522,-13.366903,0.102296,0.146365,0.932753
1230,-88.563363,26.611734,-18.860151,-0.062989,0.357794,0.883925
1231,-156.313420,30.334936,-38.696880,-0.156619,0.536751,0.818982
1232,-224.673838,-6.347753,-43.030442,-0.426764,0.112917,0.673350
1233,-267.887388,-47.547112,-17.456321,-0.189822,1.080705,1.239155
1234,-407.354849,-96.437018,-51.270314,-0.434455,0.796155,1.492088
1235,-630.380713,-232.364385,-52.185855,-0.713390,0.398444,1.471092
1236,-843.213550,-305.546654,17.639429,-0.117189,0.099977,1.344869
1237,-961.074235,-276.432441,75.623713,0.394903,-0.384894,0.989029
1238,-1265.766384,-272.770275,209.719997,-0.128664,-2.000031,1.999969
1239,-470.222019,-63.843748,173.525597,-1.647608,-0.575814,1.999969
1240,272.465095,10.498207,-53.894865,-0.504402,0.750378,1.999969
1241,282.291905,83.070115,-31.067369,-0.244144,1.434836,1.633204
1242,72.571908,54.383154,0.488289,-0.707408,0.968887,1.506371
1243,-85.206378,-29.785611,65.857939,-0.529305,0.563973,0.976211
1244,-43.030442,-36.438544,79.041733,-0.150027,0.260624,0.911147
1245,112.550546,-4.699779,58.228428,-0.069215,0.322881,0.769177
1246,126.039521,5.615320,51.331350,0.156985,0.592905,0.468513
1247,71.656367,5.249104,48.096437,0.284550,0.513680,0.658824
1248,92.042420,5.615320,36.926833,0.281376,0.440558,0.853895
1249,145.265888,-1.281758,19.836728,0.254398,0.510994,0.995865
1250,154.665446,-17.212177,10.742351,0.246830,0.527718,1.188128
1251,174.258030,-25.085832,-1.647974,0.294560,0.461799,1.319356
1252,213.687343,-11.291676,-20.752270,0.241581,0.373663,1.355734
1253,235.904479,7.263294,-35.706111,0.186404,0.262089,1.275898
1254,249.149310,23.437858,-45.288777,0.047486,0.103883,1.241962
1255,268.558785,33.875029,-48.706798,-0.088014,-0.068727,1.195819
1256,282.536049,37.109941,-44.678416,-0.152102,-0.182132,1.172869
1257,292.973220,37.048905,-37.903410,-0.127565,-0.248905,1.152605
1258,301.518273,37.293050,-32.288090,-0.064820,-0.292363,1.144060
1259,304.386969,38.330663,-29.419394,0.055787,-0.312993,1.181781
1260,303.959716,40.466926,-31.555657,0.132448,-0.343145,1.270771
1261,304.753185,42.420081,-36.316472,0.205447,-0.374762,1.289326
1262,303.654536,44.800488,-44.373236,0.270268,-0.432136,1.255756
1263,289.005875,56.763561,-54.932479,0.347417,-0.626963,1.052995
1264,269.962615,80.384527,-65.918975,0.461921,-0.655650,1.030289
1265,247.379263,98.756390,-75.745785,0.445441,-0.669566,1.023331
1266,222.537575,95.521477,-80.872816,0.349371,-0.687388,1.255146
1267,198.550393,78.858625,-77.332723,0.299931,-0.596445,1.956573
1268,191.042954,59.021897,-75.745785,0.343145,-0.710338,1.999969
1269,228.519112,54.749371,-81.483177,0.412848,-0.819226,1.999969
1270,255.924315,68.543526,-92.530709,0.375128,-0.820081,1.832181
1271,232.547494,76.966506,-94.178683,0.164431,-0.811658,1.837186
1272,218.814374,72.877089,-86.915389,-0.030884,-0.902480,1.999969
1273,244.083314,67.872129,-74.891279,-0.113039,-0.914443,1.999969
1274,257.755398,66.346227,-60.181582,-0.028931,-0.870253,1.784817
1275,249.454490,67.811093,-47.302968,0.088502,-0.876356,1.503075
1276,242.374304,70.069429,-39.734493,0.181643,-0.856092,1.412985
1277,228.213931,73.243305,-34.973678,0.230594,-0.870863,1.418967
1278,215.335317,76.112001,-30.945296,0.225711,-0.990738,1.432395
1279,208.010987,77.576867,-24.963760,0.225711,-1.147112,1.344869
1280,198.489357,72.449836,-15.991455,0.259159,-1.365377,1.073259
1281,181.460288,61.158160,-4.943923,0.303960,-1.616602,0.810681
1282,151.064317,52.368963,8.728161,0.436896,-1.881010,0.506477
1283,109.681849,51.026169,15.869383,0.573251,-2.000031,0.349615
1284,73.670558,51.697566,18.371862,0.705577,-2.000031,0.131594
1285,37.537194,47.119860,17.334249,0.714977,-2.000031,0.053223
1286,5.676356,27.405203,24.231327,0.548470,-2.000031,0.012329
1287,-26.794842,-5.249104,37.170977,0.045655,-2.000031,0.011353
1288,-191.653315,-78.309300,50.171664,0.766491,-2.000031,-2.000031
1289,-205.142290,-157.473106,43.945983,0.629648,-0.682506,1.564477
1290,-103.578241,-54.688334,24.963760,0.207156,1.340841,1.999969
1291,-175.051499,-45.899138,25.146868,-0.552010,1.348165,0.617807
1292,-366.948959,-116.823072,45.288777,-0.610361,-0.622202,0.095460
1293,-326.848249,-97.657740,78.736553,0.333135,-0.766979,0.926650
1294,-256.412604,-65.430686,63.172351,1.578515,-0.094484,1.999969
1295,-257.328145,-13.855192,34.058137,1.609155,-0.295415,1.999969
1296,-151.674678,16.357671,-1.831083,-0.018311,-0.328740,1.958648
1297,-187.441825,-23.071641,27.038987,-1.649805,-0.622934,1.999969
1298,-105.165179,-93.324178,41.260395,-0.227909,-0.400153,1.999969
1299,-35.156786,-96.620127,6.225681,1.583764,0.257939,1.999969
1300,-49.622339,-24.414435,4.211490,0.347662,0.241703,1.353048
1301,-69.275959,-23.865110,6.958114,-0.662852,-0.163821,1.145647
1302,-31.311513,-52.002747,2.929732,0.176394,0.091920,1.224018
1303,-39.612421,-32.593271,-10.376135,0.526131,-0.035157,1.398459
1304,-39.368276,-13.488975,2.014191,-0.158938,-0.067262,1.145892
1305,-14.282444,-23.865110,-1.281758,0.006348,0.067750,0.904433
1306,-28.320745,-20.996414,0.305180,0.110597,0.010254,1.073014
1307,-30.701152,-16.174563,3.234913,0.038575,-0.056275,1.203876
1308,-6.775006,-11.963073,1.586938,0.124025,0.084474,1.046159
1309,-15.075914,-6.897078,3.234913,0.039307,0.041260,0.981704
1310,-17.151141,-7.202258,5.249104,0.000488,0.053956,1.010513
1311,-14.160372,-7.751583,4.028382,0.038575,0.076417,0.995621
1312,-20.874342,-6.408789,4.333562,0.052735,0.035279,1.010513
1313,-18.493935,-5.127031,4.150454,0.026001,-0.013184,1.017716
1314,-18.249790,-3.601129,3.784237,0.053223,0.010742,0.965591
1315,-20.813306,-2.990768,3.540093,-0.010010,0.030762,0.985489
1316,-21.545739,-4.333562,2.929732,0.008667,0.024781,0.963516
1317,-22.766461,-3.967346,2.929732,0.039063,0.021118,0.990372
1318,-23.010605,-2.990768,2.441444,0.033814,-0.005371,1.030777
1319,-19.287404,-0.915541,2.136263,0.051514,-0.013062,1.040787
1320,-17.456321,0.793469,2.258335,0.035401,-0.001343,1.013077
1321,-16.784924,0.488289,2.014191,0.017578,0.013794,0.998672
1322,-18.371862,-1.098650,1.770047,0.019898,-0.006592,0.994400
1323,-16.906996,-1.892119,1.220722,0.018067,-0.008545,0.994522
1324,-17.639429,-2.319371,0.976577,0.015869,-0.007202,1.008438
1325,-17.578393,-2.990768,0.854505,0.012940,-0.007324,1.001114
1326,-16.784924,-3.479057,0.061036,0.017700,-0.050172,0.925429
1327,-18.738079,-4.394598,0.793469,0.009888,0.003540,1.047501
1328,-16.784924,-4.821851,1.342794,0.008545,0.022950,1.047013
1329,-16.662852,-5.188067,1.647974,0.028077,0.009522,1.041276
1330,-15.869383,-4.882887,1.831083,0.018799,0.007202,1.046403
1331,-13.366903,-4.028382,1.525902,0.042481,-0.029053,0.992691
1332,-15.503166,-3.601129,1.342794,0.028687,-0.022339,0.998795
1333,-14.221408,-3.784237,1.220722,0.014649,-0.016236,0.952163
1334,-18.493935,-4.882887,1.342794,0.035523,-0.004395,0.974136
1335,-21.850919,-5.127031,1.342794,0.028809,-0.022217,0.992569
1336,-20.935378,-4.272526,1.037613,0.068116,-0.022950,1.021134
1337,-24.658579,-1.831083,1.159686,0.048829,-0.042847,1.017594
1338,-25.513085,0.061036,2.380407,0.050416,-0.072999,1.035904
1339,-20.874342,2.197299,3.356985,0.055787,-0.054566,1.029068
1340,-18.738079,3.356985,2.746624,0.004028,-0.017212,1.040421
1341,-22.705425,4.272526,3.418021,0.027832,-0.062623,0.971328
1342,-22.339208,4.089418,3.662165,0.022095,-0.085328,1.022477
1343,-18.738079,3.601129,2.807660,0.011353,-0.061646,0.986099
1344,-20.019837,1.770047,2.014191,0.000366,-0.050294,0.978042
1345,-24.780652,3.418021,2.502480,0.096315,-0.030152,0.828260
1346,-25.268940,-0.488289,0.671397,0.059449,0.012451,1.039567
1347,-33.325704,0.122072,0.549325,0.030152,-0.047730,0.938735
1348,-39.002060,0.976577,2.746624,0.035279,-0.074586,0.998306
1349,-38.086519,3.173877,4.394598,0.039185,-0.086183,1.005875
1350,-41.809720,4.699779,5.554284,0.030152,-0.090455,0.984878
1351,-44.190127,5.615320,6.103609,0.015137,-0.104860,0.992447
1352,-41.016251,5.310140,3.234913,-0.015625,-0.095949,1.059953
1353,-40.833143,3.845274,-1.342794,-0.033814,-0.088014,0.995377
1354,-37.659266,1.037613,-8.300908,-0.061769,-0.104128,1.004044
1355,-25.818265,-3.662165,-15.014878,-0.026490,-0.094362,0.994400
1356,-33.203632,-1.098650,-30.762188,0.020508,-0.036744,0.868788
1357,-50.782025,1.281758,-30.579080,0.105226,-0.277104,1.089006
1358,-28.992142,-2.258335,-3.295949,0.145510,-0.248661,1.030777
1359,-23.315785,3.845274,-0.183108,0.106813,-0.180423,1.088151
1360,-17.883574,7.629511,0.366217,0.056764,0.028809,1.014420
1361,-47.730220,16.479744,-9.948882,0.076661,0.126711,1.034806
1362,-94.972152,24.780652,-12.573434,0.053346,0.363165,0.854627
1363,-143.984131,27.283131,-27.222095,-0.100954,0.444831,0.664927
1364,-183.535515,-8.545052,-33.264668,-0.309453,0.244999,0.646983
1365,-271.183337,-24.353399,-38.452735,-0.012573,0.957534,1.594873
1366,-456.610971,-35.278859,-76.417182,-0.328374,0.583017,1.323018
1367,-633.188373,-145.448997,-45.899138,-0.716930,0.283818,1.463401
1368,-804.211490,-264.225223,22.095064,-0.234867,-0.005371,1.321553
1369,-917.433433,-277.164874,76.478218,0.303593,-1.678370,1.999969
1370,-1127.214466,-256.595712,261.295491,-1.194598,-0.896986,1.999969
1371,-229.678798,-90.516518,52.491035,-0.677745,-1.149432,1.999969
1372,327.153429,-4.089418,-37.109941,-0.249638,0.625010,1.999969
1373,233.829252,66.773480,-47.547112,0.040284,0.983658,1.605249
1374,34.729534,25.513085,14.160372,-0.609262,0.954482,0.773083
1375,-100.282292,-28.747997,42.725261,-0.207523,0.489631,0.508553
1376,-33.813993,-12.268254,36.621653,-0.107301,0.274907,0.660655
1377,76.050965,10.864424,17.090105,-0.004028,0.458259,0.569589
1378,55.848020,11.291676,9.948882,0.144411,0.602548,0.584482
1379,28.137636,8.606088,5.004959,0.084230,0.505135,0.916762
1380,74.891279,8.606088,-6.103609,0.020996,0.487434,1.114031
1381,117.067216,2.990768,-13.427939,-0.023316,0.539437,1.146868
1382,130.006867,-7.263294,-15.442130,-0.007568,0.497688,1.179950
1383,160.097658,-8.117800,-20.935378,-0.005249,0.407599,1.167864
1384,190.432593,-0.488289,-28.686961,-0.012696,0.347662,1.062638
1385,202.822919,10.254063,-33.691920,-0.089601,0.252934,1.025040
1386,211.795224,21.118486,-35.034714,-0.146853,0.139528,1.123064
1387,228.458076,30.762188,-32.715343,-0.181888,0.090944,1.365866
1388,247.562371,35.767147,-27.954528,-0.190799,0.014893,1.496117
1389,271.854734,41.321431,-22.339208,-0.161135,-0.100832,1.437278
1390,289.616236,44.922560,-17.822538,-0.058961,-0.185183,1.296651
1391,294.499123,47.302968,-17.700465,0.072999,-0.300053,1.150530
1392,297.978180,52.796216,-20.813306,0.135012,-0.341436,1.033097
1393,294.316014,53.162432,-25.513085,0.186526,-0.367071,0.942763
1394,281.071183,50.110628,-30.701152,0.225223,-0.393927,0.911757
1395,265.079728,53.528649,-36.987869,0.216434,-0.444587,1.064591
1396,249.515526,57.557031,-40.405890,0.157961,-0.419806,1.399313
1397,241.458763,62.073701,-42.542153,0.088136,-0.413703,1.685451
1398,251.651789,67.566949,-43.945983,0.118044,-0.414435,1.837797
1399,254.520485,78.309300,-45.654994,0.133181,-0.436774,1.846342
1400,251.407645,93.141070,-45.838102,0.167361,-0.512825,1.698512
1401,245.914397,99.977111,-45.471885,0.164553,-0.574594,1.653712
1402,236.820020,97.291524,-43.945983,0.179202,-0.578256,1.768948
1403,227.176318,86.182956,-42.236973,0.235599,-0.563485,1.999969
1404,229.190509,77.882048,-43.335622,0.313603,-0.593515,1.999969
1405,245.609216,80.567636,-45.838102,0.343633,-0.628305,1.999969
1406,260.196841,81.605249,-47.852293,0.349859,-0.657481,1.999969
1407,265.384909,75.562676,-48.401617,0.364630,-0.708751,1.952300
1408,261.356527,69.153887,-48.401617,0.394537,-0.769909,1.826200
1409,252.140078,67.872129,-48.706798,0.345953,-0.896498,1.722927
1410,242.252232,65.125505,-46.814679,0.139773,-1.086076,1.541405
1411,228.091859,58.838788,-40.833143,-0.075563,-1.360861,1.352193
1412,204.165713,59.021897,-29.907683,-0.150881,-1.726711,1.099992
1413,171.816587,70.801862,-17.334249,0.010986,-2.000031,0.933242
1414,123.964294,91.920348,-8.789197,0.246586,-2.000031,0.819837
1415,99.916075,137.697414,6.042573,0.317021,-2.000031,0.338018
1416,85.206378,160.708019,5.127031,0.112062,-2.000031,-0.307134
1417,37.170977,118.654154,45.166705,-0.050416,-2.000031,-0.782971
1418,-39.917601,19.592584,89.112688,0.009766,-1.796414,-0.215335
1419,-68.116274,-57.495995,117.006180,0.050904,-1.362325,0.256107
1420,-181.399252,-133.180743,82.276646,1.125628,-1.487205,-0.678111
1421,-239.749752,-112.672618,87.098497,0.681773,-0.475959,0.600351
1422,-156.008240,-91.859312,56.763561,0.286015,0.629892,1.476585
1423,-147.707332,-98.939498,49.439231,0.320195,1.112444,1.422751
1424,-271.610590,-94.361791,56.153201,0.534920,0.281254,0.017578
1425,-308.720531,-81.605249,51.392386,0.764172,-0.372686,0.047120
1426,-342.107271,-69.581140,45.532921,1.029191,-0.071656,1.999969
1427,-326.482033,-21.606775,30.151827,0.771496,-0.583139,1.999969
1428,-203.616388,6.286717,4.943923,-0.071534,-0.542611,1.999969
1429,-179.812314,-28.870069,28.992142,-1.420798,-0.242313,1.999969
1430,-150.514992,-105.104143,57.801175,-0.598886,-0.724132,1.999969
1431,-35.584039,-124.452583,28.198672,1.552636,0.215213,1.999969
1432,-28.076600,-38.330663,1.403830,1.117815,0.036622,1.336934
1433,-58.106355,-2.441444,3.234913,-0.654307,0.054688,1.087785
1434,-64.209964,-45.044633,18.005646,-0.307134,-0.030152,1.075212
1435,-28.198672,-48.340581,4.699779,0.406500,0.178470,1.114519
1436,-56.458381,-27.222095,3.234913,0.239261,0.029175,1.313130
1437,-53.040360,-24.841688,5.371176,-0.177615,-0.146242,1.249409
1438,-7.751583,-28.992142,-0.305180,0.052247,0.068727,0.985000
1439,-30.518044,-25.940337,1.892119,0.093263,0.061891,1.132708
1440,-29.785611,-20.874342,2.258335,-0.009155,-0.073976,1.137346
1441,-6.591897,-16.052491,-0.122072,0.116091,0.138064,0.983047
1442,-29.236286,-11.718929,2.380407,0.056886,0.051514,0.997086
1443,-30.090791,-8.911269,2.868696,0.022705,-0.046876,1.075334
1444,-16.357671,-7.263294,2.929732,0.090944,0.079713,1.055070
1445,-24.292363,-6.103609,4.272526,0.013550,-0.057618,1.017350
1446,-16.845960,-6.286717,2.929732,0.028565,-0.077150,0.997818
1447,-15.747311,-6.958114,2.868696,0.032105,-0.000366,1.009781
1448,-16.784924,-7.324331,1.770047,-0.011841,0.015381,1.013565
1449,-15.320058,-7.873655,0.671397,0.010132,-0.005249,1.005753
1450,-14.526589,-7.629511,0.183108,0.046021,-0.065553,0.946304
1451,-13.916228,-6.836042,0.305180,0.052857,-0.091310,0.966445
1452,-13.122759,-5.371176,0.732433,0.032959,0.029664,1.052018
1453,-11.963073,-4.089418,1.342794,0.049317,-0.058961,0.974136
1454,-12.451362,-3.112840,1.525902,0.032227,0.010742,1.017472
1455,-11.535821,-2.502480,1.647974,0.017090,0.011841,1.016129
1456,-12.878614,-2.929732,1.342794,0.039796,0.011597,0.985977
1457,-13.611048,-2.502480,0.366217,0.022705,0.008667,0.950210
1458,-18.432898,-3.418021,0.000000,0.020508,0.005371,0.974258
1459,-20.447089,-3.662165,-0.427253,0.024414,-0.013794,0.981827
1460,-20.569162,-3.784237,-0.671397,0.040772,-0.015625,0.983169
1461,-22.095064,-3.540093,-0.488289,0.041260,-0.046998,1.023697
1462,-19.714656,-2.868696,0.000000,0.036133,-0.051026,1.015274
1463,-16.784924,-2.380407,0.061036,0.037964,-0.049683,0.999283
1464,-17.151141,-2.624552,0.183108,0.020996,-0.055543,1.013565
1465,-13.855192,-3.295949,0.000000,0.023926,-0.051148,1.006363
1466,-14.038300,-4.150454,-0.122072,0.036011,-0.055177,1.016495
1467,-11.963073,-3.662165,0.244144,0.048463,-0.071168,1.012833
1468,-9.399557,-2.868696,0.915541,0.042237,-0.059083,0.997818
1469,-9.826810,-2.502480,1.159686,0.043336,-0.041505,0.988663
1470,-11.230640,-2.624552,1.098650,0.031250,-0.029175,0.983169
1471,-12.451362,-1.892119,0.732433,0.046265,-0.044678,0.962539
1472,-16.968032,1.342794,1.403830,0.080934,-0.079103,0.913588
1473,-13.733120,-1.525902,1.709010,0.066896,-0.019654,1.115496
1474,-12.817578,0.183108,0.488289,0.051514,-0.058595,1.005142
1475,-13.794156,0.671397,0.549325,0.035279,-0.081178,1.002823
1476,-11.535821,0.305180,0.427253,0.026978,-0.071901,0.993057
1477,-13.122759,-0.549325,0.244144,0.022705,-0.061769,0.991470
1478,-13.488975,-1.037613,-0.305180,0.032105,-0.052125,0.969863
1479,-15.075914,-1.525902,-1.098650,0.037110,-0.041505,0.981216
1480,-18.371862,-1.586938,-1.647974,0.059083,-0.052369,0.986343
1481,-18.371862,-0.061036,-2.258335,0.050416,-0.056275,0.988907
1482,-21.118486,1.098650,-1.281758,0.065187,-0.069215,0.993179
1483,-22.522316,2.746624,0.427253,0.041260,-0.089967,1.005386
1484,-21.240558,3.356985,1.647974,0.039796,-0.084108,1.010636
1485,-22.278172,3.662165,1.892119,0.020020,-0.085328,0.989395
1486,-22.705425,3.723201,2.075227,0.030030,-0.088136,0.978531
1487,-23.376822,4.333562,2.563516,0.104372,-0.077028,1.001602
1488,-27.283131,8.972305,3.540093,-0.005615,-0.037598,0.986221
1489,-33.508812,7.995727,2.380407,0.076417,-0.080201,1.017960
1490,-32.227054,11.474784,2.197299,0.037842,-0.060792,1.025895
1491,-37.903410,14.282444,2.380407,0.056397,-0.083742,1.004532
1492,-39.612421,16.906996,1.586938,0.042847,-0.095460,1.023331
1493,-38.269627,18.921187,2.258335,-0.036378,-0.113771,0.993912
1494,-33.875029,15.686275,0.671397,-0.132326,0.021241,1.010391
1495,-37.903410,8.667124,-15.686275,-0.084230,-0.072145,0.907973
1496,-31.433585,2.929732,-23.376822,-0.052125,-0.149172,1.061540
1497,-53.406577,3.173877,-27.283131,0.049561,-0.170291,0.875380
1498,-48.096437,2.624552,-20.141909,0.100587,-0.217166,1.044816
1499,-39.917601,-1.586938,-9.399557,0.055055,0.022583,0.903578
1500,-69.947356,6.652934,-18.310826,0.093751,0.220706,0.880507
1501,-115.785458,8.972305,-18.005646,0.019409,0.084718,0.912612
1502,-157.839323,1.831083,-6.530861,-0.251469,0.046876,0.861341
1503,-179.018845,-9.826810,-6.347753,-0.022095,0.315068,0.969253
1504,-268.925002,-21.362631,-27.344167,-0.226688,0.212161,1.429343
1505,-375.738155,-94.972152,-1.586938,-0.796521,-0.161624,1.113909
1506,-477.119097,-197.756924,21.728847,-0.363287,-0.171878,1.244648
1507,-517.402915,-227.115282,38.147555,0.067628,-0.228153,0.839734
1508,-542.122530,-231.876097,51.087205,0.262577,-0.432502,1.928618
1509,-533.211261,-176.760510,99.183642,-0.277958,-0.693736,1.999969
1510,-324.528878,-82.948043,60.120546,-0.237308,-0.278447,1.999969
1511,58.655680,19.165332,-9.460594,-0.234501,0.480842,1.999969
1512,166.079194,81.971466,-43.152514,-0.281865,0.610117,1.796536
1513,87.953002,57.129778,-14.953841,-0.443977,0.386603,0.825818
1514,37.354086,27.344167,9.033341,-0.309575,0.003174,0.384283
1515,96.925307,27.527276,5.676356,-0.198001,0.003784,0.214481
1516,101.686122,22.461280,1.403830,-0.058473,0.172976,0.137209
1517,68.360418,19.592584,-1.586938,0.001099,0.138674,0.461677
1518,87.037461,28.015564,-12.817578,-0.020142,0.137819,0.702647
1519,111.696040,33.081559,-22.461280,-0.094606,0.198856,0.785534
1520,117.677577,30.334936,-25.268940,-0.131716,0.179324,0.885756
1521,138.124666,31.494621,-28.503853,-0.083497,0.160403,0.988907
1522,156.496529,37.598230,-34.363317,0.012085,0.146242,1.143328
1523,170.229648,51.758602,-41.382467,0.055665,0.025513,1.257588
1524,193.301289,69.825284,-47.852293,-0.037720,-0.140627,1.243549
1525,212.893874,80.384527,-47.302968,-0.170779,-0.289555,1.174456
1526,224.490730,85.267414,-37.598230,-0.296269,-0.447395,1.201312
1527,236.942092,84.718090,-21.301595,-0.341436,-0.589975,1.187518
1528,252.567330,85.938811,-3.356985,-0.350835,-0.683482,1.201556
1529,260.868238,87.159533,17.212177,-0.351080,-0.740612,1.211933
1530,269.230182,88.746471,36.560616,-0.286625,-0.797986,1.185687
1531,274.479286,95.765621,53.467613,-0.144167,-0.828260,1.134417
1532,266.605631,105.531395,66.651408,0.013184,-0.886000,1.091814
1533,255.497063,114.198520,77.515831,0.147463,-0.991958,1.070695
1534,242.679484,117.677577,86.671244,0.288579,-1.063493,1.115618
1535,230.533303,111.085679,94.117647,0.439460,-1.067765,1.202533
1536,218.570230,98.329137,95.033188,0.693248,-1.149187,1.111711
1537,215.945678,77.393759,91.432059,0.932876,-1.000259,0.994278
1538,200.808728,49.073014,78.187228,1.011002,-0.870863,0.870863
1539,175.356680,16.418708,61.829557,0.995499,-0.859754,0.726207
1540,154.726482,-14.160372,44.129091,0.838148,-0.795178,0.730602
1541,128.664073,-39.246204,29.663539,0.631113,-0.851942,0.625254
1542,102.235447,-65.308614,17.761501,0.432136,-0.887221,0.551644
1543,75.806821,-85.572595,8.056764,0.210452,-0.889540,0.537362
1544,45.716030,-93.629358,1.892119,-0.036622,-0.888441,0.559335
1545,16.601816,-87.098497,-0.732433,-0.234257,-0.905898,0.633066
1546,-93.995575,-4.638743,-2.746624,-0.151980,-1.369284,-0.400031
1547,-165.285725,20.141909,17.334249,-1.514061,-2.000031,-1.304707
1548,-200.381476,-16.906996,70.374609,-1.154925,-2.000031,-0.901015
1549,-101.625086,-180.849928,120.912490,-0.247562,1.645289,1.999969
1550,-491.950866,-54.444190,-78.004120,1.999969,-2.000031,1.999969
1551,403.936828,144.472419,198.367285,0.941787,1.999969,-2.000031
1552,300.846876,109.987030,-246.280613,-0.516487,0.337163,1.999969
1553,28.686961,-7.202258,-5.188067,-1.556786,0.287602,-1.219501
1554,-274.113069,-88.075074,81.300069,0.699596,0.847181,0.687877
1555,-242.008087,-40.772107,53.650721,0.615366,-1.093278,1.501976
1556,43.884947,17.212177,-28.442817,-0.135866,-0.451179,1.709377
1557,45.471885,-0.427253,-10.742351,-0.189700,0.125490,0.528817
1558,-40.283818,-14.953841,4.760815,0.300175,0.095094,1.173480
1559,2.563516,6.225681,-2.136263,-0.075685,0.026123,0.950698
1560,-10.986496,-3.540093,-0.732433,-0.142092,0.085328,0.946426
1561,-13.061723,-9.216449,-1.342794,0.089845,0.005859,1.087297
1562,-0.732433,-1.159686,-2.319371,0.047852,0.038087,1.033707
1563,-7.873655,0.854505,0.000000,0.003784,0.020874,1.033341
1564,0.244144,3.418021,-0.305180,0.006714,0.054200,0.979995
1565,-3.418021,3.601129,-0.549325,-0.020264,0.089967,0.895033
1566,-11.963073,1.342794,-0.732433,-0.035889,0.065675,0.950088
1567,-13.855192,-0.976577,-0.732433,-0.024781,0.031128,0.995621
1568,-12.329290,-1.770047,-0.427253,-0.006592,0.010010,1.040421
1569,-8.545052,-1.159686,0.061036,-0.012818,0.013062,1.047623
1570,-4.211490,-0.976577,0.000000,-0.012818,0.026978,1.020035
1571,-4.028382,-1.220722,0.000000,-0.013062,0.031739,1.016251
1572,-2.136263,-1.342794,-0.305180,-0.014038,0.027832,1.010880
1573,-1.037613,-1.403830,-0.427253,-0.003906,0.034424,0.988663
1574,-1.281758,-1.525902,-0.549325,-0.005127,0.040284,0.990494
1575,-1.953155,-1.403830,-0.488289,-0.004150,0.039673,0.985245
1576,-2.929732,-1.342794,-0.427253,-0.000977,0.036988,0.994278
1577,-2.868696,-1.098650,-0.610361,-0.010132,0.038087,0.997452
1578,-3.051804,-1.220722,-0.732433,-0.000977,0.032349,1.008682
1579,-2.380407,-0.671397,-0.854505,0.003296,0.028931,1.009171
1580,-0.976577,-0.061036,-1.037613,0.000122,0.029664,1.012589
1581,-0.183108,0.183108,-1.037613,-0.003296,0.027222,1.018692
1582,0.976577,0.305180,-1.159686,-0.005005,0.025757,0.999649
1583,1.342794,0.000000,-0.915541,-0.003662,0.028687,1.000137
1584,1.281758,-0.183108,-0.610361,-0.001465,0.022461,1.020645
1585,3.662165,0.793469,-0.305180,-0.003540,0.036255,0.961685
1586,2.319371,1.037613,-0.183108,-0.007446,0.083497,0.944106
1587,-5.920500,-0.183108,0.061036,-0.016480,0.057374,0.956802
1588,-6.836042,0.000000,-0.305180,0.005127,0.032837,1.010636
1589,-5.737392,0.854505,-0.244144,-0.005127,0.021241,1.021012
1590,-4.699779,1.403830,0.061036,-0.000855,0.018433,1.024552
1591,-2.502480,2.075227,0.061036,-0.002686,0.022461,1.010636
1592,-2.014191,2.136263,0.000000,-0.006104,0.033448,1.003677
1593,-1.647974,1.953155,0.000000,-0.016724,0.025757,1.000870
1594,-1.098650,1.464866,0.000000,-0.016114,0.026001,1.004898
1595,-0.305180,1.037613,-0.122072,-0.015747,0.018799,0.998550
1596,0.122072,0.671397,-0.122072,-0.014527,0.025025,1.000137
1597,0.488289,0.671397,-0.122072,-0.006836,0.027832,0.991104
1598,0.366217,0.671397,0.061036,-0.008423,0.027832,0.989883
1599,0.000000,0.671397,0.183108,-0.009277,0.036011,0.980850
1600,-0.915541,0.610361,0.305180,-0.006226,0.035157,0.992325
1601,-0.976577,0.732433,0.244144,-0.011231,0.026612,0.999283
1602,-0.671397,0.915541,0.305180,-0.005127,0.027222,1.003555
1603,-0.427253,1.098650,0.244144,-0.009522,0.031861,1.005997
1604,0.305180,1.342794,0.061036,-0.004273,0.026123,1.003067
1605,0.549325,1.464866,0.000000,-0.001709,0.030640,1.008804
1606,0.793469,2.014191,0.000000,-0.002930,0.025269,1.009781
1607,2.014191,2.685588,0.061036,-0.013306,0.026734,1.014298
1608,2.380407,3.112840,0.244144,-0.010254,0.026612,1.004532
1609,3.112840,3.112840,0.366217,-0.024659,0.039429,0.982071
1610,2.990768,2.258335,0.122072,-0.034913,0.058106,0.936904
1611,-2.380407,0.427253,0.183108,-0.021851,0.048219,0.957778
1612,-3.540093,-0.671397,0.061036,-0.026001,0.037354,1.000992
1613,-3.234913,-0.793469,-0.122072,-0.011963,0.031861,1.004898
1614,-3.784237,-0.610361,0.000000,-0.008057,0.021729,1.013321
1615,-1.281758,-0.061036,0.000000,-0.008179,0.028809,1.010758
1616,-1.586938,0.122072,0.000000,-0.009522,0.029175,1.004654
1617,-0.671397,0.061036,-0.122072,-0.014893,0.024048,1.007706
1618,0.000000,0.122072,-0.122072,-0.011963,0.029297,1.003922
1619,0.183108,0.244144,-0.122072,-0.006470,0.026246,1.014664
1620,0.854505,0.549325,0.000000,-0.006592,0.026734,0.999405
1621,1.342794,0.915541,0.000000,-0.006714,0.030030,1.002579
1622,1.220722,1.342794,0.061036,-0.012940,0.033448,1.006363
1623,1.342794,1.403830,0.122072,-0.019165,0.030762,0.995621
1624,1.586938,1.403830,0.122072,-0.012573,0.038209,0.994766
1625,1.342794,1.098650,0.122072,-0.020020,0.039551,0.984878
1626,1.037613,0.732433,0.000000,-0.015747,0.039673,0.994888
1627,0.366217,0.305180,0.000000,-0.015869,0.033082,0.988907
1628,0.671397,0.122072,-0.122072,-0.014282,0.037354,0.999405
1629,0.732433,0.183108,0.000000,-0.009644,0.032593,0.998795
1630,0.915541,0.244144,0.000000,-0.014282,0.036500,1.001968
1631,1.342794,0.061036,0.000000,-0.016968,0.033814,0.992325
1632,1.403830,0.061036,-0.183108,-0.015503,0.034302,1.002823
1633,2.014191,0.061036,-0.183108,-0.013672,0.027588,1.007095
1634,2.502480,0.122072,-0.122072,-0.021241,0.047730,0.976089
1635,0.915541,-0.366217,0.000000,-0.023072,0.056153,0.956313
1636,-2.380407,-1.220722,0.122072,-0.012329,0.048951,0.985000
1637,-3.479057,-1.342794,0.000000,-0.020752,0.030884,0.993545
1638,-2.197299,-1.098650,0.000000,-0.007080,0.029541,1.000626
1639,-2.624552,-0.610361,0.122072,-0.010620,0.028199,1.008682
1640,-0.671397,-0.061036,0.000000,-0.005615,0.031983,1.008438
1641,-0.671397,0.122072,0.000000,-0.017212,0.036255,0.999039
1642,0.000000,0.305180,0.061036,-0.017212,0.035157,1.001724
1643,0.305180,0.366217,0.000000,-0.009277,0.033692,0.999161
1644,0.427253,0.488289,0.000000,-0.014893,0.029908,1.000626
1645,1.098650,0.671397,0.061036,-0.017456,0.032837,1.001114
1646,1.220722,0.854505,0.061036,-0.012818,0.034913,0.995499
1647,1.159686,0.671397,0.122072,-0.016846,0.037476,0.992569
1648,0.854505,0.427253,0.000000,-0.019409,0.039796,0.986709
1649,0.732433,0.244144,0.000000,-0.019409,0.044312,0.985489
1650,-0.061036,-0.183108,-0.122072,-0.026246,0.040040,0.979263
1651,-0.244144,-0.854505,0.000000,-0.027955,0.048707,0.980240
1652,-2.685588,-1.525902,0.000000,-0.022217,0.036744,0.995254
1653,-1.464866,-1.403830,0.000000,-0.020386,0.026734,1.004044
1654,-0.488289,-1.281758,0.000000,-0.014771,0.042115,0.999771
1655,-1.647974,-1.342794,0.000000,-0.020386,0.033814,0.999283
1656,-0.793469,-1.525902,0.000000,-0.019043,0.036988,0.992813
1657,-0.854505,-1.831083,0.183108,-0.020386,0.030518,0.991104
1658,-0.183108,-2.380407,0.183108,-0.027955,0.042725,0.986709
1659,-0.488289,-2.929732,-0.305180,-0.012573,0.056153,0.978408
1660,-3.662165,-2.868696,-0.183108,0.000244,0.040162,1.010147
1661,-3.173877,-1.586938,0.000000,-0.007446,0.017090,1.021134
1662,-0.183108,-0.732433,0.061036,-0.010010,0.034913,1.002213
1663,-0.732433,-0.549325,0.183108,-0.008911,0.044312,1.001968
1664,-1.037613,-0.061036,0.000000,-0.012573,0.029419,1.010147
1665,0.305180,0.488289,0.061036,-0.007691,0.024659,1.014298
1666,1.464866,0.854505,0.061036,-0.011353,0.036133,1.002945
1667,1.464866,0.976577,0.000000,-0.013794,0.043458,1.000992
1668,0.732433,1.342794,0.061036,-0.014771,0.043214,0.991958
1669,-0.061036,0.793469,0.061036,-0.028077,0.032959,1.002945
1670,0.854505,0.000000,0.244144,-0.025879,0.023682,0.996963
1671,2.380407,-0.915541,0.000000,-0.018921,0.035645,1.008560
1672,2.624552,-1.403830,0.000000,-0.017823,0.030518,1.013809
1673,4.821851,-1.709010,0.000000,-0.015503,0.029419,1.012222
1674,6.042573,-2.136263,-0.305180,-0.021851,0.046632,0.984634
1675,4.211490,-2.624552,-0.488289,-0.003540,0.049805,0.984268
1676,2.990768,-2.197299,-0.427253,0.003052,0.036988,1.016861
1677,4.211490,-0.732433,-0.427253,-0.002564,0.053468,0.992325
1678,2.868696,0.366217,-0.427253,-0.001343,0.057130,0.981704
1679,1.159686,1.342794,-0.244144,0.010498,0.041749,1.008560
1680,1.770047,2.929732,-0.183108,0.004028,0.036744,1.011124
1681,2.868696,4.028382,0.061036,-0.003906,0.032715,1.008804
1682,4.089418,4.760815,0.244144,-0.022827,0.044556,0.991714
1683,3.418021,3.784237,0.305180,-0.054932,0.060792,0.951797
1684,1.159686,0.732433,0.061036,-0.055299,0.068116,0.939467
1685,-1.647974,-2.502480,-0.366217,-0.044556,0.065675,0.945937
1686,-4.211490,-4.394598,-0.671397,-0.015015,0.046021,1.003189
1687,-2.929732,-4.272526,-0.854505,-0.014160,0.034058,1.024552
1688,-1.709010,-3.479057,-0.549325,-0.007324,0.032105,1.021500
1689,-0.061036,-2.014191,-0.183108,-0.000732,0.040162,1.012222
1690,-0.061036,-0.793469,0.305180,0.011231,0.024170,1.037247
1691,4.211490,1.342794,0.244144,0.015625,0.032715,1.032120
1692,6.042573,2.990768,0.183108,-0.011231,0.057862,0.978653
1693,2.075227,2.380407,0.732433,-0.036378,0.039185,0.996963
1694,5.371176,1.464866,0.427253,-0.042969,0.059815,0.951064
1695,2.868696,-0.854505,0.061036,-0.059205,0.080812,0.923842
1696,-3.784237,-4.089418,0.366217,-0.028687,0.038453,1.006973
1697,1.953155,-2.868696,-0.122072,0.009888,0.056031,1.010880
1698,-2.746624,-1.464866,0.732433,0.002808,0.035401,1.041764
1699,3.967346,-0.244144,0.244144,-0.033326,0.051637,0.946548
1700,-0.183108,-2.502480,0.183108,0.024659,0.046998,1.012589
1701,0.366217,0.488289,0.488289,0.048829,-0.000855,1.085588
1702,10.070954,5.493248,0.427253,-0.005005,0.040894,1.016617
1703,6.713970,5.615320,1.464866,-0.020752,0.046143,1.009903
1704,10.864424,5.676356,1.098650,-0.052369,0.060792,0.973770
1705,8.850233,2.990768,0.793469,-0.067262,0.092531,0.913344
1706,4.272526,-0.671397,0.122072,-0.037964,0.111452,0.894545
1707,-2.319371,-3.540093,-0.732433,-0.051759,0.093874,0.880995
1708,-9.826810,-7.019150,-0.366217,-0.019532,0.042481,1.021012
1709,-1.953155,-6.042573,-1.159686,0.023316,0.033448,1.027481
1710,-0.915541,-3.479057,-0.854505,0.045045,0.051392,1.024918
1711,-1.220722,-0.488289,-0.427253,-0.020508,0.027100,1.054704
1712,3.723201,0.793469,0.000000,0.002075,0.041993,1.033707
1713,5.493248,3.723201,0.000000,-0.006836,0.075563,0.984024
1714,0.061036,3.356985,0.793469,-0.043580,0.062867,0.966812
1715,1.037613,1.098650,0.427253,-0.053101,0.067750,0.948745
1716,0.183108,-2.136263,-0.244144,-0.048219,0.087282,0.927260
1717,-6.225681,-5.676356,-0.305180,-0.047730,0.058106,0.946548
1718,-3.356985,-6.958114,-0.793469,-0.031128,0.083742,0.947890
1719,-9.643702,-9.582666,-1.403830,-0.045777,0.073365,0.945205
1720,-11.718929,-11.841001,-1.831083,0.006958,0.045533,1.035904
1721,-8.606088,-10.376135,-2.319371,0.007568,0.042847,1.026993
1722,-8.422980,-8.728161,-1.647974,0.029908,0.022217,1.052628
1723,-3.845274,-4.760815,-0.732433,0.033082,0.024659,1.055924
1724,-0.366217,-1.403830,-0.244144,-0.001587,0.043702,1.013443
1725,-1.953155,-0.488289,0.549325,0.008423,0.044190,1.015274
1726,0.366217,0.305180,0.061036,-0.028687,0.057130,0.968276
1727,-1.770047,-2.014191,-0.183108,-0.016358,0.057130,0.974258
1728,-2.075227,-3.418021,-0.610361,-0.005982,0.032349,1.007706
1729,1.525902,-3.540093,-1.220722,-0.000610,0.057862,0.990860
1730,-1.464866,-3.295949,-0.854505,0.006714,0.062501,0.973648
1731,-2.441444,-2.929732,-1.159686,-0.010254,0.051148,1.011978
1732,-3.234913,-2.807660,-0.793469,0.023438,0.022339,1.048844
1733,1.709010,0.549325,-0.549325,0.017090,0.032959,1.051164
1734,2.502480,2.807660,0.305180,0.018189,0.046998,1.001358
1735,2.136263,4.943923,0.671397,-0.009766,0.056031,0.995499
1736,0.366217,4.882887,0.976577,-0.013062,0.044190,1.002701
1737,2.380407,5.065995,0.915541,-0.012818,0.050904,0.986221
1738,0.976577,3.906310,0.732433,-0.035767,0.056641,0.974136
1739,0.671397,1.586938,0.549325,-0.023316,0.043946,0.986587
1740,2.929732,0.732433,0.000000,-0.019654,0.056397,0.989029
1741,0.793469,-0.732433,0.122072,-0.016480,0.046754,0.977310
1742,2.990768,-1.220722,-0.427253,-0.013428,0.057252,0.983658
1743,0.854505,-2.075227,-0.366217,-0.012940,0.060304,0.983291
1744,1.159686,-1.770047,-0.366217,0.002564,0.058717,0.995377
1745,0.305180,-0.793469,-0.122072,-0.003296,0.049317,1.000626
1746,0.915541,-0.122072,0.000000,-0.001465,0.052125,0.999893
1747,0.732433,0.488289,0.061036,0.002808,0.059205,1.003189
1748,1.525902,1.464866,0.122072,-0.011231,0.060426,0.975845
1749,-0.793469,1.159686,0.061036,-0.010010,0.063111,0.981949
1750,-1.281758,1.281758,-0.122072,-0.011475,0.057740,0.987198
1751,-1.770047,1.037613,-0.183108,-0.011597,0.051514,0.999283
1752,-0.244144,1.281758,-0.366217,-0.008179,0.055787,0.999405
1753,-4.638743,2.685588,-2.197299,-0.028443,0.086183,0.944106
1754,-9.460594,-1.709010,0.549325,-0.019165,0.052491,1.023087
1755,-2.014191,-0.183108,-0.305180,0.005371,0.034180,1.048722
1756,2.685588,1.342794,-0.488289,-0.016480,0.073732,0.969741
1757,-4.699779,-0.244144,0.488289,-0.009522,0.031128,1.030777
1758,3.479057,1.464866,-0.122072,-0.009155,0.058228,0.986343
1759,-2.990768,0.427253,0.488289,-0.016236,0.059815,0.980850
1760,-1.709010,0.305180,0.061036,-0.020264,0.054688,0.971206
1761,-2.441444,-1.159686,-0.305180,-0.021118,0.059449,0.980117
1762,-4.394598,-2.136263,-0.305180,-0.010498,0.033936,1.017716
1763,0.366217,-1.220722,-0.427253,-0.009888,0.048585,0.995377
1764,-2.075227,-1.342794,-0.244144,-0.011963,0.057008,0.983169
1765,-3.112840,-1.464866,-0.183108,-0.009644,0.049439,1.004654
1766,-2.502480,-1.220722,0.000000,-0.003174,0.060548,0.984024
1767,-5.737392,-1.403830,0.183108,-0.011353,0.049561,0.990860
1768,-6.103609,-1.525902,0.061036,-0.008911,0.041138,0.995743
1769,4.516670,-1.953155,-0.366217,-0.039673,-0.047974,1.222309
1770,25.268940,1.892119,-2.197299,0.019898,0.111330,0.811780
1771,-16.296635,-3.540093,1.037613,0.004761,0.053712,0.991592
1772,3.540093,0.000000,-0.854505,-0.024659,0.034791,1.092668
1773,1.281758,-1.098650,-0.305180,0.004761,0.064820,0.919448
1774,-2.624552,-0.305180,-0.305180,-0.003784,0.043702,1.021134
1775,0.244144,0.061036,-0.244144,-0.018677,0.050538,0.996963
1776,-0.305180,-0.183108,0.000000,-0.004639,0.052369,0.978897
1777,0.000000,0.000000,0.000000,-0.045289,0.018799,1.026993
1778,11.841001,0.000000,-0.488289,-0.007202,0.051392,1.021744
1779,7.751583,-0.427253,0.366217,0.000977,0.071901,0.945571
1780,2.624552,-0.305180,0.183108,-0.006714,0.067506,1.002335
1781,0.061036,-0.671397,0.183108,-0.008301,0.061402,0.986465
1782,-2.014191,-0.793469,0.122072,-0.003784,0.060304,0.995499
1783,-4.882887,-1.037613,0.183108,-0.012818,0.059205,0.987808
1784,-4.943923,-1.037613,0.000000,-0.015015,0.054078,0.996597
1785,-4.394598,-1.403830,0.000000,-0.008179,0.058228,0.979995
1786,-4.516670,-1.220722,-0.488289,0.009400,0.049317,1.015518
1787,-3.051804,-1.709010,0.122072,-0.034058,0.043702,0.989639
1788,-1.464866,-2.136263,0.244144,-0.003052,0.049928,0.991836
1789,-0.061036,-1.647974,0.305180,-0.020874,0.051881,0.987930
1790,0.793469,-1.770047,0.915541,0.003296,0.048219,1.015030
1791,2.197299,-0.732433,0.549325,-0.000122,0.057862,0.996109
1792,0.305180,-0.549325,0.305180,-0.003784,0.057008,0.998062
1793,-0.366217,-0.488289,0.122072,-0.003418,0.055177,0.991836
1794,-2.319371,-0.610361,0.061036,-0.005005,0.057984,0.994034
1795,-3.601129,-0.488289,-0.122072,-0.016480,0.053223,0.995621
1796,-3.234913,-1.098650,0.000000,-0.028687,0.040406,0.993668
1797,-1.403830,-1.892119,0.732433,-0.008179,0.046998,0.992203
1798,1.281758,-1.953155,2.258335,-0.034424,0.022705,1.008927
1799,5.859464,-2.136263,5.432212,-0.000244,0.059083,0.993179
1800,5.615320,-1.342794,3.418021,0.030518,0.071778,0.996719
1801,2.990768,0.000000,0.854505,0.009033,0.039918,1.008316
1802,3.356985,0.366217,-0.122072,-0.013672,0.048585,1.002457
1803,4.455634,0.671397,-0.427253,0.001953,0.055299,1.002090
1804,4.699779,0.976577,-0.793469,-0.014893,0.061646,0.977188
1805,4.272526,0.427253,-0.793469,-0.014649,0.061769,0.985245
1806,2.441444,-0.793469,-0.305180,-0.021241,0.052369,0.992935
1807,4.333562,-1.220722,0.061036,-0.011719,0.050172,0.988907
1808,4.394598,-1.281758,1.098650,-0.023316,0.050416,0.982193
1809,1.831083,-1.892119,1.892119,-0.003296,0.073732,1.001358
1810,0.976577,-1.586938,1.403830,0.005005,0.067872,0.988174
1811,1.281758,-1.159686,0.671397,-0.003662,0.059571,0.993545
1812,2.502480,-1.342794,0.793469,-0.008423,0.054566,0.995254
1813,3.295949,-1.098650,0.976577,-0.002564,0.066896,0.979385
1814,1.647974,-1.037613,1.159686,-0.010010,0.060792,0.993057
1815,1.342794,-1.403830,1.892119,-0.018433,0.050660,0.991104
1816,2.319371,-1.159686,2.746624,-0.000122,0.063233,0.994400
1817,4.638743,-0.671397,2.563516,-0.006592,0.066041,1.001114
1818,3.051804,-1.220722,3.051804,-0.003540,0.076173,0.999161
1819,1.403830,-1.220722,2.685588,-0.004395,0.066041,0.991470
1820,1.709010,-1.403830,3.601129,-0.004761,0.072877,0.985611
1821,-1.342794,-1.464866,3.723201,0.015869,0.080323,0.985855
1822,-2.441444,-1.037613,1.831083,-0.001099,0.069093,0.999527
1823,-2.990768,-1.037613,1.586938,-0.009277,0.055665,0.989639
1824,-1.525902,-0.671397,1.892119,-0.005737,0.069825,0.983902
1825,-1.403830,-1.403830,2.014191,-0.003906,0.065919,1.004532
1826,0.366217,-0.854505,1.342794,0.008423,0.070192,1.004898
1827,0.793469,-0.183108,0.732433,0.010498,0.065919,0.997452
1828,1.525902,0.183108,-0.122072,-0.009155,0.063355,0.986709
1829,2.807660,-0.244144,0.366217,-0.016724,0.066285,0.990005
1830,1.281758,-0.793469,0.488289,0.006226,0.075563,0.995987
1831,-0.854505,-0.366217,0.183108,-0.009277,0.074952,0.981949
1832,-2.075227,-0.549325,0.183108,-0.013672,0.053346,1.001236
1833,-0.122072,-0.915541,0.366217,-0.004395,0.067018,0.995132
1834,-0.488289,-0.854505,0.549325,-0.001953,0.071046,0.990616
1835,0.061036,-0.366217,0.000000,0.002075,0.073365,0.985122
1836,-1.342794,-0.427253,-0.366217,0.009400,0.065064,0.993423
1837,-0.854505,0.305180,-0.854505,0.010132,0.068849,0.996963
1838,-2.136263,1.281758,-1.647974,0.000122,0.064088,0.987808
1839,-1.098650,-0.244144,-1.403830,0.014527,0.073121,0.985367
1840,-2.563516,1.159686,-2.807660,0.017212,0.075074,1.000748
1841,-2.075227,1.586938,-3.601129,-0.009766,0.062867,0.993179
1842,-0.427253,1.464866,-4.150454,-0.003540,0.073121,0.999527
1843,-0.061036,1.281758,-5.004959,-0.022339,0.066773,0.977310
1844,-0.061036,0.244144,-3.784237,-0.004028,0.064576,0.985245
1845,-1.220722,0.488289,-4.394598,-0.000366,0.067506,0.988907
1846,-0.915541,0.610361,-5.493248,-0.003296,0.059815,0.993179
1847,-1.464866,0.732433,-5.493248,0.008545,0.081300,0.992325
1848,-2.929732,1.159686,-7.446403,0.001465,0.076783,0.990860
1849,-2.136263,1.403830,-7.751583,-0.012207,0.041871,0.982315
