Packet number,Gyroscope X (deg/s),Gyroscope Y (deg/s),Gyroscope Z (deg/s),Accelerometer X (g),Accelerometer Y (g),Accelerometer Z (g)
0,-0.549325,0.122072,0.061036,0.002075,-0.005371,0.999893
4,-1.2207219999999999,-0.061036,0.061036,-0.0028079999999999997,-0.0021969999999999997,1.003433
8,-0.427253,0.122072,0.061036,0.008545,0.002441,0.9983059999999999
12,-0.793469,0.061036,0.122072,0.0,-0.0023190000000000003,1.002701
16,-1.159686,0.427253,-0.122072,-0.0051270000000000005,0.0037840000000000005,0.99855
20,-0.427253,0.48828900000000003,0.0,-0.0070799999999999995,0.003662,0.992569
24,-0.854505,0.30518,0.061036,0.00061,-0.000244,0.997574
28,-0.976577,0.0,0.122072,-0.001709,-0.004883,0.9953770000000001
32,-0.366217,-0.061036,0.061036,0.001953,0.005493,0.997086
36,-0.427253,0.122072,0.061036,0.001831,0.000244,1.000748
40,-0.549325,0.122072,0.122072,-0.000122,0.005371,1.002579
44,-0.244144,0.183108,0.122072,-0.003418,0.002686,0.995743
48,-0.6103609999999999,0.183108,0.061036,-0.000366,-0.000977,1.001236
52,0.122072,0.732433,0.122072,-0.000122,0.0063479999999999995,1.005875
56,-0.061036,0.244144,0.183108,0.003296,0.004883,0.995865
60,-0.732433,0.48828900000000003,0.122072,-0.0063479999999999995,0.0035399999999999997,0.997818
64,-0.244144,0.366217,0.061036,-0.000977,0.0037840000000000005,0.9948879999999999
68,-0.9155409999999999,0.183108,0.0,-0.004639,0.001709,1.0011139999999998
72,-2.014191,-0.183108,0.0,0.001709,0.009276999999999999,0.997208
76,-1.7700470000000001,0.061036,0.061036,-0.004761,-0.001099,1.000992
80,-0.976577,-0.061036,0.0,-0.002686,0.005982,0.9914700000000001
84,-1.40383,-0.366217,0.0,-0.001465,0.0,1.000137
88,-1.2207219999999999,-0.061036,0.0,0.000977,0.001465,0.994034
92,-1.159686,-0.061036,0.183108,-0.004883,-0.003052,1.00148
96,-0.976577,-0.671397,0.0,-0.008301000000000001,0.003052,1.002579
100,-0.9155409999999999,-0.793469,0.0,-0.0031739999999999997,-0.001465,0.9994049999999999
104,-1.09865,-0.732433,-0.122072,0.004639,0.007201999999999999,1.003433
108,1.647974,0.183108,-0.244144,-0.008301000000000001,0.0058590000000000005,0.980972
112,0.732433,-0.427253,0.183108,0.0094,0.009276999999999999,0.991958
116,2.80766,-0.793469,0.366217,0.018921,-0.000122,1.017105
120,3.173877,-0.732433,0.122072,0.017334,0.008179,1.02565
124,1.70901,-0.793469,0.244144,0.005005,0.006714,0.997452
128,1.70901,-0.30518,0.30518,-0.00293,0.015015,0.981949
132,-1.281758,-1.037613,0.183108,0.006104,0.010620000000000001,1.0008700000000001
136,0.122072,-0.671397,0.30518,0.0063479999999999995,0.013306,0.9942780000000001
140,0.427253,-0.183108,0.244144,0.012451,0.017578,1.005264
144,1.7700470000000001,0.854505,0.671397,0.0051270000000000005,0.008545,1.0036770000000002
148,1.09865,0.671397,0.30518,-0.005005,0.036622,0.9716950000000001
152,-4.760815,-1.586938,-0.183108,0.016236,0.007812999999999999,1.010391
156,5.493248,2.075227,0.793469,0.003662,0.018921,0.985
160,0.732433,1.2207219999999999,0.0,-0.006592,0.029907999999999997,0.9793850000000001
164,-3.967346,-0.793469,0.30518,0.006104,0.014159999999999999,1.0057530000000001
168,-0.183108,-0.854505,0.48828900000000003,-0.0094,0.038452999999999994,0.964736
172,-6.042573,-1.647974,0.366217,0.014649,0.013184,0.9830469999999999
176,-6.652933999999999,-0.976577,1.40383,0.008301000000000001,0.004883,1.010636
180,-6.775005999999999,-2.075227,0.793469,-0.008789,0.027955,0.964981
184,-8.911269,-4.21149,0.427253,0.015015,0.006958,1.008316
188,-14.770732999999998,-5.432212,0.854505,0.005615,0.004761,0.978042
192,-19.958801,-7.751583,1.464866,0.015625,-0.015991,1.001236
196,-18.860151000000002,-5.493248,1.525902,0.02002,-0.009888,0.9790190000000001
200,-27.405203000000004,-5.981537,2.014191,0.023438,-0.039673,0.978775
204,-22.1561,-0.549325,6.042573,0.0542,-0.039918,0.951675
208,-31.128404999999997,2.868696,4.394598,0.020752,-0.029297000000000004,0.9705959999999999
212,-43.457694000000004,4.638743,-0.366217,0.036378,-0.046876,0.91725
216,-60.791943,4.5166699999999995,-4.089418,0.018799,-0.195071,0.9979399999999999
220,-47.669184,7.751583,-3.6011290000000002,0.012818000000000001,-0.041871,0.949722
224,-168.64271000000002,18.616007,-2.4414439999999997,0.12878599999999998,0.135988,0.968032
228,-506.78263499999997,84.71809,-14.892805,0.425666,-0.12036300000000001,1.952667
232,-36.49958,19.592584,-45.593957,-0.8806290000000001,-0.668833,1.9999689999999999
236,70.55771700000001,-56.092164000000004,3.1128400000000003,0.5337,0.6358739999999999,0.611093
240,55.298694999999995,-7.751583,-83.92461999999999,-0.173587,0.457038,0.953994
244,146.36453799999998,-36.316472,-39.30724,-0.5282060000000001,0.24329,1.117082
248,189.70016,3.1128400000000003,6.469825,-0.365118,0.087648,0.9637600000000001
252,221.805142,15.320058,11.841001,0.145754,0.079591,1.192157
256,225.345235,37.048905,-6.591897,0.045655,-0.19409500000000002,1.157122
260,199.893187,29.724575,-12.756542,0.20923200000000003,-0.093385,1.929229
264,238.040742,33.69192,-46.32639,-0.015991,-0.423835,1.9194630000000001
268,250.85832000000002,30.334936,-22.766461,-0.080323,-0.5785,1.541772
272,203.860533,38.818952,-5.981537,-0.003052,-0.752941,1.162005
276,142.214084,25.513085,-20.019837,0.39966399999999996,-1.261616,1.191058
280,50.171664,52.246891,-50.659953,0.005493,-1.8874799999999998,0.020508000000000002
284,-262.516213,-159.12108,15.075914000000001,0.5629970000000001,-2.0000310000000003,0.23389000000000001
288,-237.369345,-75.379568,26.489662,-0.119997,-0.23047199999999998,0.303716
292,-85.08430600000001,-4.333562000000001,20.202945,-0.017823,-0.053223,1.1454030000000002
296,-30.151827,-69.642176,26.428626,0.46167700000000006,0.2262,1.9999689999999999
300,-58.533607999999994,-34.607462,3.540093,0.276982,-0.010986,1.277363
304,-27.527276,-11.779964999999999,-1.953155,0.09253099999999999,0.045533,1.124651
308,-20.019837,6.2867169999999994,1.70901,-0.005005,0.008301000000000001,1.036759
312,-14.526589000000001,6.408789,2.014191,-0.044433999999999994,-0.035644999999999996,0.995865
316,-7.01915,0.48828900000000003,0.671397,-0.021363,-0.008545,1.021012
320,-2.746624,-1.464866,0.427253,-0.037110000000000004,0.02356,0.97377
324,-6.469825,-4.394598,0.671397,-0.01294,-0.000122,0.962173
328,-8.667124000000001,-3.784237,0.549325,-0.006714,-0.024659,1.029801
332,-7.141222,-1.586938,0.732433,-0.004273,-0.039307,0.9107799999999999
336,-12.268253999999999,-5.188067,1.647974,-0.026001,-0.015381,0.9956209999999999
340,-21.667811,-9.948882000000001,0.30518,-0.014649,-0.002564,0.9354389999999999
344,-41.443503,-7.080186,1.40383,0.039796,0.002564,0.9557030000000001
348,-46.204318,1.586938,7.934691,0.034913,-0.128664,1.001724
352,-42.603189,0.244144,4.699779,-0.031006,-0.033936,0.992569
356,-74.464027,-6.897078,-10.803388,-0.012695999999999999,-0.21423699999999998,1.063859
360,-42.236973,-5.61532,-9.704738,0.024903,-0.134279,1.013687
364,-138.124666,-5.981537,-28.686961,0.157595,0.159304,0.689708
368,-686.350805,-31.433584999999997,-9.643702000000001,-0.258183,0.186282,1.3827120000000002
372,-264.10315099999997,-25.26894,62.867169999999994,-1.811795,-0.984512,1.9999689999999999
376,50.049592,-46.509499,81.91043,-0.215824,0.199344,0.35108
380,83.070115,2.685588,12.878614,0.21789899999999998,0.46497299999999997,0.928481
384,174.56321100000002,-23.132676999999997,-21.362631,-0.155764,0.40271599999999996,1.328756
388,267.277028,19.409476,-27.527276,-0.23608800000000002,-0.040162,1.100847
392,278.995956,8.178836,-13.183795000000002,0.03772,-0.149783,1.053361
396,238.406958,76.90547,-43.335622,0.065919,-0.382818,1.156268
400,233.829252,94.239719,-7.263294,-0.383307,-0.637827,1.9999689999999999
404,255.92431499999998,88.746471,43.335622,0.105959,-0.888075,1.9706110000000001
408,254.39841299999998,73.365377,27.893492,0.232425,-0.807874,1.772732
412,222.96482799999998,42.847333,-5.859464,0.199222,-1.128923,1.367453
416,143.49584199999998,74.464027,-61.585412,0.532357,-2.0000310000000003,0.48511499999999996
420,-57.49599499999999,-73.18226899999999,-12.695506,-0.038331,-1.786404,-0.032958999999999995
424,-135.317006,-135.62218700000003,30.823224,-1.012833,1.352926,1.9999689999999999
428,-340.154116,-85.450523,99.855039,1.540551,0.022827,1.9999689999999999
432,-184.878309,-8.606088,33.752956,-1.426658,-0.733288,1.9999689999999999
436,-59.327077,-10.803388,11.718929,-0.753429,-0.05139199999999999,1.141497
440,-15.075914000000001,-20.019837,-0.549325,0.047608,-0.039185000000000005,1.046525
444,-6.469825,-0.061036,4.577707,0.09033300000000001,0.054810000000000005,1.038468
448,-10.986496,7.446403,4.882887,0.0058590000000000005,0.016968,0.961685
452,-26.062409,-0.061036,2.014191,-0.004517,-0.009522,1.026505
456,-20.569162,-0.061036,2.136263,0.025757,-0.013428,0.991226
460,-25.574120999999998,0.9155409999999999,0.366217,0.009276999999999999,-0.015503,0.963149
464,-34.912642,5.61532,-1.953155,-0.017823,-0.089601,1.032853
468,-20.935378,6.408789,1.525902,0.010742,-0.110475,1.019303
472,-19.65362,3.295949,1.70901,0.001831,-0.084596,1.003311
476,-28.686961,1.70901,1.159686,-0.023194,-0.086549,0.972305
480,-33.508812,1.525902,3.6621650000000003,-0.021851,-0.10656900000000001,0.976699
484,-49.195087,-1.586938,4.577707,0.000488,-0.188602,1.0788739999999999
488,-32.593271,-1.2207219999999999,-2.2583349999999998,-0.061279999999999994,-0.133913,1.006241
492,-21.911955,-9.399557000000001,-10.559242999999999,0.07800399999999999,-0.254398,1.087053
496,-15.503166,4.089418,1.40383,0.081666,-0.073854,0.980606
500,-155.764096,-7.385367,-36.621653,-0.034668,0.055909,0.666636
504,-787.792783,-54.13901,-4.760815,0.11877599999999999,-0.228397,1.507469
508,241.886015,-18.493935,-80.872816,-0.346929,0.356085,1.9999689999999999
512,150.514992,-32.593271,13.672084,-0.240848,0.2262,0.670665
516,148.439765,-5.7984279999999995,0.48828900000000003,-0.138674,0.363043,0.905531
520,216.73914700000003,-21.789883,-4.760815,-0.21252800000000002,0.241215,0.9084610000000001
524,262.882429,10.070953999999999,4.577707,-0.386236,-0.06836,1.486839
528,311.833371,50.965133,21.362631,-0.088746,-0.463996,0.839368
532,236.881056,50.415808,-6.225681,0.36609400000000003,-0.303349,1.34902
536,277.409018,50.110628000000005,-55.420768,0.197391,-0.6837260000000001,1.86685
540,263.309682,60.914015,-45.349813,-0.204715,-0.8524299999999999,1.9999689999999999
544,240.48218500000002,73.12123299999999,-32.471199,0.203372,-0.877333,1.600366
548,192.20264,77.759976,-37.476158,0.14721900000000002,-1.4848860000000002,0.9990389999999999
552,77.210651,83.61944,-24.719615,0.46826899999999994,-2.0000310000000003,-0.205325
556,-68.787671,-92.530709,9.155413000000001,0.130129,-0.9028459999999999,1.3038530000000002
560,-81.78835699999999,-36.49958,56.153201,-0.7204699999999999,1.119524,1.654078
564,-367.254139,-62.806134,56.153201,1.9999689999999999,-0.305669,1.9999689999999999
568,-80.079347,-104.921035,57.679103000000005,-0.8072630000000001,-0.45972399999999997,0.8966200000000001
572,-66.102083,-55.664912,5.7984279999999995,-0.011475,-0.046143,0.9788969999999999
576,-6.71397,-10.498207,-4.089418,0.23193699999999998,0.080323,1.0954760000000001
580,-18.860151000000002,17.822538,2.563516,0.026368,0.003052,1.033097
584,-10.437171000000001,17.578393,4.272526,-0.028321,0.041749,0.9476459999999999
588,-10.070953999999999,5.371176,3.356985,-0.027587999999999998,0.014405000000000001,0.964736
592,-11.718929,-7.080186,1.40383,-0.024537,0.006226,0.9758450000000001
596,-19.34844,-10.254063,2.197299,0.005493,-0.019165,0.918715
600,-18.982223,-12.878614,1.09865,0.015137000000000001,0.020996,1.090959
604,-18.860151000000002,-8.361944,-0.122072,0.023072,-0.041016000000000004,1.032609
608,-17.517357,-5.493248,0.183108,0.013428,-0.030762,0.989517
612,-24.536507,-6.2867169999999994,-1.7700470000000001,0.041138,-0.05774,1.011124
616,-18.738079,-4.455634,0.366217,0.000732,-0.05005,0.961074
620,-57.984283,2.075227,6.836042,0.020142,-0.105592,0.966934
624,-67.383841,8.178836,9.277485,0.0271,-0.134157,0.918715
628,-32.410163,-5.432212,-15.686275,0.010864,-0.173709,1.026261
632,-38.025483,3.540093,-8.056764,0.105226,0.182498,0.9149309999999999
636,-320.378424,-41.626612,-9.033341,-0.11926500000000001,0.83534,1.207904
640,-873.060197,-150.148775,37.90341,0.18298599999999998,-0.102174,0.972305
644,349.00434900000005,34.546426000000004,-83.741512,-0.235233,1.2152290000000001,1.649805
648,125.246052,-18.860151000000002,22.705425,-0.219608,0.47778999999999994,0.072755
652,112.79468999999999,12.939651,-0.122072,-0.185916,0.48963100000000004,1.169574
656,212.222477,14.282444,10.193027,-0.268925,0.10144199999999999,0.997208
660,259.037156,49.744411,19.65362,0.009033,-0.11548,1.105486
664,272.40405899999996,41.931792,-21.240558,0.505257,-0.280034,1.246357
668,263.431754,35.88922,-47.42504,-0.06640700000000001,-0.494148,1.719509
672,270.51194,60.730906999999995,-17.395285,-0.06482,-0.598398,1.9361869999999999
676,255.863279,45.288777,-10.864424,0.348394,-0.572763,1.578149
680,219.05851800000002,32.166018,-47.486076000000004,0.16907,-0.634409,1.76321
684,158.022431,82.581827,-99.732967,0.606943,-1.719875,1.106096
688,70.618753,99.24467800000001,-70.313573,-0.125612,-2.0000310000000003,-0.542367
692,-258.18265099999996,-282.475013,56.275273,0.5544520000000001,-1.08925,0.857801
696,-272.64820299999997,-126.58884599999999,81.605249,0.890272,-0.493904,-0.154055
700,-87.586786,11.535821,-15.625238000000001,-0.756603,-0.266361,1.216449
704,-29.846646999999997,-16.906996,0.732433,0.7900510000000001,0.0448,1.422385
708,-47.364004,-0.244144,3.418021,-0.343511,-0.05712999999999999,1.200336
712,-12.878614,-7.01915,1.8921189999999999,0.076051,0.011963,1.012589
716,-15.320058,4.638743,4.455634,0.028443,-0.007691,1.02565
720,-16.540779999999998,2.80766,3.356985,0.026856,-0.032105,1.022843
724,-10.925460000000001,-1.70901,2.014191,0.01709,-0.036744,1.036027
728,-7.629511,-3.356985,0.732433,-0.0031739999999999997,-0.004517,0.968643
732,-9.704738,-4.882887,0.793469,0.014771000000000001,-0.020996,0.9826809999999999
736,-16.479744,-7.385367,-0.854505,0.028443,-0.035157,0.980606
740,-24.231327,-4.5166699999999995,0.0,0.044677999999999995,-0.053223,0.983658
744,-27.832456,-3.295949,-0.732433,0.034058,-0.076661,0.993301
748,-33.203632,-0.48828900000000003,-0.244144,0.009644,-0.044068,0.9542379999999999
752,-65.06446899999999,7.9957270000000005,2.868696,0.019776,-0.102907,0.9945219999999999
756,-44.800488,13.672084,10.498207,-0.010620000000000001,-0.18823499999999999,1.006729
760,-35.339895,2.685588,-6.71397,-0.045288999999999996,-0.235843,0.996719
764,-14.892805,0.427253,1.40383,0.055299,-0.135134,1.040665
768,-60.914015,8.239872,-17.395285,-0.021363,0.327764,0.797131
772,-580.4531929999999,-42.725260999999996,27.893492,-0.16968,0.340826,1.250385
776,-989.39498,-104.066529,104.859998,0.680674,-2.0000310000000003,1.9999689999999999
780,106.752117,-88.441291,-41.626612,-0.56434,0.8719620000000001,1.140032
784,75.074388,-54.44419,-16.174563,-0.11523599999999999,0.35657300000000003,0.521614
788,178.957809,-19.409476,-26.245518,-0.46338599999999996,0.298711,1.301289
792,244.632639,26.428626,-4.577707,-0.529305,-0.043213999999999995,0.9392229999999999
796,267.09391899999997,67.07866,26.550697999999997,0.035523,-0.096193,1.228168
800,262.821393,89.051652,-1.525902,0.49817700000000004,-0.363775,1.362203
804,204.226749,63.477531000000006,-47.180896000000004,0.401984,-0.405158,1.636622
808,231.143664,80.872816,-50.049592,-0.191531,-0.763439,1.993439
812,254.64255699999998,51.514458000000005,-13.061722999999999,0.1991,-0.715953,1.8661169999999998
816,225.10109100000003,77.515831,-49.988556,0.363043,-0.802136,1.474266
820,157.289998,72.3888,-33.508812,0.017823,-1.5912110000000002,0.759899
824,41.80972,48.706798,34.485389,-0.005615,-1.9139700000000002,0.211917
828,-54.871443000000006,-83.92461999999999,72.755016,0.822522,-0.370733,1.151873
832,-99.916075,-98.75639,-20.813306,0.07849199999999999,0.7600210000000001,1.9194630000000001
836,-276.859693,-32.837415,19.775692000000003,0.602304,-0.605966,1.9999689999999999
840,-115.053025,-53.589684999999996,52.124819,-0.347173,-0.220829,1.090837
844,-63.965819999999994,-53.77279300000001,10.070953999999999,0.058717,0.190555,1.173846
848,-40.283818,-11.841001,0.122072,0.136721,-0.08716,1.1497979999999999
852,-18.677042999999998,4.333562000000001,3.051804,0.006836,0.006226,1.029191
856,-15.13695,5.065995,2.990768,-0.009033,0.012329000000000001,1.001846
860,-16.296635000000002,2.4414439999999997,3.1128400000000003,-0.056641,0.185306,1.454124
864,-13.672084,-3.1128400000000003,2.929732,-0.032958999999999995,-0.000977,1.0080719999999999
868,-14.831769,-7.446403,2.014191,-0.02002,-0.009888,0.970352
872,-12.817578,-8.056764,1.40383,0.02356,-0.010742,1.01857
876,-13.183795000000002,-7.934691,1.40383,0.019532,-0.026001,1.0215
880,-15.320058,-6.164645,0.48828900000000003,0.009644,-0.049439,1.014908
884,-14.221407999999998,-3.173877,1.2207219999999999,0.019898,-0.054932,0.9410540000000001
888,-38.269627,-1.70901,5.127031,-0.005249,-0.059937,0.964981
892,-51.819638,1.037613,7.385367,0.072999,-0.121584,1.105852
896,-50.598917,10.315099,5.7984279999999995,-0.08777,-0.161379,1.171283
900,-49.744411,-1.09865,-5.859464,0.041627,-0.218509,0.9952540000000001
904,-34.302281,0.0,-2.50248,-0.000122,-0.105715,0.950332
908,-137.75845,-1.586938,-32.654307,0.16894800000000001,0.16931400000000002,0.706676
912,-864.576181,-23.071641,19.226368,0.424201,-0.391852,1.499657
916,373.296712,-13.061722999999999,-75.44060400000001,-0.064454,0.708873,1.9999689999999999
920,33.875029,-13.672084,6.469825,-0.022461000000000002,0.33411199999999996,0.514778
924,95.155261,-8.972305,-26.733806,0.019776,0.664439,0.977798
928,199.404898,-7.507439,-36.316472,-0.12903,0.333135,1.07277
932,242.252232,2.990768,-28.809033000000003,-0.106081,0.11120799999999999,0.892592
936,278.507668,31.189441,-33.936065,-0.037476,-0.116823,1.085588
940,250.125887,57.434957999999995,-20.508125,-0.056275,-0.18396300000000002,1.66067
944,286.381323,60.18158199999999,-5.371176,-0.055299,-0.322515,1.9999689999999999
948,281.74258,67.322805,1.342794,-0.012451,-0.621225,1.9999689999999999
952,284.24506,75.013352,-24.597542999999998,0.45191099999999995,-0.8410770000000001,1.8653849999999998
956,150.6981,71.656367,-49.561303,0.495857,-2.0000310000000003,1.0036770000000002
960,16.113526999999998,33.508812,-12.207218,-0.45728199999999997,-2.0000310000000003,-1.097917
964,-158.266575,-117.43343300000001,56.702525,-0.544076,0.282475,1.9999689999999999
968,-367.315175,-75.928893,70.98496999999999,1.7221939999999998,-0.276371,1.9999689999999999
972,-189.150835,3.356985,27.466239,-2.0000310000000003,-0.521004,1.9999689999999999
976,-14.770732999999998,27.649348,14.648660999999999,-1.365133,0.157595,0.8298469999999999
980,-22.888533,-19.65362,2.868696,-0.138918,-0.10009900000000001,1.159442
984,-6.652933999999999,-8.545052,0.793469,0.103273,0.102296,0.936416
988,-18.616007,2.50248,2.990768,0.042725,-0.012085,1.038712
992,-16.357671,0.732433,2.4414439999999997,0.005982,-0.001465,0.9959870000000001
996,-19.165332,-4.21149,0.549325,0.032593000000000004,-0.049194999999999996,0.980972
1000,-23.315785,-4.760815,-0.122072,0.028931000000000002,-0.030639999999999997,1.019547
1004,-24.536507,-4.272526,-0.732433,0.031983,-0.017212,0.9749899999999999
1008,-31.128404999999997,-3.234913,-0.366217,0.043946,-0.077638,1.001602
1012,-24.780652,2.624552,3.234913,0.041016000000000004,-0.074586,1.0121
1016,-27.588312,1.647974,1.037613,0.02417,-0.07019199999999999,0.980972
1020,-43.640803000000005,8.42298,4.577707,0.025757,-0.040772,1.015152
1024,-40.466926,12.32929,8.850233,0.045777,-0.18701500000000001,1.055558
1028,-28.259709,-0.30518,-7.629511,0.010620000000000001,-0.25037,1.014298
1032,-18.738079,0.427253,-1.8310830000000002,0.067506,-0.17663800000000002,1.0477450000000001
1036,-45.471885,7.9957270000000005,-17.273213000000002,0.023438,0.321294,0.74464
1040,-506.29434699999996,-32.715343,-16.601816,-0.08569500000000001,0.490486,1.918975
1044,-938.612955,-69.58114,110.29221000000001,0.559701,-2.0000310000000003,1.9999689999999999
1048,105.958648,-21.423667000000002,-35.88922,-0.510506,0.936416,0.263676
1052,34.729534,-12.878614,-3.845274,0.026368,0.459846,0.680064
1056,150.514992,-18.860151000000002,-10.681315,-0.323857,0.329961,1.167376
1060,212.77180099999998,39.00206,-0.427253,-0.190066,0.056275,0.9275040000000001
1064,243.106737,31.067369,22.766461,0.084108,-0.041016000000000004,1.141375
1068,276.371405,37.59823,-4.943923000000001,0.315312,-0.174807,1.39675
1072,256.35156800000004,59.815366000000004,-22.46128,0.126345,-0.390875,1.175555
1076,249.088273,30.884259999999998,-26.916915000000003,0.261357,-0.338994,1.9999689999999999
1080,283.512627,51.941711,-55.115587,0.026489999999999996,-0.650401,1.8093540000000001
1084,222.96482799999998,82.398718,-57.557031,0.228275,-0.944839,1.5793700000000002
1088,116.700999,131.471733,-67.139696,0.57789,-2.0000310000000003,1.174823
1092,-84.657053,-67.017624,49.92752,-0.101564,-1.759426,-0.317632
1096,-223.57518900000002,-137.453269,65.735866,-0.25708400000000003,-0.274418,1.1192799999999998
1100,-324.65095,-69.153887,59.63225799999999,1.738674,-0.291142,1.9999689999999999
1104,-175.47875200000001,-33.630884,33.020523,-2.0000310000000003,-0.825818,1.894682
1108,-47.852292999999996,4.394598,14.404517000000002,-1.240009,0.08691499999999999,0.93666
1112,-13.244831,-29.236286,-1.342794,-0.002686,-0.001465,1.106584
1116,-12.085144999999999,-8.545052,1.8310830000000002,0.110475,0.055787,0.973526
1120,-15.808347,1.281758,3.540093,0.055665,-0.022705,1.0486
1124,-15.075914000000001,-2.075227,1.342794,0.045045,-0.002075,0.984512
1128,-13.855192,-0.30518,2.075227,0.047242,-0.017823,1.008316
1132,-21.972992,-0.183108,0.793469,0.037110000000000004,-0.01001,0.961807
1136,-27.710384,0.671397,0.854505,0.040772,-0.069459,1.017838
1140,-20.996414,7.751583,2.4414439999999997,0.052003,-0.08618300000000001,1.018692
1144,-15.259022,4.272526,2.319371,0.038087,-0.07715,0.997452
1148,-19.287404000000002,5.188067,2.136263,0.041749,-0.10388299999999999,1.0042879999999998
1152,-24.902724,5.432212,2.685588,0.032105,-0.089601,0.975723
1156,-36.438544,6.652933999999999,4.455634,0.014282,-0.098146,0.95021
1160,-46.448463000000004,10.803388,10.193027,-0.000977,-0.16858199999999998,1.005264
1164,-38.025483,-0.854505,-9.82681,0.030518,-0.242191,1.014176
1168,-18.921187,-0.6103609999999999,-3.295949,-0.022216999999999997,-0.120974,0.9817040000000001
1172,-74.586099,6.775005999999999,-10.498207,0.000488,0.446906,0.690929
1176,-665.598535,-11.413748,45.838102,-0.357794,0.49951899999999994,1.47512
1180,-724.071107,-5.065995,168.764782,-0.7898069999999999,-1.377584,1.9999689999999999
1184,-25.391012,-56.94667,-4.333562000000001,-0.082277,0.36694899999999997,0.23071599999999998
1188,37.537194,-12.32929,-29.968719,-0.058595,0.411627,0.870375
1192,183.65758799999998,-52.491035,-20.630198,-0.455451,0.363653,1.525292
1196,260.563058,20.752270000000003,9.82681,-0.43653000000000003,-0.174197,0.677134
1200,249.027237,30.518044,31.250477000000004,0.107912,-0.194339,1.150774
1204,279.056992,48.340581,-21.301595000000002,0.462898,-0.387701,1.680323
1208,283.634699,44.92256,-26.123445,-0.24243499999999998,-0.7744260000000001,1.348775
1212,216.67811099999997,42.1149,-3.356985,-0.100832,-0.489509,1.511742
1216,230.716411,44.373236,-9.765774,0.169558,-0.396368,1.9421680000000001
1220,213.504234,64.209964,-52.979324,0.353643,-0.5706869999999999,1.6189209999999998
1224,130.861372,85.450523,-91.126879,0.19324000000000002,-2.0000310000000003,1.353048
1228,54.810407,51.514458000000005,4.089418,-0.017945,-2.0000310000000003,-1.259785
1232,-144.71656399999998,-126.71091799999999,13.611048,-0.12780999999999998,0.724254,1.9999689999999999
1236,-350.71335899999997,-90.02822900000001,80.018311,0.7495229999999999,-0.385992,1.9999689999999999
1240,-190.371557,50.354772,23.743038000000002,-1.364279,0.158328,1.9999689999999999
1244,-12.146181,34.302281,6.347753,-0.419318,0.14257999999999998,0.8213020000000001
1248,-34.119172999999996,-2.50248,2.929732,-0.374029,-0.039429,0.9240860000000001
1252,-8.911269,-7.568475,2.685588,0.060303999999999996,0.030151999999999998,1.081071
1256,-11.718929,1.953155,2.136263,-0.002075,0.02356,1.011368
1260,-14.160372,-0.366217,2.2583349999999998,-0.036988,0.035644999999999996,0.960952
1264,-19.104295,-9.033341,0.9155409999999999,-0.027222000000000003,-0.000732,1.036759
1268,-19.409476,-5.9205,1.525902,-0.012329000000000001,-0.031983,0.9553370000000001
1272,-13.305867000000001,-4.577707,1.7700470000000001,-0.012329000000000001,-0.02295,1.01735
1276,-13.122759,-6.897078,1.342794,-0.0074459999999999995,-0.0070799999999999995,0.9897610000000001
1280,-13.672084,-6.408789,2.136263,-0.02002,-0.018677000000000003,0.964126
1284,-15.075914000000001,-4.5166699999999995,1.342794,0.001709,-0.015747,0.9979399999999999
1288,-32.959487,-2.990768,2.50248,0.015503,-0.044312,0.9959870000000001
1292,-46.509499,-0.30518,4.943923000000001,-0.009766,-0.048463,0.9831690000000001
1296,-48.035401,2.2583349999999998,7.141222,0.022827,-0.139895,0.969009
1300,-75.44060400000001,4.21149,1.8310830000000002,-0.094606,-0.133913,1.159686
1304,-31.738766,-4.21149,-6.836042,0.0365,-0.214725,1.117693
1308,-34.485389,4.943923000000001,-10.193027,-0.037842,0.366217,0.8684209999999999
1312,-473.579004,3.356985,-28.0766,0.24585300000000002,1.084001,1.59646
1316,-951.979858,-3.6621650000000003,96.49805400000001,-0.57496,-2.0000310000000003,1.9999689999999999
1320,14.0383,-89.295796,22.583351999999998,-0.392828,0.905409,1.9999689999999999
1324,80.262455,4.882887,4.394598,0.401862,0.5299149999999999,0.729137
1328,142.27512,-27.771420000000003,-18.066682,-0.08691499999999999,0.26746,0.778332
1332,227.054246,-30.762188000000002,-25.146867999999998,-0.100954,0.191897,1.289693
1336,277.653162,4.8218510000000006,-15.747310999999998,-0.24438800000000002,-0.084108,1.113787
1340,325.13923900000003,12.085144999999999,-22.705425,0.281498,-0.348882,0.933486
1344,225.833524,35.034714,-65.125505,0.09668099999999999,-0.325933,1.569116
1348,273.56374500000004,68.055238,-51.880674,-0.29749000000000003,-0.638437,1.9999689999999999
1352,339.848936,66.65140799999999,-24.597542999999998,0.26099,-0.8802620000000001,1.7879909999999999
1356,256.961929,67.139696,-57.007706000000006,0.303105,-1.1975280000000001,1.720119
1360,89.17372399999999,123.53704099999999,-81.849393,0.791028,-2.0000310000000003,0.339971
1364,-136.781872,-124.269474,21.972992,-0.484016,-2.0000310000000003,-2.0000310000000003
1368,-142.458228,-95.094224,67.322805,-0.472786,0.812634,0.333013
1372,-300.84687599999995,-63.355458999999996,60.608835,1.143572,-0.310185,1.9999689999999999
1376,-149.111162,-58.167391,54.322118,-0.646983,-0.071778,1.892729
1380,-79.89623900000001,-15.442129999999999,11.047532,-0.566537,0.099733,1.0992600000000001
1384,-21.972992,-15.991454999999998,-0.793469,-0.000366,0.036255,1.039811
1388,-23.254749,-2.563516,3.784237,0.074464,0.0023190000000000003,1.028214
1392,-18.005646,-1.8921189999999999,3.1128400000000003,0.030396,-0.001221,1.022477
1396,-17.883574,-0.6103609999999999,2.563516,0.023681999999999998,0.0035399999999999997,0.977554
1400,-16.540779999999998,-2.563516,1.037613,0.019287000000000002,-0.011719,0.979507
1404,-17.334249,-5.249104,-0.427253,0.030274000000000002,-0.054565999999999996,1.026749
1408,-10.254063,-3.6011290000000002,-0.30518,0.033326,-0.043946,1.012833
1412,-16.968032,-4.882887,-0.9155409999999999,0.048463,-0.054077999999999994,1.0040440000000002
1416,-14.587625,-3.540093,0.854505,0.060182000000000006,-0.07800399999999999,1.014176
1420,-15.075914000000001,1.281758,1.40383,0.062013,-0.05835,0.9851219999999999
1424,-29.602502,1.8310830000000002,1.586938,0.040894,-0.067018,0.9719389999999999
1428,-44.983596999999996,9.460594,5.249104,0.003906,-0.069703,0.997452
1432,-56.885633999999996,14.343481,12.085144999999999,0.025391,-0.126345,1.030167
1436,-48.279545,5.737392,-4.150454,-0.046632,-0.19617,0.996353
1440,-23.926146,4.5166699999999995,2.380407,0.138674,-0.137209,1.07985
1444,-132.692454,12.207218,-25.452049,-0.163577,0.193851,0.52845
1448,-669.199664,-165.712978,45.227740999999995,-0.14905,-0.22180500000000003,1.929961
1452,-440.61951600000003,-40.833143,158.754864,-0.582284,0.024291999999999998,1.9999689999999999
1456,-21.301595000000002,-28.259709,8.056764,-0.546517,0.23450100000000001,0.674205
1460,78.61448100000001,10.864424,11.963073,-0.154543,0.19409500000000002,0.992447
1464,200.686656,18.860151000000002,2.685588,-0.076295,0.214969,1.034928
1468,256.839857,45.532921,-5.3101400000000005,-0.04358,-0.076905,1.058366
1472,276.920729,55.786984,-9.765774,0.46204300000000004,-0.196902,1.301534
1476,289.677272,38.818952,-60.852979000000005,0.43201300000000004,-0.5659270000000001,1.4813459999999998
1480,266.605631,37.109941,-51.087205,-0.18323,-0.651621,1.5671629999999999
1484,239.200427,73.18226899999999,-19.226368,-0.017456,-0.5872890000000001,1.8522009999999998
1488,221.92721400000002,78.370336,-15.991454999999998,0.183841,-0.62562,1.572168
1492,175.173571,69.153887,-19.226368,0.188968,-1.120256,1.383932
1496,87.220569,102.662699,-36.743725,0.388067,-2.0000310000000003,0.628305
1500,-38.879988,-77.271687,30.212863,0.176761,-1.853788,-1.348531
1504,-154.421302,-83.863584,28.747996999999998,-0.588266,1.275166,1.9999689999999999
1508,-279.301137,-44.861523999999996,69.88632,1.2213319999999999,-0.084352,1.9999689999999999
1512,-170.534829,-14.709697,36.377508,-1.354147,-0.5684899999999999,1.685084
1516,-82.093538,-13.061722999999999,15.869383,-0.7307239999999999,-0.012695999999999999,0.8061649999999999
1520,-40.527962,-30.395971999999997,-2.929732,0.148318,-0.040894,1.116472
1524,-31.250477000000004,-7.263294,3.234913,0.08215499999999999,-0.042359,1.0466469999999999
1528,-16.113526999999998,-0.061036,2.746624,0.048585,-0.014527000000000002,1.00734
1532,-20.080873,5.3101400000000005,2.075227,0.018067,-0.072267,1.037125
1536,-14.465553,5.0049589999999995,2.2583349999999998,-0.029907999999999997,-0.055299,1.0804610000000001
1540,-24.109254999999997,3.173877,1.159686,0.020263999999999997,-0.06421,1.014664
1544,-16.479744,2.2583349999999998,1.525902,0.009033,-0.102052,1.025406
1548,-8.545052,-2.197299,-0.122072,0.0037840000000000005,-0.083131,0.980484
1552,-12.024109,-0.6103609999999999,0.549325,0.027466,-0.106081,1.014176
1556,-9.338521,1.953155,1.70901,0.014893,-0.10192999999999999,0.9896389999999999
1560,-9.277485,0.122072,1.09865,-0.000732,-0.107301,0.992691
1564,-15.13695,1.342794,-0.48828900000000003,0.034058,-0.153445,1.024674
1568,-9.399557000000001,5.432212,5.249104,0.006592,-0.098024,0.977066
1572,-26.123445,1.40383,2.014191,-0.009888,-0.086427,0.9751129999999999
1576,-35.767146999999994,3.967346,2.4414439999999997,0.022583000000000002,-0.187137,0.9983059999999999
1580,-27.100022999999997,8.239872,3.479057,0.001343,-0.18616,0.989883
1584,-16.601816,-2.075227,-9.277485,0.016236,-0.177127,1.025528
1588,-52.613108,-0.732433,-14.465553,0.040406,-0.010864,0.921767
1592,-277.653162,-6.897078,-37.476158,-0.065675,0.327153,1.140764
1596,-592.172122,-93.507286,42.359045,-0.156497,-0.250004,0.913588
1600,213.26009,-54.749371,-28.381781,0.060792,0.749035,1.9999689999999999
1604,110.414282,28.259709,-7.080186,-0.05005,0.004883,-0.07800399999999999
1608,90.150301,-35.461967,-7.812619000000001,-0.126101,0.104372,0.8960100000000001
1612,154.787518,19.958801,-15.075914000000001,-0.316777,-0.279667,0.77467
1616,216.06775,48.767834,2.990768,-0.096559,-0.473152,0.846326
1620,208.499275,62.378882,31.860838,-0.059327,-0.684337,0.8331430000000001
1624,217.288472,35.584039000000004,57.129778,0.22034,-0.723766,1.553368
1628,225.528344,25.26894,42.664225,0.404059,-1.127459,0.816541
1632,135.378042,-16.662851999999997,16.968032,0.213993,-0.681163,0.9194479999999999
1636,77.45479499999999,-20.752270000000003,-10.925460000000001,-0.09131,-0.874891,1.097795
1640,-202.456703,-100.4654,31.982909999999997,-1.23537,-1.910063,0.447395
1644,93.507286,4.882887,-1.70901,-0.46216499999999994,1.4779280000000001,-0.86244
1648,8.1178,-13.000687,-1.2207219999999999,0.08142200000000001,-0.065675,1.187152
1652,-38.452735,-17.029068,0.30518,0.022216999999999997,-0.026612,1.1932559999999999
1656,-22.1561,-8.42298,0.0,-0.020996,-0.000732,1.001602
1660,-10.986496,-3.356985,0.9155409999999999,0.012206999999999999,-0.019409,1.026017
1664,-6.591897,-1.2207219999999999,1.159686,-0.007812999999999999,0.018921,0.924208
1668,-15.869383,-4.882887,0.671397,0.02417,-0.034791,1.012467
1672,-9.765774,-3.1128400000000003,0.122072,0.032105,-0.068605,1.059464
1676,-13.244831,-5.249104,-0.122072,0.014649,-0.040772,0.988907
1680,-7.080186,-2.319371,-0.48828900000000003,0.033936,-0.058106,1.030411
1684,2.197299,1.40383,-0.30518,0.023194,-0.056886,1.000748
1688,-2.197299,-0.183108,-0.183108,0.018799,-0.049805,0.992813
1692,-1.037613,0.0,-0.366217,0.024048,-0.0542,1.001724
1696,0.48828900000000003,0.854505,0.244144,0.02002,-0.049561,1.006851
1700,-2.2583349999999998,-0.549325,0.122072,0.030639999999999997,-0.051881,0.997086
1704,-0.976577,0.30518,0.183108,0.026123,-0.054322,1.01088
1708,0.427253,0.854505,0.30518,0.024413999999999998,-0.054932,1.003922
1712,2.4414439999999997,2.014191,0.183108,0.018677000000000003,-0.040527999999999995,0.993423
1716,-0.6103609999999999,1.281758,0.244144,0.011109,-0.052125,1.003922
1720,1.159686,0.976577,0.0,0.019287000000000002,-0.043336,1.004532
1724,2.075227,1.342794,-0.122072,0.014771000000000001,-0.046265,0.9858549999999999
1728,-1.525902,-0.061036,0.0,0.021851,-0.043458,0.992325
1732,-0.854505,-0.061036,-0.122072,0.020386,-0.048951,1.012345
1736,0.854505,0.427253,-0.183108,0.020996,-0.043702,1.007706
1740,0.061036,0.183108,0.122072,0.018555000000000002,-0.037842,0.998917
1744,-0.427253,-0.183108,-0.183108,0.018677000000000003,-0.047974,1.024186
1748,2.4414439999999997,1.342794,-0.427253,0.018921,-0.043091000000000004,1.005631
1752,2.380407,1.09865,-0.549325,0.018799,-0.031861,0.9948879999999999
1756,2.075227,1.342794,0.0,0.012329000000000001,-0.038697,1.008682
1760,3.234913,0.793469,-0.854505,0.021606999999999998,-0.033814,1.0036770000000002
1764,4.577707,1.70901,-0.671397,0.006592,-0.030274000000000002,0.991836
1768,4.028382,0.244144,-1.281758,0.013672,-0.027222000000000003,1.005875
1772,6.958114,2.746624,-0.732433,0.012085,-0.026856,1.009293
1776,7.507439,2.685588,-0.366217,0.009276999999999999,-0.016968,1.005142
1780,6.103609,2.075227,-0.122072,-0.000244,0.00061,0.972671
1784,5.432212,1.70901,-0.549325,0.014405000000000001,-0.012329000000000001,1.016251
1788,10.070953999999999,4.028382,0.122072,0.004517,0.004273,1.006485
1792,-0.732433,1.281758,-0.366217,-0.0008550000000000001,0.021485,0.966934
1796,3.1128400000000003,3.234913,-0.183108,0.036866,-0.025025,1.051652
1800,-0.061036,-2.136263,-0.9155409999999999,-0.015137000000000001,0.028321,0.942641
1804,-7.2022580000000005,-1.037613,-0.549325,0.041627,0.010376,0.9983059999999999
1808,-8.178836,0.732433,2.380407,0.038209,0.014893,1.075334
1812,-2.075227,-1.70901,0.30518,-0.017456,0.00415,0.9788969999999999
1816,4.8218510000000006,0.427253,-0.366217,0.009888,-0.015625,1.027726
1820,0.30518,1.342794,-2.2583349999999998,0.00061,0.003418,0.9956209999999999
1824,-1.464866,-3.1128400000000003,-2.319371,0.003418,-0.002686,1.010147
1828,11.841001,0.244144,0.0,-0.002441,0.030883999999999998,0.9627829999999999
1832,6.2867169999999994,1.2207219999999999,0.854505,-0.034424,0.021363,0.9657129999999999
1836,2.380407,-8.056764,-1.09865,-0.032471,0.036744,0.9474020000000001
1840,0.854505,-5.432212,-2.50248,0.076783,0.012329000000000001,1.031876
1844,-0.061036,-0.366217,-0.854505,-0.000122,0.056397,0.961563
1848,-4.638743,-5.61532,-4.333562000000001,0.057374,-0.014282,1.0309
1852,-1.525902,3.295949,-0.854505,0.023316,0.013793999999999999,0.998917
1856,1.40383,4.272526,0.793469,0.002075,0.01001,0.9830469999999999
1860,2.136263,-0.976577,-6.958114,0.0043950000000000005,0.046754000000000004,0.985733
1864,-0.549325,0.671397,0.48828900000000003,0.003052,0.0063479999999999995,0.9781639999999999
1868,-2.075227,-6.164645,-3.418021,0.003418,0.027222000000000003,0.9909819999999999
1872,-4.638743,-2.4414439999999997,-2.197299,0.022216999999999997,0.005615,1.009659
1876,0.0,1.525902,2.563516,0.020142,0.000488,0.9834129999999999
1880,13.183795000000002,0.732433,5.371176,0.000977,0.038575,0.9790190000000001
1884,2.197299,0.732433,2.014191,0.013916,0.059449,0.999771
1888,-7.01915,1.281758,0.671397,0.016236,0.035644999999999996,1.018936
1892,-13.305867000000001,1.953155,-0.244144,0.016724,0.028687,0.995132
1896,-7.2022580000000005,3.295949,0.0,0.009888,0.033692,0.9914700000000001
1900,-1.647974,2.624552,-0.244144,-0.000366,0.045655,1.0112459999999999
1904,-4.638743,0.366217,2.014191,0.028443,-0.005737,0.969619
1908,0.0,1.586938,1.8310830000000002,-0.020386,0.018677000000000003,0.985
1912,-3.479057,-0.30518,-0.122072,0.001221,0.010131999999999999,0.992447
1916,-0.061036,-0.427253,-0.48828900000000003,0.01001,0.016114,0.993179
1920,2.4414439999999997,1.159686,-0.671397,0.001465,0.026978,0.981827
1924,-0.183108,1.525902,-0.976577,0.01294,0.0094,1.010758
1928,1.7700470000000001,1.40383,-0.427253,0.004639,0.016358,0.989517
1932,4.760815,1.2207219999999999,-1.464866,0.009522,0.027710000000000002,0.967666
1936,0.366217,0.732433,-3.051804,0.014159999999999999,0.013428,1.01149
1940,2.136263,1.159686,-1.281758,0.000366,0.019898,0.9952540000000001
1944,1.09865,0.48828900000000003,1.09865,-0.032715,0.048829000000000004,0.8879530000000001
1948,-1.586938,0.122072,-0.732433,-0.007324,0.019043,1.00734
1952,3.234913,0.122072,-1.525902,0.011231,0.032715,0.9969629999999999
1956,0.976577,-0.122072,-1.8921189999999999,0.0058590000000000005,0.040894,0.99379
1960,4.028382,0.0,-1.647974,-0.005249,0.041260000000000005,0.9911040000000001
1964,1.525902,-0.30518,-2.136263,0.000244,0.042847,0.9952540000000001
1968,1.8310830000000002,-0.854505,-6.775005999999999,-0.001099,0.041505,0.9902489999999999
1972,0.9155409999999999,-0.366217,-4.8218510000000006,0.0063479999999999995,0.042481,0.9935450000000001
1976,6.103609,-0.122072,-2.624552,0.016724,0.036011,1.001236
1980,3.90631,0.0,-4.943923000000001,0.006958,0.06543099999999999,0.9862209999999999
1984,6.042573,0.122072,-3.418021,0.0015869999999999999,0.05285700000000001,0.9834129999999999
1988,13.977264000000002,2.746624,-17.517357,-0.005615,0.07019199999999999,0.985977
1992,-32.288090000000004,-16.052491,-114.19852,-0.531258,-0.34912600000000005,1.341207
1996,1.037613,0.183108,-2.075227,0.014282,0.063111,1.0042879999999998
2000,-0.976577,0.9155409999999999,-2.136263,0.004883,0.085451,0.967666
2004,-14.648660999999999,-0.9155409999999999,-3.295949,-0.015503,0.05139199999999999,0.992325
2008,-22.522316,-3.723201,6.164645,-0.013428,0.026978,0.999649
2012,-19.775692000000003,-3.90631,9.82681,-0.025025,0.031127999999999996,1.060807
2016,-8.850233,-0.732433,2.50248,0.013062,-0.006714,1.016861
2020,-0.48828900000000003,-0.427253,7.141222,-0.004883,-0.021606999999999998,1.0160069999999999
2024,5.9205,1.159686,7.812619000000001,0.017945,0.032105,0.9748680000000001
2028,-0.549325,-0.854505,13.611048,-0.068116,-0.007568000000000001,1.048234
2032,8.911269,0.9155409999999999,-0.793469,-0.004517,0.009766,1.023087
2036,-2.868696,-0.366217,-7.812619000000001,0.073121,0.044068,0.98146
2040,0.30518,-0.122072,0.183108,0.003418,0.0023190000000000003,1.008194
2044,-3.418021,-0.183108,0.122072,0.01355,0.029907999999999997,0.9851219999999999
2048,-4.8218510000000006,-0.244144,-2.685588,-0.000122,0.008301000000000001,1.003922
2052,-2.990768,1.7700470000000001,0.671397,-0.02002,0.025879000000000003,0.984268
2056,-7.141222,0.061036,-3.051804,0.016846,0.032349,0.952285
2060,0.427253,0.0,-1.09865,-0.031006,-0.114748,1.083513
2064,-2.563516,-0.427253,0.48828900000000003,0.021241,0.008423,1.017716
2068,-1.40383,-0.6103609999999999,1.70901,0.006104,0.012451,0.9909819999999999
2072,1.09865,-0.732433,2.685588,-0.033936,0.0031739999999999997,0.992447
2076,2.014191,0.366217,3.1128400000000003,0.022095,0.020752,0.995743
2080,-2.990768,-0.183108,0.244144,0.007324,0.007935,1.0040440000000002
2084,-1.7700470000000001,0.122072,-1.40383,0.016602000000000002,0.022095,0.9834129999999999
2088,-1.40383,1.09865,-1.464866,0.0031739999999999997,0.009644,0.992569
2092,-1.7700470000000001,0.122072,-1.70901,0.008667,0.0043950000000000005,0.9945219999999999
2096,-1.342794,-0.366217,-0.30518,0.006958,0.001465,1.0046540000000002
2100,6.225681,0.671397,1.037613,-0.013062,0.053834,0.949233
2104,0.976577,-1.525902,3.90631,0.050294,0.043213999999999995,0.9875639999999999
2108,-1.281758,-0.244144,-1.464866,0.024659,0.018677000000000003,1.01442
2112,-2.80766,0.854505,-2.319371,0.022461000000000002,0.038209,1.0205229999999998
2116,-2.4414439999999997,-0.732433,0.244144,0.014649,0.020386,1.0042879999999998
2120,1.09865,-1.159686,0.976577,0.016114,0.0271,0.9984280000000001
2124,-1.281758,0.061036,-0.366217,0.000366,0.01709,0.996597
2128,-0.976577,-0.366217,-1.281758,0.001953,0.008789,1.008438
2132,0.183108,-0.48828900000000003,-0.183108,0.010254000000000001,0.024537,0.98854
2136,0.671397,-1.70901,0.183108,-0.0008550000000000001,0.011231,0.992447
2140,0.854505,-1.525902,1.70901,0.015991,0.014038,1.007584
2144,-10.742351,3.295949,1.2207219999999999,0.041382,-0.010620000000000001,1.0053860000000001
2148,-11.047532,4.638743,-1.09865,-0.302739,-0.052613,0.778332
2152,-3.051804,-0.061036,-0.793469,-0.006958,0.001709,0.969741
2156,0.366217,1.09865,1.2207219999999999,0.061769000000000004,0.032958999999999995,0.847181
2160,0.671397,2.014191,3.784237,0.026733999999999997,0.025879000000000003,0.9286030000000001
2164,-1.40383,0.122072,0.244144,0.006958,0.017212,1.009903
2168,-0.793469,0.0,0.122072,0.000977,0.012206999999999999,0.9990389999999999
2172,-0.732433,-0.061036,-0.122072,0.006592,0.014649,1.004532
2176,-1.586938,-0.061036,0.061036,0.008179,0.015381,0.992325
2180,-1.2207219999999999,-0.061036,0.061036,0.008667,0.015137000000000001,0.995132
2184,-1.159686,-0.30518,0.0,0.008179,0.01294,0.998917
2188,-0.854505,-0.183108,0.0,0.007201999999999999,0.018921,0.9945219999999999
2192,-0.854505,0.0,0.0,0.009888,0.015259,0.991958
2196,-0.9155409999999999,-0.061036,0.061036,0.005737,0.0074459999999999995,0.9976959999999999
2200,-1.159686,-0.30518,0.061036,0.005371,0.018921,0.988174
2204,-1.7700470000000001,-0.061036,0.061036,0.012451,0.008545,1.00441
2208,-0.9155409999999999,0.244144,0.061036,0.00415,0.020386,0.989273
2212,-1.037613,-0.061036,-0.122072,0.0051270000000000005,0.013184,0.9864649999999999
2216,-0.061036,0.366217,0.061036,0.001709,0.01294,0.991836
2220,-1.159686,0.183108,0.122072,0.004639,0.014527000000000002,0.991714
2224,-0.793469,0.122072,0.061036,0.0070799999999999995,0.008789,0.9935450000000001
2228,1.159686,0.671397,-0.427253,0.022583000000000002,0.021118,0.983658
2232,-3.90631,-0.30518,0.122072,0.001709,0.008789,1.001724
2236,-4.394598,-0.976577,0.793469,0.005371,0.000122,1.0008700000000001
2240,-1.8310830000000002,-0.061036,1.7700470000000001,0.005005,0.018189,0.988907
2244,-0.30518,-1.40383,0.0,0.002075,0.005737,0.996353
2248,-1.037613,-0.793469,0.732433,-0.002686,0.011963,0.9990389999999999
2252,-1.70901,-0.061036,-0.671397,0.010131999999999999,0.008667,1.002823
2256,-2.014191,-0.9155409999999999,0.30518,0.012573,0.006958,0.9900049999999999
2260,-0.9155409999999999,1.037613,0.0,0.008789,0.006592,0.996597
2264,-0.732433,0.48828900000000003,-0.793469,0.009276999999999999,0.010131999999999999,0.996841
2268,-0.427253,-0.671397,0.30518,0.001953,0.008545,1.001358
2272,-3.90631,-0.6103609999999999,-0.427253,0.012206999999999999,0.008423,0.991714
2276,-3.295949,-1.281758,1.647974,0.000977,-0.005371,1.014908
2280,-2.50248,1.953155,5.432212,-0.011963,-0.060913999999999996,1.017838
2284,8.484016,1.7700470000000001,8.484016,0.0028079999999999997,0.024291999999999998,0.987442
2288,3.784237,0.671397,0.0,-0.001343,0.009522,0.999893
2292,2.685588,0.061036,-0.6103609999999999,0.005615,0.014282,0.998917
2296,-0.244144,0.732433,0.061036,0.005005,0.022095,0.993179
2300,-4.028382,1.40383,0.0,0.009276999999999999,0.018677000000000003,0.995743
2304,-5.9205,0.671397,-0.30518,0.003418,0.0074459999999999995,1.0008700000000001
2308,-3.418021,-0.671397,0.061036,0.0015869999999999999,0.0015869999999999999,0.9986719999999999
2312,0.9155409999999999,0.427253,-0.366217,0.029175,0.018921,0.997574
2316,-2.868696,-0.976577,-0.732433,0.000366,0.016602000000000002,0.993057
2320,0.366217,-1.159686,-1.953155,-0.002686,0.013428,0.991226
2324,0.122072,0.48828900000000003,-0.183108,0.004639,0.008545,0.9948879999999999
