Packet number,Gyroscope X (deg/s),Gyroscope Y (deg/s),Gyroscope Z (deg/s),Accelerometer X (g),Accelerometer Y (g),Accelerometer Z (g)
0,-0.244144,0.000000,0.000000,0.003418,-0.014527,0.996841
1,-0.488289,-0.061036,0.000000,0.007324,-0.020020,1.009171
2,0.000000,0.000000,0.000000,0.006104,-0.017212,1.011002
3,0.488289,0.244144,-0.183108,0.006470,-0.018311,0.998184
4,0.000000,0.183108,0.000000,0.004150,-0.016968,1.000870
5,0.793469,0.183108,0.000000,0.005493,-0.018189,0.997208
6,0.061036,0.061036,-0.122072,0.003906,-0.014282,0.994888
7,0.244144,0.000000,-0.183108,0.004639,-0.010498,0.998550
8,-0.366217,-0.244144,-0.122072,0.001465,-0.017700,1.004044
9,0.061036,-0.122072,0.000000,0.004273,-0.018799,1.005264
10,-0.183108,0.000000,-0.122072,0.004273,-0.017334,1.006485
11,-0.061036,0.061036,0.000000,0.001343,-0.011963,1.000015
12,0.000000,0.061036,0.061036,0.008667,-0.015137,1.003677
13,-0.122072,0.061036,0.000000,0.002441,-0.018799,1.000381
14,0.061036,0.122072,-0.122072,0.010376,-0.017945,1.004410
15,0.000000,0.244144,0.000000,0.001953,-0.016846,1.003067
16,0.305180,0.305180,-0.122072,0.003418,-0.020996,0.998795
17,0.244144,0.244144,0.000000,0.002808,-0.015259,1.002823
18,0.488289,0.305180,-0.122072,-0.002808,-0.018067,0.997574
19,0.122072,0.000000,0.000000,0.001099,-0.018799,1.000992
20,1.159686,0.061036,0.000000,0.011597,-0.005127,0.985245
21,-1.220722,-0.061036,0.000000,0.000366,-0.023682,1.008072
22,1.037613,0.183108,0.000000,0.003174,-0.013306,0.991226
23,-0.427253,-0.061036,0.000000,-0.007202,-0.011719,0.990860
24,-0.549325,-0.061036,-0.122072,0.006836,-0.025635,1.010147
25,0.366217,0.000000,0.000000,0.005005,-0.009277,0.994156
26,-0.549325,0.000000,0.061036,0.001831,-0.010864,0.990005
27,-1.098650,-0.061036,0.000000,0.007446,-0.022339,1.003677
28,0.183108,0.183108,0.000000,0.007568,-0.013550,1.011246
29,0.000000,0.244144,-0.122072,-0.000366,-0.014527,1.000015
30,-0.488289,0.183108,0.000000,-0.002319,-0.028809,1.010880
31,1.464866,0.305180,0.000000,0.008545,-0.004761,0.991226
32,-0.671397,-0.061036,0.000000,0.000855,-0.017212,0.996719
33,0.732433,0.000000,-0.122072,0.006104,-0.009888,1.009659
34,0.000000,-0.183108,-0.183108,0.003052,-0.016602,0.994522
35,-0.122072,-0.427253,-0.183108,0.003052,-0.019287,1.000992
36,0.915541,-0.671397,-0.122072,0.020752,0.000488,1.000626
37,-1.525902,-0.244144,-0.183108,-0.006226,-0.017945,1.005997
38,0.488289,-0.183108,0.000000,0.005371,-0.021729,1.008560
39,0.366217,0.122072,-0.183108,0.005615,-0.004883,0.982925
40,-1.709010,-0.305180,0.061036,0.010010,-0.029786,1.016495
41,2.136263,0.549325,-0.183108,0.004883,-0.009277,0.990005
42,-1.159686,-0.427253,0.000000,0.011475,-0.012940,1.011490
43,0.671397,0.183108,-0.122072,-0.005615,-0.016114,0.999649
44,-0.061036,-0.610361,0.000000,0.021118,-0.013916,1.009781
45,0.061036,-0.183108,-0.244144,-0.006226,-0.016724,1.001724
46,0.183108,-0.671397,-0.122072,0.009644,-0.009155,1.004044
47,-0.732433,-0.549325,-0.183108,-0.006348,-0.016602,1.004044
48,0.610361,-0.610361,-0.244144,0.025025,-0.017945,1.006851
49,-0.793469,-0.488289,0.000000,-0.009277,-0.020996,1.013687
50,1.281758,-0.610361,-0.122072,0.026001,-0.008423,1.017716
51,0.000000,0.061036,-0.183108,-0.005615,-0.017090,0.994766
52,0.366217,-0.488289,0.000000,0.008057,-0.018067,1.014420
53,1.281758,-0.366217,-0.244144,0.015503,-0.009033,0.995132
54,-0.366217,-0.183108,0.000000,0.009155,-0.022827,1.017716
55,2.014191,0.549325,-0.122072,0.008911,-0.021241,1.020768
56,2.563516,1.037613,0.061036,0.016236,-0.017578,1.020157
57,3.234913,1.525902,0.305180,-0.006348,-0.029419,1.020523
58,6.286717,2.197299,0.061036,0.007813,-0.024903,1.016983
59,6.164645,1.892119,0.183108,0.001465,-0.028199,1.024796
60,9.399557,2.136263,0.061036,-0.003174,-0.013306,1.004166
61,9.277485,1.464866,0.000000,-0.008667,0.010498,0.961929
62,6.836042,0.427253,-0.366217,-0.007080,0.030396,0.968887
63,2.746624,-0.488289,-0.488289,-0.014160,-0.013062,0.977432
64,4.150454,-0.610361,-0.366217,0.011231,-0.011109,1.009415
65,3.723201,-0.305180,0.000000,0.018921,-0.007691,1.035904
66,4.455634,0.305180,0.061036,0.004150,-0.005493,1.001114
67,3.601129,0.488289,0.244144,0.009155,-0.005859,1.014542
68,4.699779,0.732433,0.183108,-0.002075,-0.002564,1.006363
69,4.577707,0.671397,0.122072,0.003174,-0.009888,0.995743
70,5.371176,0.305180,0.061036,0.018067,0.003784,1.002335
71,4.455634,0.427253,-0.122072,-0.019165,0.002930,0.989151
72,4.882887,-0.244144,-0.427253,-0.009155,0.001587,0.989883
73,3.967346,-0.793469,-0.366217,0.007080,0.002197,0.982559
74,3.601129,-1.403830,-0.366217,0.004150,0.008423,1.008804
75,4.333562,-1.586938,-0.549325,-0.006226,0.003784,0.989883
76,3.173877,-1.953155,-0.488289,-0.003540,0.002930,0.988785
77,3.967346,-1.953155,-0.427253,0.009277,-0.000122,1.000748
78,3.601129,-1.831083,-0.305180,0.012085,0.003296,1.010758
79,4.882887,-1.342794,-0.305180,0.011719,0.014282,1.008804
80,3.662165,-0.976577,-0.122072,0.001465,0.008789,0.999771
81,4.638743,-0.671397,-0.183108,0.014527,0.010742,0.991348
82,3.356985,-0.915541,0.000000,0.010498,0.012207,0.995865
83,3.540093,-0.488289,0.000000,0.017823,0.012818,1.007218
84,3.234913,0.305180,0.183108,-0.000610,0.001099,0.998184
85,3.906310,0.366217,0.488289,0.006958,0.018921,1.001114
86,3.112840,0.549325,0.671397,0.007691,0.011109,1.001724
87,3.601129,0.671397,0.732433,0.001587,0.003052,0.998428
88,3.906310,0.488289,0.976577,0.000366,0.010620,0.997574
89,4.394598,0.305180,1.037613,0.001953,0.010864,1.007950
90,4.516670,-0.488289,0.976577,-0.002441,0.020386,0.981704
91,4.211490,-1.159686,0.793469,0.007202,0.020996,0.987808
92,3.173877,-1.770047,0.671397,-0.001953,0.021729,0.974136
93,2.441444,-2.319371,0.488289,0.006104,0.030762,0.983780
94,-0.122072,-2.624552,0.427253,0.000244,0.019532,0.968521
95,-0.427253,-2.990768,0.244144,0.005737,0.026368,0.981216
96,-1.464866,-2.990768,0.183108,0.018921,0.022339,1.004288
97,-1.892119,-2.563516,0.488289,0.020386,-0.019287,1.030777
98,2.746624,-1.098650,0.488289,0.021729,0.002319,1.025040
99,2.197299,-0.488289,0.671397,0.006958,-0.014282,0.990494
100,3.967346,-0.671397,0.793469,0.006958,0.022827,1.001480
101,4.638743,-1.403830,0.854505,-0.005737,0.020874,0.968276
102,2.807660,-2.319371,0.671397,0.000000,0.034668,0.950088
103,1.159686,-3.479057,0.366217,0.004517,0.038697,0.967666
104,-0.854505,-3.784237,-0.122072,0.025269,0.013184,0.999405
105,-1.281758,-3.234913,0.183108,0.029053,0.006348,1.027237
106,1.709010,-1.159686,0.000000,0.021607,0.020264,1.026993
107,1.403830,-0.488289,0.122072,0.020752,0.026001,0.998184
108,0.671397,0.061036,0.183108,0.013184,0.020996,0.997696
109,0.122072,0.000000,0.000000,0.013550,-0.027100,0.997086
110,2.685588,0.488289,0.183108,0.018189,0.003784,1.026627
111,3.906310,0.671397,0.244144,0.010620,0.017700,0.983536
112,4.150454,0.366217,0.000000,0.006714,0.040650,0.966201
113,-0.061036,-1.037613,0.122072,-0.008301,0.059083,0.980362
114,-1.586938,-1.281758,-0.549325,0.018677,0.034058,0.969375
115,-3.845274,-0.610361,-0.671397,0.014771,0.028687,0.994034
116,-4.577707,0.061036,-0.427253,0.032105,0.017090,1.010758
117,-3.356985,1.342794,-0.305180,0.032959,0.017945,1.011002
118,-3.418021,2.624552,0.000000,0.025147,0.014771,1.016495
119,-3.112840,3.418021,0.122072,0.018189,0.011231,1.015152
120,-2.075227,3.845274,0.000000,0.008545,0.013794,1.000748
121,-2.197299,3.662165,0.061036,0.002564,0.015503,0.986709
122,-1.892119,2.685588,-0.122072,0.001953,0.022461,0.973770
123,-3.112840,1.831083,-0.549325,-0.009400,0.019165,0.978408
124,-4.882887,0.488289,-0.366217,-0.000610,0.010254,1.000504
125,-2.990768,0.427253,-0.427253,0.001709,0.018433,0.992691
126,-3.845274,0.183108,-0.305180,0.009400,0.018311,0.990494
127,-4.028382,0.183108,0.000000,0.013184,0.001709,1.011978
128,-2.075227,0.610361,-0.122072,0.007935,0.015869,1.000504
129,-2.990768,0.427253,0.000000,0.007324,0.007568,1.004898
130,-2.014191,0.488289,0.000000,0.010132,0.010010,0.993057
131,-2.258335,0.488289,0.244144,-0.000732,0.015137,0.988418
132,-2.685588,0.061036,0.244144,-0.002319,0.015625,0.990372
133,-3.356985,-0.427253,0.122072,0.005493,0.018799,0.992935
134,-4.150454,-0.671397,0.061036,-0.009644,0.017212,0.975357
135,-5.371176,-1.159686,0.000000,0.016846,0.026856,0.974136
136,-8.361944,-1.342794,0.061036,0.017334,0.005371,0.994156
137,-7.202258,-0.427253,0.000000,0.021851,0.011353,1.004898
138,-8.728161,0.366217,0.366217,0.023072,-0.002319,1.014542
139,-6.775006,1.525902,0.366217,0.027466,-0.003662,1.015030
140,-6.164645,2.441444,0.366217,0.019654,-0.006348,1.014542
141,-5.004959,3.356985,0.732433,0.015625,-0.004883,1.020523
142,-3.601129,3.845274,0.732433,0.000122,0.008545,0.963394
143,-7.263294,2.319371,1.342794,-0.023072,0.027832,0.923354
144,-13.488975,-0.061036,1.647974,-0.021607,0.017700,0.916152
145,-19.470512,-1.770047,2.136263,0.004517,0.021973,0.943374
146,-23.804074,-2.746624,2.380407,-0.008057,0.016724,0.983047
147,-24.597543,-3.845274,2.136263,0.000488,-0.015503,1.010513
148,-23.071641,-3.723201,2.136263,0.020508,-0.043702,1.038102
149,-19.470512,-2.380407,2.441444,0.019409,-0.048951,1.053971
150,-15.503166,-1.220722,2.441444,0.013672,-0.040040,1.018814
151,-15.320058,-0.732433,2.563516,0.002686,-0.028443,1.009537
152,-15.503166,-1.220722,2.746624,-0.002197,-0.024781,0.962539
153,-17.944610,-2.746624,2.929732,0.003540,-0.001465,0.961074
154,-24.841688,-4.028382,2.807660,0.004150,-0.020020,1.001480
155,-24.170291,-3.784237,2.502480,0.020386,-0.026978,1.027848
156,-25.024796,-2.624552,2.441444,0.008179,-0.043458,1.001724
157,-25.207904,-2.624552,2.807660,0.015015,-0.044434,1.007584
158,-23.804074,-2.563516,2.380407,-0.002686,-0.055299,1.030167
159,-23.132677,-3.784237,2.685588,0.012818,-0.059449,1.025162
160,-20.325017,-3.906310,2.319371,0.012696,-0.070069,1.027115
161,-17.029068,-3.540093,1.770047,-0.002441,-0.007568,1.089128
162,-13.855192,-3.540093,1.403830,0.005859,-0.056275,1.010758
163,-19.775692,-4.150454,2.258335,0.022950,-0.039796,0.969009
164,-23.743038,-4.760815,2.014191,-0.020874,-0.031739,0.937026
165,-27.710384,-5.981537,2.258335,0.025391,-0.010864,0.977066
166,-34.302281,-5.737392,2.136263,-0.016114,-0.017456,0.953262
167,-38.513771,-8.606088,3.051804,0.019043,-0.039673,1.045060
168,-41.748684,-4.638743,2.197299,0.052735,-0.057008,1.065202
169,-42.542153,-0.427253,1.403830,0.027955,-0.098268,1.049821
170,-38.879988,1.464866,2.136263,0.003174,-0.150149,1.017960
171,-30.762188,5.493248,2.014191,0.031128,-0.125368,1.004654
172,-33.081559,6.225681,0.244144,-0.021851,-0.073854,0.989273
173,-41.870756,4.516670,-8.728161,-0.041871,-0.025147,1.037858
174,-46.448463,6.042573,-16.540780,-0.018311,-0.065309,1.075822
175,-65.125505,14.892805,-29.114214,-0.011963,-0.091798,1.094743
176,-53.467613,18.127718,-29.419394,0.083497,-0.355596,1.092424
177,-34.302281,10.559243,-7.080186,0.057374,-0.069459,0.847425
178,-42.420081,7.080186,-8.361944,0.015015,-0.065309,1.051652
179,-67.627985,6.897078,-10.254063,0.052857,-0.133425,1.038590
180,-66.407263,5.493248,-5.859464,0.014405,-0.064698,0.940566
181,-78.675517,8.972305,-7.263294,0.033692,-0.067628,0.904799
182,-86.854353,8.545052,0.976577,0.015991,-0.037476,0.916396
183,-114.076448,4.211490,4.577707,-0.022705,-0.154543,0.988418
184,-122.255283,-3.784237,13.061723,0.089357,0.179080,1.036393
185,-163.759823,5.371176,-2.258335,0.073976,0.365118,0.844617
186,-289.555200,21.179522,-4.516670,0.085573,0.078492,1.349142
187,-374.700542,29.846647,36.926833,0.282841,0.408942,1.517845
188,-447.028306,55.909056,-5.371176,-0.072023,0.177737,1.495995
189,-529.243915,61.341268,4.577707,0.152224,-0.018067,1.297383
190,-565.011063,83.802548,14.282444,0.289067,0.015991,1.147478
191,-611.032273,103.700313,8.606088,0.280034,-0.598886,1.155169
192,-687.327382,97.413596,81.116960,-1.035904,-0.917861,1.999969
193,-392.339971,55.970092,-32.288090,-1.004288,-0.861952,1.999969
194,107.179370,37.415122,-72.327764,-0.679210,0.362066,1.999969
195,127.870604,7.385367,-85.572595,-0.760021,0.687877,1.886259
196,-1.647974,-16.845960,-10.559243,-0.546029,0.702037,1.575341
197,-42.725261,-60.486763,19.531548,-0.341558,0.221195,1.389181
198,74.830243,-42.603189,10.925460,-0.166873,0.304692,1.138689
199,99.855039,-40.650034,2.563516,-0.048219,0.525399,0.775891
200,58.594644,-37.964446,3.051804,0.046387,0.436286,1.056779
201,93.141070,-17.578393,-10.131991,0.079957,0.375616,1.213764
202,128.603037,-1.403830,-23.315785,0.041993,0.439094,1.115740
203,130.189975,0.244144,-27.771420,-0.008057,0.367926,1.089738
204,156.191348,-1.892119,-31.311513,-0.065675,0.308598,1.070207
205,178.225376,-7.141222,-32.349126,-0.097292,0.319341,1.042008
206,187.014572,-12.512398,-30.151827,-0.119020,0.234134,1.110369
207,209.292744,-11.841001,-29.053178,-0.090333,0.158816,1.125139
208,225.467308,-8.606088,-27.771420,-0.087892,0.143679,1.044205
209,233.768215,-6.164645,-25.024796,-0.077638,0.149783,1.038590
210,243.045701,-5.432212,-24.536507,-0.031861,0.114260,1.088396
211,252.628367,-3.112840,-25.757229,0.015015,0.120607,1.209003
212,259.220264,3.051804,-29.297322,0.099001,0.090822,1.326314
213,268.253605,13.977264,-36.194400,0.134768,0.029908,1.321798
214,273.380636,26.855879,-45.410849,0.141482,-0.172610,1.079484
215,266.300450,41.565576,-52.735180,0.140871,-0.383673,0.577279
216,242.862593,50.415808,-57.618067,0.139040,-0.391608,0.492073
217,202.761883,47.486076,-59.998474,0.195438,-0.295048,0.831189
218,182.864118,42.236973,-65.491722,0.149050,-0.191897,1.545556
219,181.765469,45.899138,-68.787671,-0.037842,-0.220340,1.999969
220,197.512779,57.373922,-64.576181,-0.286137,-0.383673,1.999969
221,230.350195,66.956588,-51.331350,-0.444221,-0.662486,1.999969
222,250.980392,73.182269,-33.386740,-0.456062,-0.760632,1.787259
223,235.355154,64.209964,-11.108568,-0.432258,-0.816785,1.759304
224,232.791638,51.758602,9.277485,-0.311284,-0.822766,1.999969
225,249.332418,43.274586,22.156100,-0.203983,-0.792737,1.999969
226,267.277028,38.574807,30.945296,-0.117067,-0.761242,1.995026
227,276.066224,35.584039,34.790570,0.003418,-0.740734,1.719387
228,271.244373,38.025483,33.997101,0.236210,-0.716075,1.473411
229,258.487831,45.288777,26.611734,0.382818,-0.678111,1.395651
230,238.284886,47.364004,20.386053,0.286625,-0.759411,1.385397
231,227.420462,36.987869,19.226368,0.159060,-0.885634,1.332052
232,217.715724,23.437858,21.850919,0.072633,-1.010513,1.092912
233,196.475166,11.413748,22.400244,0.152834,-1.182757,0.862196
234,163.088426,9.277485,14.160372,0.309941,-1.390524,0.643931
235,122.438392,26.611734,-12.573434,0.412482,-1.948638,0.031006
236,52.796216,59.327077,-36.865797,0.365728,-1.993927,0.660655
237,16.296635,74.647135,-42.786297,0.273198,-2.000031,0.546761
238,-7.324331,45.349813,-25.879301,-0.107179,-2.000031,-0.241459
239,-53.894865,-41.870756,11.413748,0.156252,-2.000031,-0.468391
240,-125.795377,-98.573281,32.349126,0.534920,-2.000031,-0.207034
241,-197.940032,-99.916075,23.865110,0.614878,-2.000031,-0.032471
242,-183.901732,-72.693980,2.929732,0.004395,-0.719615,1.148089
243,-108.339055,-60.303655,-20.019837,-0.491707,0.725475,1.999969
244,-148.256657,-44.861524,5.371176,-0.577157,0.702037,1.679103
245,-223.208972,-51.697566,24.597543,-0.434211,-0.297856,0.512215
246,-220.645457,-38.269627,38.330663,-0.135866,-0.325566,1.100237
247,-222.110323,-44.007019,45.166705,0.355108,-0.096315,1.999969
248,-164.980545,-9.094377,31.555657,0.680064,-0.216434,1.999969
249,-79.957275,17.273213,6.713970,0.235721,-0.076173,1.476463
250,-112.733654,-9.277485,14.648661,-0.497322,-0.098634,1.999969
251,-74.219883,-29.968719,21.667811,-0.576791,-0.234745,1.147967
252,-36.560616,-62.134737,23.071641,0.305058,0.254276,1.731472
253,-64.637217,-46.814679,19.104295,0.935561,0.045411,1.966461
254,-12.939651,-2.990768,1.403830,0.022583,0.000977,1.305684
255,-20.935378,-7.812619,7.019150,-0.422126,0.021607,0.892470
256,-28.076600,-24.841688,11.291676,0.107424,0.083742,1.084001
257,-22.278172,-15.014878,5.920500,0.226078,0.141115,1.138323
258,-31.128405,-4.089418,5.249104,-0.090700,0.069703,0.979629
259,-31.616693,-9.765774,5.249104,-0.116091,0.027466,1.032609
260,-26.184482,-12.695506,3.662165,0.058106,0.049561,1.095476
261,-22.339208,-6.469825,2.075227,0.034180,0.082399,1.005631
262,-29.236286,-5.615320,2.563516,-0.070436,0.029786,1.086320
263,-22.827497,-8.545052,2.685588,-0.021485,-0.011231,1.070085
264,-13.488975,-7.446403,1.464866,0.010742,0.062257,1.001846
265,-22.461280,-7.202258,2.746624,-0.020630,0.050050,1.003555
266,-20.935378,-6.713970,2.075227,-0.010742,0.027955,1.049088
267,-18.005646,-5.493248,1.525902,-0.015991,0.039673,1.000870
268,-21.423667,-4.516670,0.305180,0.004761,-0.073976,0.942519
269,-18.921187,-5.859464,0.854505,-0.035523,-0.010376,1.052995
270,-17.395285,-6.347753,1.525902,-0.017700,-0.012696,1.020157
271,-11.352712,-5.798428,0.671397,-0.030030,0.003906,1.024918
272,-11.413748,-4.943923,0.305180,-0.037964,0.116091,1.252461
273,-7.080186,-3.601129,1.098650,0.018799,-0.028199,0.979629
274,-9.216449,-2.502480,1.037613,-0.004883,-0.013916,0.960464
275,-9.399557,-1.647974,0.976577,-0.008423,0.017090,1.017838
276,-9.582666,-0.976577,0.915541,-0.018433,0.028443,0.992447
277,-11.535821,-0.915541,1.098650,-0.019165,0.007691,0.987930
278,-12.329290,-0.976577,1.342794,-0.009155,-0.007446,1.004898
279,-10.254063,-0.854505,1.342794,-0.017823,-0.005493,1.028702
280,-8.911269,-0.793469,1.159686,-0.013184,0.003174,0.995621
281,-9.704738,-1.037613,1.037613,-0.012085,-0.002564,0.993912
282,-8.361944,0.854505,-1.403830,-0.007324,-0.177005,0.856458
283,-10.742351,0.183108,0.915541,-0.025269,0.037964,1.022232
284,-14.404517,-0.244144,2.258335,-0.027588,-0.003174,1.022477
285,-11.169604,-0.366217,1.770047,-0.024292,-0.005737,0.977310
286,-14.038300,-1.403830,1.831083,-0.019532,-0.020874,1.002090
287,-13.183795,-2.075227,1.892119,-0.017700,-0.037476,1.039200
288,-8.728161,-2.014191,1.403830,-0.010986,-0.044923,1.037613
289,-4.638743,-1.281758,1.342794,-0.013428,-0.018799,1.003433
290,-5.127031,-1.525902,0.976577,-0.016846,-0.002441,0.988540
291,-8.606088,-2.258335,0.854505,-0.015015,-0.014893,1.001724
292,-7.934691,-1.770047,0.793469,0.007324,-0.015015,1.011368
293,-8.422980,-0.671397,0.976577,-0.005249,-0.030762,1.002579
294,-9.216449,0.122072,1.586938,-0.004150,-0.017456,1.020157
295,-9.765774,0.732433,2.136263,-0.003784,-0.015015,0.999649
296,-10.498207,1.342794,2.258335,-0.010254,-0.026001,1.000381
297,-10.009918,1.525902,2.441444,-0.012085,-0.033570,0.995010
298,-9.216449,0.671397,2.563516,-0.031495,-0.020996,0.986954
299,-10.864424,-1.525902,2.258335,-0.047242,-0.005982,0.936660
300,-15.503166,-5.310140,2.380407,-0.044556,-0.005615,0.959121
301,-19.348440,-7.812619,2.502480,-0.037964,-0.033570,0.969009
302,-19.958801,-8.667124,2.685588,-0.031739,-0.024414,0.992569
303,-21.057450,-8.422980,2.929732,-0.003784,-0.014893,0.981216
304,-25.696193,-8.422980,3.540093,-0.008667,-0.048585,0.995254
305,-24.780652,-7.751583,3.723201,0.020630,-0.010010,0.979995
306,-28.259709,-5.798428,3.356985,-0.013550,-0.024048,1.008438
307,-32.410163,-7.446403,3.479057,-0.032959,-0.054078,0.986099
308,-26.123445,-8.178836,1.342794,-0.014038,-0.019654,0.978042
309,-29.663539,-10.315099,-1.342794,-0.068971,-0.010864,0.937026
310,-36.316472,-14.709697,-0.671397,0.013550,-0.016724,0.956069
311,-46.997787,-15.075914,0.183108,-0.026612,-0.036255,0.943862
312,-48.035401,-16.540780,0.305180,0.012573,-0.033204,1.040909
313,-54.322118,-10.254063,-0.183108,0.034668,-0.065919,1.007462
314,-57.129778,-7.263294,-0.976577,-0.019654,-0.077394,1.047013
315,-57.679103,-5.737392,-4.577707,-0.013794,-0.079469,1.009903
316,-61.768521,-5.188067,-11.291676,-0.055665,-0.063600,1.063005
317,-67.811093,-3.234913,-26.672770,-0.030274,-0.115846,1.005020
318,-89.112688,9.521630,-38.818952,0.057618,-0.306645,1.186664
319,-71.717403,10.681315,-25.391012,0.097292,-0.510384,1.125383
320,-22.644388,2.441444,2.014191,0.076905,-0.199832,1.100237
321,-21.972992,3.540093,-4.577707,0.041016,-0.058473,1.029191
322,-43.091478,5.432212,-4.150454,-0.002564,0.076051,0.947524
323,-78.980697,8.667124,-7.690547,-0.004273,0.150027,0.925307
324,-119.325551,3.967346,-3.173877,0.017334,-0.076417,0.956558
325,-118.348974,-2.136263,17.090105,-0.063111,0.560800,0.738659
326,-152.101930,-13.916228,-13.183795,-0.062501,0.944717,1.106218
327,-277.775235,-24.048219,-28.992142,0.014649,0.725231,1.031754
328,-521.187152,-18.127718,-7.263294,-0.141848,0.212161,1.395529
329,-646.494240,-43.396658,16.784924,-0.144778,0.179812,1.528466
330,-711.436637,-43.518730,10.070954,0.275029,-0.032471,1.583642
331,-768.810559,-29.358358,11.841001,0.065309,-0.270390,0.749035
332,-872.999161,-47.425040,50.659953,0.555428,-2.000031,1.999969
333,-723.155566,21.179522,127.199207,-1.524559,-0.413947,1.999969
334,28.870069,2.380407,-71.412222,-0.629404,-0.383062,1.999969
335,262.699321,13.672084,-63.599603,-0.859998,0.676768,1.999969
336,67.261769,15.442130,-39.124132,-0.588754,0.627085,1.824247
337,-50.965133,-52.918288,62.012665,-0.762585,0.467414,1.331441
338,-0.671397,-65.186542,78.919661,-0.240116,0.232059,1.215717
339,132.692454,-42.175937,47.547112,-0.203494,0.372930,0.775525
340,110.109102,-38.086519,45.166705,-0.006470,0.517464,0.574228
341,75.745785,-22.827497,46.509499,0.062989,0.381476,0.838392
342,118.654154,-0.427253,30.640116,0.120974,0.361212,0.972061
343,143.007553,11.596857,18.127718,0.104860,0.411017,0.935683
344,146.608682,7.385367,13.061723,0.045289,0.337774,1.059709
345,176.394293,-1.220722,6.897078,-0.007813,0.277714,1.163104
346,203.006027,-8.728161,3.601129,-0.028443,0.245121,1.139544
347,219.363699,-13.855192,1.342794,-0.020386,0.208255,1.141253
348,235.355154,-12.512398,-2.624552,-0.011109,0.151614,1.193744
349,252.933547,-5.371176,-8.300908,-0.007446,0.117922,1.300557
350,268.558785,4.699779,-13.366903,-0.018555,0.070314,1.451316
351,287.663081,15.564202,-18.188754,-0.035401,-0.031861,1.455467
352,308.659495,25.452049,-22.034028,-0.046998,-0.127321,1.264912
353,314.518959,34.058137,-25.268940,0.004883,-0.176028,1.121599
354,309.025711,41.809720,-29.358358,0.079713,-0.238407,0.972427
355,300.236515,55.298695,-40.161746,0.198489,-0.431281,0.735851
356,277.775235,76.478218,-49.866484,0.242435,-0.457160,0.617319
357,243.228809,81.300069,-60.242618,0.191043,-0.400885,0.987198
358,222.964828,74.769207,-68.543526,0.161990,-0.370001,1.500267
359,227.908751,74.952316,-78.248264,0.087648,-0.348760,1.999969
360,231.387808,84.290837,-80.994888,-0.017700,-0.491707,1.999969
361,247.379263,89.723049,-77.637903,-0.184939,-0.691051,1.904692
362,260.502022,81.300069,-72.510872,-0.329473,-0.848157,1.556420
363,234.561685,75.013352,-56.458381,-0.426764,-0.823011,1.791897
364,210.574502,67.078660,-39.490349,-0.428840,-0.861463,1.999969
365,222.598611,69.764248,-26.245518,-0.337407,-0.905409,1.999969
366,279.118029,66.163119,-13.611048,-0.232792,-0.979873,1.999969
367,319.523919,71.778439,-13.366903,0.079591,-0.900893,1.643946
368,288.883803,72.144656,-14.770733,0.426642,-0.780407,1.229755
369,247.074083,71.473259,-22.705425,0.474739,-0.794812,1.334249
370,236.942092,65.796902,-33.081559,0.458503,-0.823621,1.430198
371,230.533303,60.730907,-41.016251,0.343633,-0.841566,1.381857
372,212.893874,55.603876,-44.861524,0.201907,-0.953872,1.180438
373,195.071336,54.139010,-48.767834,0.051026,-1.128557,0.942397
374,163.210498,59.143969,-52.979324,0.012696,-1.399069,0.740734
375,122.987716,77.271687,-57.373922,0.082765,-1.764920,0.599252
376,75.867857,106.019684,-65.003433,0.109621,-2.000031,0.596933
377,41.504540,131.776913,-61.524376,0.022339,-2.000031,0.396979
378,28.992142,118.471046,-40.833143,-0.231571,-2.000031,-0.131838
379,-28.320745,15.259022,7.568475,-0.326299,-2.000031,-1.026139
380,-129.762722,-120.057984,68.665599,0.009888,-2.000031,-0.595102
381,-159.548333,-191.531243,93.812467,0.562142,-1.707424,0.381353
382,-196.108949,-190.676738,82.703899,0.674449,-1.755886,0.602548
383,-148.744945,-169.314107,67.994202,0.254276,-0.390021,1.821317
384,-50.049592,-147.341115,36.316472,-0.014405,0.766613,1.999969
385,-105.775540,-62.256809,66.529335,-0.073854,0.865980,0.734997
386,-238.651102,-108.888380,86.366064,0.928237,-0.120363,-0.442145
387,-278.080415,-84.596017,75.074388,1.264057,-0.063355,0.808606
388,-260.135805,-40.466926,41.138323,1.177996,0.141726,1.999969
389,-240.909438,-3.967346,19.653620,0.855116,-0.309575,1.999969
390,-141.481651,2.136263,5.127031,-1.064958,-0.225223,1.999969
391,-116.273747,-38.574807,27.649348,-1.674830,-0.821302,1.199359
392,-63.355459,-120.302129,55.176623,-0.052369,-0.131594,1.194842
393,-69.459068,-116.700999,43.945983,1.806546,0.415412,1.999969
394,-58.228428,-25.024796,15.197986,0.618540,-0.023926,1.709987
395,-45.471885,-9.033341,9.033341,-0.829236,-0.173953,1.028580
396,-40.955215,-40.039673,11.596857,0.243046,0.080690,1.204608
397,-38.452735,-19.775692,0.671397,0.403937,0.136110,1.280537
398,-44.007019,-3.112840,2.197299,-0.130129,-0.089113,1.260761
399,-21.484703,-8.239872,1.770047,-0.048219,-0.067994,1.137591
400,-14.526589,-3.906310,1.709010,0.155398,0.015381,1.166766
401,-13.916228,5.004959,3.234913,-0.096681,-0.032959,1.011734
402,-8.300908,0.610361,3.051804,-0.039185,0.020386,1.025284
403,-10.009918,1.281758,3.112840,0.017945,0.018067,1.026505
404,-8.728161,1.953155,2.929732,-0.081544,0.027710,0.957778
405,-11.841001,-0.793469,2.868696,-0.015381,0.013062,1.022721
406,-9.704738,-1.159686,2.258335,-0.050538,0.009766,1.004288
407,-10.131991,-3.295949,2.136263,-0.031128,0.012573,1.012222
408,-10.131991,-4.211490,1.831083,-0.039673,0.018921,1.001724
409,-10.009918,-5.249104,1.709010,-0.035401,0.007080,1.006851
410,-10.742351,-5.127031,1.647974,-0.006958,0.001221,1.009903
411,-10.437171,-3.601129,1.709010,-0.025879,-0.007446,1.005631
412,-10.070954,-3.540093,1.770047,-0.041260,-0.000488,0.995621
413,-9.826810,-3.845274,1.892119,-0.011841,0.001465,0.991592
414,-10.559243,-3.723201,1.770047,-0.037110,-0.002686,0.995010
415,-10.254063,-3.967346,1.525902,-0.127565,0.092653,1.244282
416,-5.554284,-4.516670,2.563516,-0.010498,0.054200,0.952895
417,-12.512398,-3.845274,2.136263,-0.007935,-0.003784,0.949599
418,-13.122759,-2.380407,1.464866,-0.016236,-0.014282,1.041886
419,-12.817578,-1.464866,1.464866,-0.007568,-0.026490,1.041398
420,-11.230640,-0.061036,2.014191,-0.015137,-0.028687,1.018448
421,-11.047532,0.793469,2.197299,-0.026612,-0.026123,1.014298
422,-10.376135,1.342794,2.197299,-0.015381,-0.015625,1.022354
423,-11.718929,2.075227,2.502480,-0.026368,-0.037354,1.026749
424,-10.009918,4.516670,-1.159686,0.024292,-0.326909,0.697032
425,-7.141222,1.647974,-0.366217,-0.042725,-0.025147,1.051286
426,-14.343481,-1.098650,2.136263,-0.042725,-0.043946,1.031022
427,-4.882887,-0.183108,0.854505,-0.022827,-0.042603,0.992447
428,-6.958114,-0.915541,1.037613,-0.032959,-0.032593,1.007950
429,-6.225681,-1.098650,1.220722,-0.020508,-0.042725,1.026993
430,-3.418021,-0.915541,0.854505,-0.032471,-0.022705,0.983658
431,-4.882887,-1.647974,1.098650,-0.027588,-0.028443,0.988785
432,-5.920500,-2.014191,1.220722,-0.033570,-0.030640,0.994278
433,-3.479057,-2.807660,-1.159686,-0.083864,-0.103273,1.010025
434,-6.347753,-2.685588,0.671397,-0.021118,-0.024659,0.961807
435,-13.855192,-5.188067,2.685588,-0.041627,-0.020752,0.990494
436,-14.526589,-6.042573,2.807660,-0.035645,-0.025147,0.941421
437,-17.700465,-7.263294,2.685588,-0.026001,-0.033936,0.946304
438,-23.376822,-8.789197,3.906310,0.003906,-0.012696,0.990982
439,-24.536507,-8.178836,2.563516,-0.033814,-0.033570,0.985977
440,-26.245518,-9.155413,2.807660,-0.023194,-0.049317,0.995743
441,-25.329976,-9.277485,1.770047,-0.045045,-0.035035,0.969009
442,-26.489662,-10.742351,1.159686,-0.017456,-0.047486,0.982315
443,-28.809033,-11.230640,1.403830,-0.002686,-0.026001,1.016983
444,-33.264668,-9.643702,1.892119,-0.011353,-0.057984,1.013809
445,-35.339895,-9.460594,2.807660,-0.006836,-0.073854,1.004776
446,-31.128405,-8.056764,3.112840,0.008545,-0.058717,0.998550
447,-32.593271,-7.995727,2.929732,-0.068360,-0.059083,0.969986
448,-35.400931,-10.681315,3.479057,0.014527,-0.057130,1.004166
449,-40.466926,-9.887846,2.868696,-0.058228,-0.104372,1.009903
450,-40.466926,-6.897078,1.098650,0.044556,-0.086549,1.000992
451,-39.673457,-2.502480,1.159686,-0.013794,-0.080079,1.018204
452,-39.795529,-2.319371,-1.831083,-0.010986,-0.097780,0.974990
453,-42.298009,-2.685588,-4.089418,-0.041138,-0.069215,1.066056
454,-45.105669,-2.868696,-10.559243,-0.072999,-0.091554,1.040909
455,-53.833829,-0.854505,-29.724575,-0.067872,-0.128298,1.003555
456,-69.398032,5.432212,-39.063096,0.017823,-0.243778,1.104021
457,-55.603876,3.356985,-22.583352,0.117311,-0.353521,1.110124
458,-25.391012,-3.845274,-2.990768,-0.022705,-0.079957,1.016129
459,-54.383154,-0.549325,-14.465553,0.038575,0.045777,0.974502
460,-76.905470,0.732433,-20.813306,-0.013184,0.152590,0.819348
461,-113.466087,-1.709010,-17.456321,0.070069,0.186160,0.866468
462,-132.326238,-5.676356,-12.451362,0.032715,0.276371,0.594980
463,-183.169299,-5.065995,-33.752956,0.166751,0.970352,1.108415
464,-308.476387,-12.451362,-65.064469,-0.090578,0.574105,1.514916
465,-554.695964,2.624552,-38.757916,-0.161624,0.327031,1.606714
466,-677.500572,-26.733806,-2.441444,-0.444343,-0.011841,1.262226
467,-719.798581,-69.764248,17.334249,-0.024903,-0.063478,0.906264
468,-780.346380,-120.973526,25.757229,-0.003296,-1.152605,1.067643
469,-895.704585,-137.209125,156.374456,-1.036881,-0.724376,1.999969
470,-389.105058,-145.937285,4.699779,-0.936294,-1.494774,1.999969
471,163.454643,-107.240406,-27.588312,-0.521370,0.549203,1.999969
472,169.436179,-74.708171,-37.476158,-0.544442,1.149798,1.999969
473,7.995727,-35.767147,8.606088,-0.496101,0.938979,1.889799
474,-62.928206,-38.818952,39.063096,-0.404303,0.448493,1.354391
475,54.932479,6.469825,25.574121,-0.310063,0.378058,1.111467
476,115.358206,19.043259,13.427939,-0.257816,0.536141,0.628061
477,68.482490,12.756542,23.315785,-0.184085,0.438727,0.782605
478,91.493095,12.756542,24.292363,-0.190188,0.278935,0.992325
479,140.749218,12.878614,22.095064,-0.200565,0.344732,0.935073
480,144.960708,3.601129,26.611734,-0.169924,0.314092,0.911513
481,166.933700,-0.732433,26.733806,-0.099123,0.266117,0.908461
482,189.517052,1.525902,22.583352,-0.052369,0.291386,0.888685
483,195.315480,5.920500,18.554971,-0.041871,0.249271,0.969619
484,210.818647,12.085145,13.550011,-0.041871,0.187259,1.029068
485,227.847715,17.517357,8.606088,-0.049317,0.169070,1.091325
486,238.467994,21.118486,5.432212,-0.059571,0.129763,1.282979
487,254.398413,25.146868,4.455634,-0.096315,0.066407,1.510155
488,276.554513,27.405203,5.127031,-0.119753,-0.013550,1.632471
489,302.250706,28.259709,6.713970,-0.098390,-0.073243,1.584741
490,319.279774,28.442817,6.958114,-0.017212,-0.139040,1.449363
491,325.566491,29.602502,4.394598,0.071534,-0.252811,1.145647
492,317.998016,37.476158,-4.028382,0.220829,-0.407477,0.768322
493,289.494163,52.307927,-14.648661,0.372686,-0.486458,0.641123
494,257.267109,55.786984,-27.527276,0.354864,-0.437140,0.840711
495,235.294118,45.044633,-39.856565,0.321416,-0.343145,1.102434
496,222.049287,33.569848,-52.735180,0.210330,-0.286137,1.570214
497,205.325399,44.617380,-61.219196,0.055665,-0.315557,1.999969
498,204.226749,63.355459,-63.904784,-0.100465,-0.456916,1.999969
499,230.228122,78.980697,-60.425727,-0.239628,-0.649546,1.999969
500,254.154269,83.436332,-52.735180,-0.329473,-0.764050,1.999969
501,255.558099,75.074388,-36.621653,-0.388067,-0.949599,1.999969
502,264.042115,71.595331,-24.170291,-0.252079,-1.124651,1.643214
503,244.205386,83.497368,-15.197986,-0.145998,-1.029557,1.730983
504,215.274281,86.671244,-6.775006,-0.010864,-1.053605,1.999969
505,234.073396,87.830930,-5.310140,0.151125,-1.005875,1.909697
506,243.961242,87.708858,-7.507439,0.268070,-0.967056,1.618067
507,223.758297,80.811780,-5.920500,0.296757,-1.048600,1.370504
508,211.795224,63.111315,-1.953155,0.193851,-1.177508,1.359640
509,204.348821,41.321431,5.554284,0.066041,-1.366720,1.271382
510,194.766155,24.597543,15.503166,0.039673,-1.616602,1.079240
511,175.478752,19.836728,21.057450,0.132204,-1.849271,0.737926
512,147.463188,24.231327,18.066682,0.243290,-2.000031,0.420417
513,109.864958,33.142596,11.413748,0.335943,-2.000031,0.075319
514,69.031815,38.635843,5.127031,0.281010,-2.000031,-0.139406
515,22.827497,27.832456,12.390326,0.128176,-1.966461,-0.131960
516,-23.315785,1.403830,31.250477,-0.051148,-1.696437,0.281865
517,-42.114900,-26.184482,52.979324,-0.335821,-1.454246,-0.006592
518,-148.073548,-69.459068,62.073701,0.355230,-1.583642,-0.705455
519,-249.515526,-105.165179,64.698253,0.214481,-1.725856,0.138308
520,-132.509346,-44.007019,44.678416,0.141726,0.046265,1.253559
521,-124.879835,-57.862211,15.747311,-0.105226,0.816175,1.999969
522,-175.112535,-74.952316,52.246891,0.172488,0.589609,1.036271
523,-252.689403,-82.887007,54.505226,0.440681,-0.264164,0.427008
524,-264.835584,-62.806134,51.697566,0.606210,-0.241215,1.509178
525,-253.116655,-43.945983,41.809720,0.742687,-0.154665,1.999969
526,-174.868391,-20.813306,20.019837,0.429450,-0.287358,1.999969
527,-100.099184,-2.197299,3.723201,-0.347295,-0.116701,1.548363
528,-125.001907,-28.564889,25.207904,-0.958389,-0.174807,1.812161
529,-110.170138,-73.243305,51.575494,-0.501839,-0.316777,1.161883
530,-74.586099,-97.901884,44.434272,0.855726,0.321782,1.999969
531,-76.844434,-62.561990,23.987182,1.273213,0.112062,1.999969
532,-36.743725,-5.432212,8.606088,-0.354864,0.082887,1.182391
533,-50.843061,-30.457008,11.169604,-0.319707,0.071412,1.021134
534,-50.904097,-37.903410,5.920500,0.490608,0.041260,1.323140
535,-40.100710,-11.718929,0.000000,0.164797,0.061402,1.395285
536,-35.278859,-7.873655,3.356985,-0.106935,-0.067384,1.078752
537,-16.662852,-9.948882,-1.403830,0.080201,0.066529,1.024186
538,-28.931106,-4.821851,0.976577,0.051392,0.041382,1.005386
539,-29.602502,-3.723201,1.892119,-0.035523,0.023926,0.972671
540,-29.541466,-3.356985,1.037613,0.100099,0.022705,0.991348
541,-39.490349,3.051804,4.577707,0.054810,0.009888,1.055924
542,-33.264668,4.699779,6.042573,-0.001465,-0.023072,1.096208
543,-28.015564,5.859464,5.004959,-0.044923,0.178836,1.330343
544,-23.620966,3.845274,6.591897,0.007324,-0.004273,1.014542
545,-25.513085,2.685588,5.615320,-0.015137,-0.024414,0.982925
546,-21.911955,2.868696,4.028382,-0.010132,-0.022950,1.023941
547,-22.156100,2.685588,4.028382,-0.015747,-0.000244,0.989517
548,-24.719615,3.051804,4.699779,0.015625,-0.015137,1.011124
549,-24.658579,3.845274,4.699779,-0.019043,-0.035767,1.006241
550,-23.132677,3.723201,4.455634,-0.023194,-0.027466,1.069474
551,-16.235599,2.075227,6.103609,0.074464,0.088380,0.931411
552,-17.151141,4.943923,5.554284,-0.027466,-0.036744,0.982071
553,-16.968032,3.967346,4.821851,-0.004517,-0.051148,1.036637
554,-13.672084,3.295949,4.028382,-0.050050,-0.045655,1.002335
555,-15.503166,0.183108,4.211490,-0.032593,-0.058473,1.011856
556,-10.620279,-1.037613,4.028382,-0.021241,-0.064698,1.022110
557,-8.056764,-2.014191,3.601129,-0.016114,-0.033570,0.987808
558,-9.277485,-4.211490,3.356985,-0.025147,-0.031373,0.991470
559,-12.207218,-5.737392,3.234913,-0.003662,-0.036622,0.992447
560,-12.085145,-5.859464,2.929732,0.000366,-0.039796,1.008804
561,-12.085145,-5.981537,2.563516,-0.021485,-0.046143,0.984634
562,-12.695506,-6.836042,2.563516,-0.013672,-0.078614,1.007584
563,-11.535821,-7.507439,2.258335,-0.010254,-0.058839,1.035294
564,-7.141222,-7.751583,1.586938,-0.015259,-0.042603,1.021500
565,-5.371176,-8.850233,1.220722,-0.020752,-0.073243,0.973892
566,-5.676356,-10.620279,0.915541,-0.012940,-0.076539,0.979629
567,-5.859464,-11.657893,0.488289,0.005859,-0.028565,1.007462
568,-10.009918,-11.596857,0.976577,0.026246,-0.027588,0.962661
569,-15.625238,-11.108568,1.159686,0.018799,-0.060670,0.996109
570,-14.648661,-10.131991,2.197299,0.025391,-0.061402,1.020035
571,-14.709697,-8.789197,3.051804,0.021973,-0.080446,1.008438
572,-12.695506,-7.690547,4.028382,0.010132,-0.082643,1.025528
573,-10.254063,-7.141222,4.028382,0.023438,-0.089479,1.008804
574,-8.667124,-6.958114,4.150454,0.032349,-0.079225,0.985855
575,-5.493248,-6.652934,3.723201,0.031495,-0.055421,1.006363
576,-8.545052,-6.469825,3.234913,0.009400,-0.046998,0.966567
577,-12.512398,-7.812619,3.234913,0.020142,-0.030518,0.965103
578,-16.052491,-8.606088,2.197299,0.002441,-0.035645,0.957046
579,-21.606775,-9.521630,2.075227,0.021973,-0.043336,0.973770
580,-25.879301,-8.300908,1.403830,0.070069,-0.060426,1.099382
581,-25.757229,-4.028382,1.037613,0.029419,-0.097292,0.971817
582,-28.076600,-3.418021,3.112840,0.061891,-0.091066,1.010147
583,-29.419394,0.122072,5.554284,0.028443,-0.126467,1.021134
584,-26.306554,0.915541,7.019150,0.019898,-0.092531,1.032486
585,-28.137636,1.586938,6.591897,0.013306,-0.080568,0.985122
586,-31.555657,0.915541,5.249104,0.000000,-0.081910,0.987198
587,-34.058137,-0.183108,3.540093,-0.006104,-0.082887,0.987930
588,-35.706111,-1.464866,2.136263,0.003662,-0.078614,0.996475
589,-37.659266,-2.075227,-0.244144,0.004395,-0.107912,0.984146
590,-38.879988,-1.464866,-0.610361,0.002564,-0.153933,1.061173
591,-41.016251,-1.342794,-4.394598,-0.038087,-0.132082,1.019303
592,-37.354086,1.953155,-16.113527,-0.028931,-0.080079,1.018082
593,-50.354772,11.230640,-40.283818,0.026856,-0.165774,1.046769
594,-36.194400,12.817578,-37.109941,0.095216,-0.353033,1.028092
595,-4.577707,7.995727,-10.742351,0.112062,-0.192386,1.040543
596,-10.559243,7.446403,-5.371176,0.020874,-0.059693,1.035050
597,-42.481117,6.836042,-7.141222,0.043091,-0.010620,1.020035
598,-60.852979,7.995727,-10.315099,-0.005371,0.157473,0.957412
599,-100.160220,9.216449,-22.339208,-0.025879,0.136965,0.897475
600,-142.397192,0.793469,-18.371862,0.048585,0.044190,0.651377
601,-139.406424,-2.258335,-1.525902,0.159792,0.226688,0.725109
602,-164.431220,-11.902037,-44.983597,0.101198,0.692027,1.061540
603,-331.792172,-7.446403,-52.735180,-0.083742,0.673106,1.411643
604,-564.095522,-14.038300,-12.939651,-0.462409,0.359014,1.999969
605,-628.793774,-58.106355,24.780652,-0.280888,-0.266361,1.247822
606,-697.520409,-58.045319,27.100023,0.169070,-0.210208,1.097429
607,-714.122225,-62.134737,20.508125,0.029908,-0.730480,1.168475
608,-822.095064,-41.382467,123.170825,-1.313008,-1.240742,1.999969
609,-451.667048,-16.418708,29.236286,-1.479393,-0.972427,1.999969
610,111.268788,15.991455,-22.339208,-0.852552,0.255497,1.999969
611,152.895399,27.283131,-24.841688,-0.998795,0.692027,1.999969
612,-17.273213,15.686275,38.330663,-0.764172,0.482307,1.727077
613,-56.214237,-45.838102,94.483864,-0.530770,0.179934,1.426413
614,79.285878,-32.227054,90.211337,-0.177615,0.377203,1.214984
615,122.926680,-35.339895,75.074388,-0.007446,0.566415,0.787854
616,86.060884,-39.063096,74.341955,0.170657,0.492073,0.975113
617,117.860685,-26.306554,54.016938,0.349981,0.436774,1.146014
618,157.289998,-6.652934,23.498894,0.457038,0.511360,0.995010
619,161.989776,4.760815,-2.441444,0.439826,0.444099,0.856092
620,174.441138,8.911269,-24.780652,0.324224,0.341436,0.773327
621,189.394980,4.028382,-42.114900,0.206790,0.308843,0.804089
622,196.536202,-5.127031,-52.124819,0.070680,0.232547,0.928603
623,210.635538,-11.596857,-57.434958,-0.053468,0.158328,1.081804
624,227.359426,-11.718929,-59.632258,-0.152590,0.113527,1.180682
625,241.397726,-6.713970,-58.472572,-0.222293,0.062135,1.306050
626,256.107424,3.356985,-54.627298,-0.277592,-0.005615,1.400534
627,273.014420,13.977264,-49.256123,-0.293706,-0.054566,1.461204
628,286.381323,24.414435,-42.725261,-0.274418,-0.109743,1.534447
629,299.748226,35.523003,-37.964446,-0.182498,-0.177005,1.521874
630,312.687877,47.608148,-37.109941,-0.072511,-0.256352,1.290669
631,308.598459,58.777752,-40.466926,0.081422,-0.415045,0.869398
632,285.343709,72.449836,-46.753643,0.234989,-0.529915,0.557259
633,251.895933,76.966506,-54.810407,0.244511,-0.465095,0.777111
634,220.706493,68.116274,-63.111315,0.251347,-0.395636,1.248188
635,213.260090,60.791943,-72.083619,0.166262,-0.361334,1.731960
636,212.649729,63.599603,-77.027543,0.056031,-0.369757,1.999969
637,214.847028,75.562676,-79.407950,0.024170,-0.512703,1.999969
638,227.969787,91.737240,-79.407950,0.006836,-0.617197,1.999969
639,230.106050,100.770581,-73.609522,-0.024781,-0.675059,1.999969
640,231.509880,94.850080,-62.806134,0.040284,-0.794934,1.999969
641,244.998856,88.807507,-58.228428,0.290776,-0.874159,1.646998
642,230.899519,93.202106,-59.937438,0.416144,-0.808484,1.575097
643,205.386435,91.248951,-61.036088,0.413336,-0.842298,1.710964
644,213.260090,84.596017,-64.454108,0.370489,-0.849012,1.664698
645,213.870451,75.135424,-66.712444,0.311650,-0.829969,1.513695
646,200.625620,64.759289,-64.576181,0.219242,-0.887098,1.486961
647,198.001068,56.214237,-59.143969,0.075441,-0.958022,1.403586
648,192.202640,45.288777,-49.378195,-0.031861,-1.049577,1.222187
649,178.347448,36.072328,-36.621653,-0.099489,-1.174090,1.044572
650,161.440452,32.227054,-24.170291,-0.094362,-1.332296,0.890150
651,138.307774,34.058137,-11.413748,-0.016236,-1.559228,0.825086
652,114.503700,37.659266,2.380407,0.150271,-1.805203,0.606699
653,88.319219,37.109941,12.207218,0.330083,-2.000031,0.283452
654,58.045319,30.518044,20.202945,0.437629,-2.000031,-0.035035
655,21.545739,14.831769,31.921874,0.364508,-1.975250,-0.162600
656,-22.156100,-8.606088,51.941711,-0.005005,-1.987213,-1.264179
657,-134.340429,-118.226902,92.286564,0.374151,-1.538476,-0.871839
658,-217.654688,-189.944305,99.671931,1.061906,-1.589258,0.528206
659,-131.288624,-121.522850,52.063783,0.820325,0.158572,1.853666
660,-71.778439,-82.764935,14.099336,-0.138308,0.976944,1.999969
661,-120.119020,-71.839475,39.734493,-0.191043,0.843397,0.386969
662,-250.064851,-104.921035,52.246891,0.098024,-0.059449,-0.145388
663,-288.944839,-84.229801,62.134737,0.260502,-0.304814,1.059709
664,-271.000229,-90.150301,60.364691,1.025772,-0.163821,1.999969
665,-192.813001,-49.683375,30.518044,1.032731,-0.260624,1.999969
666,-106.752117,-23.620966,1.464866,0.276982,-0.131594,1.713527
667,-121.705959,-29.846647,14.343481,-0.778820,0.029786,1.999969
668,-119.630732,-65.308614,42.481117,-0.773449,-0.345586,1.340108
669,-83.802548,-93.263142,36.194400,0.666758,0.157229,1.999969
670,-65.796902,-59.266041,15.442130,1.177264,-0.020874,1.772854
671,-39.734493,-12.756542,4.272526,-0.306645,0.170047,1.119036
672,-65.491722,-38.147555,13.427939,-0.409796,-0.059815,1.155169
673,-34.729534,-50.782025,5.432212,0.376593,0.008423,1.316793
674,-24.597543,-29.907683,-2.380407,0.215457,0.134890,1.283589
675,-40.711070,-20.569162,2.746624,-0.017945,-0.066407,1.155169
676,-11.230640,-19.592584,-1.953155,0.015259,-0.004883,1.112444
677,-12.024109,-18.493935,-0.671397,0.078492,0.042847,1.040787
678,-16.540780,-11.718929,-0.244144,0.057252,0.006348,1.105730
679,-13.672084,-7.751583,1.342794,0.080690,0.027100,1.092302
680,-6.103609,-3.173877,2.807660,0.112428,0.020508,1.064714
681,-8.300908,3.173877,3.479057,0.046143,0.025635,1.037369
682,-6.164645,5.188067,4.943923,0.023194,0.047974,0.969619
683,-9.338521,7.202258,4.272526,0.010132,0.064088,0.957534
684,-15.075914,7.324331,4.699779,-0.009033,0.062623,0.930434
685,-18.493935,6.408789,4.028382,0.010620,0.060426,0.960830
686,-23.437858,5.981537,2.441444,-0.005615,0.035035,0.977676
687,-26.550698,3.601129,2.563516,-0.003906,-0.023560,1.031754
688,-19.836728,2.868696,2.075227,0.025269,-0.028199,1.071427
689,-16.601816,4.150454,-1.037613,0.038209,-0.192752,0.978531
690,-13.305867,5.981537,1.342794,0.017578,-0.019165,1.044450
691,-10.254063,6.836042,1.892119,0.017334,0.005371,1.035050
692,-12.024109,7.507439,2.014191,0.023316,-0.023560,1.040299
693,-7.568475,8.422980,1.647974,0.011841,-0.014038,1.023697
694,-6.897078,8.545052,1.709010,0.005615,-0.019409,1.005509
695,-5.554284,8.667124,1.647974,-0.011719,-0.050660,0.988663
696,-7.812619,7.324331,2.014191,-0.008545,-0.017700,0.967910
697,-7.934691,6.286717,2.014191,-0.024170,-0.007568,0.991348
698,-9.094377,4.943923,2.014191,-0.011597,-0.014771,0.988418
699,-9.338521,4.516670,1.892119,-0.000122,-0.023682,1.011856
700,-8.789197,4.821851,2.258335,-0.006470,-0.020874,1.008316
701,-9.155413,4.150454,2.075227,-0.005615,-0.028077,1.010269
702,-6.836042,4.638743,1.831083,0.003174,-0.033326,1.021378
703,-5.676356,5.004959,2.136263,0.005249,-0.036011,1.020157
704,-4.516670,5.737392,2.441444,-0.009522,-0.024781,0.996353
705,-5.859464,5.310140,2.685588,-0.014038,-0.001099,0.972305
706,-9.521630,4.516670,2.929732,-0.014527,-0.014405,0.977798
707,-10.681315,4.211490,3.051804,-0.017823,-0.023926,0.984756
708,-11.841001,4.211490,3.356985,-0.003052,-0.028443,1.006973
709,-12.207218,4.821851,3.784237,-0.000366,-0.041749,1.017105
710,-10.925460,5.493248,3.906310,-0.005249,-0.028443,1.005020
711,-11.413748,5.493248,4.028382,-0.005493,-0.029664,0.988052
712,-12.817578,5.310140,3.906310,-0.009277,-0.027344,0.981949
713,-15.259022,4.333562,3.784237,-0.021485,-0.024414,0.975845
714,-18.371862,3.723201,3.906310,-0.026978,-0.035035,0.976577
715,-20.141909,2.624552,4.150454,-0.038819,-0.034302,0.965835
716,-21.057450,1.647974,4.089418,-0.019043,-0.035157,0.989273
717,-22.766461,0.732433,3.784237,-0.028443,-0.046143,0.960586
718,-24.597543,-1.770047,3.784237,-0.048585,0.006592,0.923598
719,-28.625925,-3.784237,2.929732,-0.028443,0.001587,0.936538
720,-43.518730,-5.554284,4.577707,-0.031617,-0.071290,1.017472
721,-37.354086,-4.516670,4.394598,-0.001343,-0.097658,1.049454
722,-32.837415,-2.502480,2.929732,0.007080,-0.082887,1.035538
723,-35.461967,-1.709010,3.234913,-0.074708,-0.092897,1.035660
724,-32.593271,-3.112840,3.906310,0.019409,-0.056886,1.033097
725,-35.767147,-2.258335,2.563516,-0.070314,-0.067994,0.967666
726,-36.926833,-6.408789,0.427253,-0.023560,-0.060060,0.950088
727,-41.809720,-8.239872,-1.037613,-0.058228,-0.050416,0.984512
728,-46.448463,-10.498207,-2.929732,0.025757,-0.120607,1.100481
729,-40.711070,-6.286717,-5.371176,-0.051759,-0.142947,0.997818
730,-40.772107,-7.080186,-11.352712,-0.092287,-0.070558,1.103655
731,-41.138323,0.671397,-26.794842,-0.048829,-0.130007,0.949966
732,-60.669871,4.150454,-43.152514,0.010620,-0.188724,1.067277
733,-44.007019,1.281758,-28.870069,0.080568,-0.308232,1.073625
734,-38.391699,-2.136263,-10.254063,-0.008545,-0.086915,0.988052
735,-61.585412,-5.554284,-16.113527,-0.054810,-0.096559,1.043961
736,-64.881361,-13.855192,-19.470512,0.010254,0.057618,0.932387
737,-82.459754,-13.611048,-23.010605,0.017456,0.109010,0.941299
738,-120.973526,-14.221408,-10.193027,0.108278,0.085817,1.019669
739,-130.189975,-11.291676,5.004959,0.037476,0.202762,0.824109
740,-173.769741,-0.183108,-26.977951,0.211795,1.147845,0.952895
741,-380.193790,7.324331,-51.270314,0.307988,0.888808,0.809094
742,-643.198291,20.447089,0.915541,0.126711,0.869642,1.999969
743,-761.730373,29.785611,27.954528,0.091066,0.170291,1.958038
744,-796.398871,50.598917,37.964446,0.293706,-0.036988,1.221820
745,-902.967880,73.609522,64.637217,0.544564,-2.000031,1.999969
746,-862.623026,63.233387,166.201267,-2.000031,-0.042969,1.999969
747,43.152514,-29.358358,-50.110628,-0.924208,-0.820203,1.999969
748,406.805524,-13.000687,-27.283131,-0.918227,0.681163,1.999969
749,200.503548,-37.537194,2.502480,-0.028687,0.905653,0.391730
750,26.916915,-81.483177,86.610208,-0.261479,0.648447,-0.138064
751,-50.965133,-117.189288,79.530022,0.239994,0.532113,0.150393
752,66.529335,-81.544213,37.293050,0.362310,0.466194,0.339239
753,73.060197,-56.275273,-5.859464,0.368780,0.642344,0.362188
754,21.728847,-27.710384,-20.996414,0.319707,0.546639,0.773938
755,51.697566,-0.854505,-43.884947,0.129030,0.447761,0.962905
756,94.605936,-1.098650,-59.021897,-0.017700,0.517830,1.006851
757,102.845808,-21.667811,-56.580453,-0.173953,0.451789,1.183734
758,137.636378,-39.307240,-52.124819,-0.268437,0.336797,1.316548
759,179.446098,-42.236973,-47.608148,-0.319951,0.289555,1.164202
760,194.338903,-33.813993,-39.978637,-0.379767,0.196048,1.054337
761,203.250172,-22.705425,-29.053178,-0.431525,0.079713,0.982071
762,218.142977,-16.296635,-18.921187,-0.456184,-0.023316,0.808606
763,223.331044,-10.070954,-7.934691,-0.449958,-0.040162,0.716075
764,216.800183,-1.953155,2.685588,-0.456794,-0.080812,0.797375
765,214.908064,7.019150,13.183795,-0.449714,-0.058350,1.111101
766,221.438926,15.686275,23.315785,-0.406867,-0.082643,1.342184
767,233.524071,24.658579,31.433585,-0.355962,-0.173342,1.388937
768,243.839170,34.607462,37.415122,-0.286503,-0.304448,1.296162
769,245.304036,45.410849,42.481117,-0.211307,-0.377569,1.307027
770,241.275654,50.843061,47.058824,-0.056031,-0.369268,1.402365
771,244.998856,49.927520,44.495308,0.156374,-0.326421,1.547875
772,247.318227,46.204318,34.485389,0.278202,-0.287846,1.668116
773,245.487144,43.579767,19.958801,0.343999,-0.346441,1.923003
774,248.355840,49.134051,4.577707,0.316045,-0.429694,1.999969
775,260.440986,47.791257,-9.582666,0.220340,-0.486458,1.999969
776,278.324559,36.316472,-19.226368,0.093751,-0.682506,1.999969
777,298.405432,33.081559,-32.043946,0.024903,-0.849866,1.422873
778,263.065538,43.152514,-38.696880,-0.214237,-0.860365,1.565698
779,226.688029,48.279545,-35.095750,-0.458259,-0.937514,1.999969
780,241.824979,53.406577,-26.916915,-0.610483,-0.970474,1.999969
781,271.000229,56.153201,-14.526589,-0.529061,-0.958633,1.999969
782,285.465782,59.266041,-3.234913,-0.239628,-0.886976,1.978302
783,288.822766,67.261769,-0.183108,0.375982,-0.800549,1.618189
784,270.695048,79.224842,-10.498207,0.660410,-0.777966,1.418601
785,247.440299,70.557717,-21.240558,0.721569,-0.845960,1.400534
786,239.383536,45.227741,-31.372549,0.594614,-0.980362,1.391867
787,230.716411,15.625238,-41.016251,0.448371,-1.184100,1.294453
788,211.245899,1.831083,-53.284504,0.398199,-1.555444,1.077409
789,173.098344,13.855192,-72.938125,0.517464,-2.000031,0.793225
790,124.025330,51.270314,-97.596704,0.593881,-2.000031,0.375128
791,86.549172,96.131838,-114.320592,0.369512,-2.000031,-0.228275
792,56.214237,97.535668,-97.413596,-0.018799,-2.000031,-0.663096
793,-6.347753,27.344167,-51.880674,-0.510018,-2.000031,-0.539193
794,-118.104829,-117.555505,4.882887,-0.431281,-2.000031,-1.283589
795,-220.523384,-251.163500,52.613108,0.639292,-1.838407,0.007813
796,-232.242313,-181.582361,29.358358,0.550790,-0.781262,1.794339
797,-110.414282,-73.914702,-3.967346,-0.633921,0.522713,1.999969
798,-125.612268,-74.647135,21.118486,-0.813489,0.707774,1.262593
799,-251.956970,-109.803922,62.317845,-0.143679,0.172366,0.211673
800,-298.893721,-83.619440,76.295109,0.303960,-0.427131,0.847791
801,-288.456550,-70.862898,74.464027,1.172015,-0.278813,1.999969
802,-227.786679,-30.395972,46.692607,1.786893,0.003052,1.999969
803,-122.865644,34.790570,-11.047532,0.806775,-0.183230,1.841825
804,-120.790417,46.692607,-17.761501,-0.729137,0.069215,1.751369
805,-157.717250,-2.807660,22.766461,-1.728054,-0.519295,1.865263
806,-69.886320,-80.201419,40.466926,-0.457404,-0.210208,1.468772
807,-67.139696,-102.906844,36.865797,1.271992,0.294682,1.999969
808,-48.645762,-33.630884,6.347753,0.805310,-0.063966,1.429465
809,-50.293736,-7.751583,6.591897,-0.662974,-0.077638,1.192157
810,-48.035401,-44.800488,13.427939,-0.080079,0.017578,1.184710
811,-24.841688,-36.682689,1.770047,0.466316,0.156374,1.249775
812,-43.091478,-16.723888,2.136263,-0.063111,-0.020020,1.204852
813,-26.123445,-16.723888,0.427253,-0.023316,-0.083253,1.182635
814,-8.056764,-12.634470,-2.197299,0.100099,0.072267,1.035782
815,-23.315785,-8.361944,1.342794,-0.031617,-0.016602,1.066911
816,-10.437171,-8.789197,0.671397,-0.001099,-0.005005,1.016617
817,-10.437171,-6.897078,0.427253,0.071168,0.058961,1.001358
818,-18.493935,-2.868696,2.319371,0.043336,-0.007935,1.068132
819,-11.657893,-0.610361,2.319371,0.024292,0.002075,1.043839
820,-11.718929,2.319371,1.342794,0.025147,0.057740,1.026749
821,-13.611048,1.953155,3.051804,0.007080,-0.032227,1.004166
822,-10.803388,0.427253,2.563516,-0.004761,-0.001587,0.983413
823,-11.047532,-0.976577,2.014191,-0.014893,0.008545,0.983780
824,-12.207218,-3.479057,1.586938,-0.036744,0.000244,0.981338
825,-12.024109,-5.615320,1.342794,-0.005371,-0.004883,1.009781
826,-9.704738,-6.347753,0.549325,-0.024537,0.069459,1.070939
827,-7.995727,-5.432212,1.831083,0.013794,0.028687,1.026261
828,-9.887846,-5.065995,2.136263,-0.002441,0.002686,1.024308
829,-7.812619,-4.638743,1.647974,0.009888,-0.005493,0.949966
830,-9.338521,-4.882887,2.014191,0.021851,-0.037964,0.970840
831,-12.024109,-4.272526,2.441444,-0.002564,0.028321,1.051530
832,-9.765774,-3.784237,2.136263,0.013062,-0.012940,1.004898
833,-11.108568,-3.418021,2.136263,0.002075,-0.002075,0.991836
834,-11.474784,-2.746624,0.366217,0.036378,-0.044068,0.906264
835,-9.338521,-4.760815,1.159686,0.006958,-0.045899,1.040787
836,-11.169604,-5.615320,1.159686,-0.012696,-0.013794,1.007095
837,-9.826810,-5.676356,0.732433,0.012207,-0.049928,0.962295
838,-7.751583,-5.676356,0.915541,0.023194,-0.081056,0.971572
839,-9.216449,-5.310140,1.037613,0.000977,0.003540,1.000137
840,-10.681315,-5.859464,1.342794,0.012085,-0.018189,1.008927
841,-11.474784,-5.432212,1.037613,0.022583,-0.026490,0.998917
842,-13.550011,-4.821851,1.159686,0.021729,-0.016846,1.021622
843,-10.864424,-3.601129,0.732433,0.026246,-0.060182,0.944839
844,-13.366903,-3.784237,0.854505,0.015503,-0.017456,0.994400
845,-15.991455,-4.272526,1.342794,0.034058,-0.018433,1.007095
846,-14.709697,-3.234913,1.037613,0.026123,-0.069703,0.978653
847,-16.113527,-3.112840,1.037613,0.030762,-0.068238,0.981338
848,-16.174563,-3.234913,1.037613,0.019654,-0.018555,0.970230
849,-20.996414,-4.394598,1.037613,0.003784,-0.015869,0.972427
850,-25.696193,-5.737392,1.098650,0.016236,-0.004395,0.943008
851,-31.738766,-6.347753,1.098650,0.008911,-0.020020,0.959243
852,-36.377508,-7.690547,0.488289,0.024170,-0.047364,0.987076
853,-34.302281,-6.408789,0.793469,0.012573,-0.059693,0.989273
854,-35.217823,-7.324331,1.586938,0.005371,-0.067750,1.008682
855,-33.386740,-8.850233,2.197299,0.028077,-0.071046,0.957412
856,-33.386740,-9.704738,1.647974,0.002564,-0.065064,0.996231
857,-40.772107,-8.911269,0.671397,0.060060,-0.092409,1.110857
858,-35.706111,-5.798428,-0.122072,0.026246,-0.111940,1.053605
859,-32.837415,-1.586938,2.319371,0.133669,-0.083864,0.905409
860,-39.307240,0.244144,5.249104,0.079713,-0.076783,1.054582
861,-43.884947,2.319371,6.897078,0.021607,-0.092042,0.985122
862,-41.687648,4.333562,6.469825,0.040162,-0.060792,0.998306
863,-50.293736,5.004959,5.371176,-0.014527,-0.068360,0.996841
864,-55.420768,2.990768,3.540093,0.001953,-0.121584,1.027726
865,-52.002747,2.685588,0.366217,-0.027710,-0.137697,0.991958
866,-48.767834,1.647974,-6.836042,-0.043214,-0.149783,1.079240
867,-39.612421,-0.061036,-16.052491,-0.084230,-0.242557,1.144793
868,-57.740139,11.352712,-40.344854,-0.012329,-0.201785,1.047013
869,-46.387427,5.615320,-38.208591,0.057374,-0.369146,1.023087
870,-22.156100,-5.981537,-18.432898,0.137331,-0.284062,1.103044
871,-12.207218,-3.601129,-7.507439,0.139773,-0.158938,1.071916
872,-29.236286,5.615320,-3.723201,0.117189,0.108888,1.008682
873,-73.060197,21.057450,-22.156100,0.089113,0.161013,0.966567
874,-118.348974,28.442817,-30.579080,0.052491,0.243290,0.872084
875,-169.375143,26.001373,-39.795529,-0.132326,0.452522,0.298344
876,-178.896773,-21.789883,-18.860151,-0.156863,0.870130,0.802747
877,-342.595560,-24.109255,-63.416495,-0.022217,0.938857,1.477562
878,-570.870527,-60.242618,-75.745785,-0.787854,0.085817,1.440330
879,-688.609140,-150.576028,-8.484016,-0.164309,-0.000977,1.262959
880,-786.816205,-212.588693,34.973678,-0.162356,-0.354009,1.213397
881,-883.009079,-203.189136,74.280919,0.211673,-1.401999,1.673365
882,-1057.145037,-122.438392,246.463722,-1.072160,-1.221454,1.999969
883,-310.368505,-50.965133,2.075227,-1.151995,-2.000031,1.999969
884,247.562371,1.342794,-8.850233,-0.994278,0.596567,1.999969
885,116.212711,32.593271,-4.699779,-0.599374,0.765026,1.567773
886,-71.290150,-6.408789,93.324178,-0.964004,0.636240,1.647852
887,-112.245365,-75.745785,154.726482,-0.528573,0.183719,1.718776
888,60.669871,-51.026169,145.815213,-0.205814,0.405524,1.613916
889,162.478065,-47.791257,114.564736,0.019898,0.596078,1.094743
890,120.546273,-44.678416,111.573968,0.290410,0.584726,1.143328
891,132.204166,-26.977951,91.615167,0.450446,0.436530,1.224262
892,195.925841,-0.610361,51.697566,0.550301,0.467536,0.968399
893,207.217517,14.648661,18.005646,0.524910,0.431403,0.648814
894,200.381476,19.470512,-6.836042,0.492439,0.330327,0.535164
895,210.269322,25.085832,-31.250477,0.368780,0.249760,0.643076
896,212.893874,24.902724,-45.777066,0.190188,0.155276,0.772717
897,219.241627,16.662852,-51.026169,0.023316,0.036378,0.992447
898,237.491417,4.272526,-49.500267,-0.129152,-0.053101,1.150652
899,254.947738,-9.338521,-41.809720,-0.218509,-0.048219,1.347189
900,272.159915,-16.662852,-34.241245,-0.195438,-0.146853,1.398093
901,293.461509,-11.718929,-29.480430,-0.154299,-0.176638,1.382223
902,300.968948,-1.342794,-26.489662,-0.092409,-0.191653,1.402853
903,304.325933,13.183795,-26.062409,-0.021607,-0.231937,1.533837
904,311.528191,29.724575,-28.992142,0.075807,-0.295659,1.490990
905,316.777295,46.997787,-36.560616,0.140261,-0.429938,1.242817
906,306.828412,69.092851,-45.227741,0.227543,-0.560555,0.891859
907,276.493477,87.891966,-52.735180,0.220706,-0.608896,0.879408
908,240.299077,93.812467,-55.237659,0.120485,-0.630747,1.111955
909,225.833524,88.563363,-55.664912,0.010010,-0.624887,1.405051
910,217.959869,79.835203,-50.598917,-0.062013,-0.558602,1.757473
911,211.245899,74.158846,-42.236973,-0.058595,-0.530159,1.999969
912,219.058518,70.557717,-36.621653,0.006958,-0.564340,1.999969
913,235.965515,71.900511,-34.607462,0.090578,-0.591684,1.999969
914,250.003815,70.923934,-33.936065,0.140505,-0.618418,1.999969
915,267.460136,63.721675,-34.058137,0.210452,-0.701305,1.999969
916,287.418936,58.594644,-37.598230,0.298344,-0.731945,1.999969
917,284.794385,56.946670,-42.603189,0.351934,-0.729992,1.680079
918,269.596399,53.284504,-48.645762,0.350591,-0.732067,1.587304
919,258.426795,47.791257,-56.885634,0.335332,-0.743664,1.601465
920,249.820707,47.669184,-65.980011,0.297490,-0.769177,1.576806
921,238.345922,54.383154,-73.670558,0.228763,-0.853285,1.431662
922,221.622034,61.951629,-77.759976,0.104128,-1.001602,1.226337
923,198.367285,66.468299,-76.234073,-0.040528,-1.231464,1.066056
924,172.060731,71.595331,-68.360418,-0.099367,-1.519921,0.927993
925,139.101244,79.530022,-57.679103,-0.027222,-1.885527,0.927993
926,102.784772,93.080034,-44.068055,0.055299,-2.000031,0.886732
927,85.877775,105.043107,-24.780652,0.148196,-2.000031,0.268193
928,80.811780,74.219883,-6.530861,0.184817,-2.000031,-0.517708
929,30.151827,4.028382,26.184482,0.197024,-1.914092,-0.622812
930,-44.373236,-68.177310,58.228428,0.159182,-1.572412,0.178470
931,-75.989929,-108.461128,67.078660,0.074098,-1.875883,-1.061540
932,-166.079194,-163.088426,83.741512,0.196414,-1.216327,0.229862
933,-213.626307,-167.849241,78.614481,0.258427,-1.698268,0.479011
934,-170.412757,-99.122606,72.510872,-0.024659,-0.195926,1.404074
935,-115.114061,-64.271000,54.688334,-0.212161,0.621592,1.696193
936,-151.735714,-58.899825,74.280919,0.089723,0.730114,0.869642
937,-266.178378,-95.094224,83.924620,0.625620,-0.001221,0.802258
938,-259.586481,-69.581140,74.769207,0.843030,-0.275883,1.132830
939,-224.917983,-56.763561,56.214237,1.069474,0.010254,1.999969
940,-233.157855,-36.438544,37.659266,1.161883,-0.098878,1.999969
941,-141.298543,-9.948882,3.723201,0.427619,-0.282963,1.984771
942,-98.756390,-2.258335,-5.249104,-0.611704,0.024659,1.471458
943,-142.702373,-46.326390,30.762188,-1.080583,-0.524056,1.519921
944,-81.177996,-94.239719,41.809720,-0.023438,-0.046387,1.827665
945,-79.285878,-98.268101,29.663539,1.308736,0.183108,1.999969
946,-51.270314,-31.921874,12.268254,0.389166,0.001831,1.252216
947,-59.937438,-24.536507,5.127031,-0.601450,-0.003052,1.278096
948,-63.965820,-57.434958,15.869383,0.090333,-0.017578,1.163348
949,-34.058137,-43.335622,1.647974,0.375860,0.192996,1.506737
950,-52.063783,-26.123445,3.662165,-0.019776,-0.102541,1.074601
951,-23.498894,-26.794842,0.000000,-0.082399,-0.055055,1.214862
952,-10.559243,-29.785611,-0.671397,0.090944,0.039551,1.003189
953,-23.865110,-24.414435,0.488289,0.086183,-0.045289,1.130877
954,-8.606088,-19.409476,0.061036,0.033814,0.003418,1.048356
955,-7.629511,-16.174563,0.854505,0.116213,0.060914,0.969619
956,-19.653620,-8.972305,3.479057,0.080323,0.013916,0.991714
957,-18.432898,-5.004959,2.441444,0.054200,-0.053590,1.039078
958,-17.212177,-3.967346,5.004959,0.085939,0.020508,1.001358
959,-21.057450,-2.014191,4.211490,0.011475,0.005982,1.020157
960,-21.789883,-3.845274,3.906310,0.033326,0.028443,1.045548
961,-19.775692,-4.516670,2.685588,0.020264,0.005249,1.007828
962,-18.799115,-3.845274,1.586938,0.044923,-0.012207,1.017105
963,-18.982223,-3.356985,1.647974,0.046509,-0.026612,1.063127
964,-14.770733,-1.037613,1.220722,0.067140,-0.091432,0.950576
965,-15.014878,1.281758,1.709010,0.075563,-0.069947,0.978653
966,-17.517357,2.258335,2.990768,0.023682,0.065187,1.084733
967,-18.249790,2.746624,4.150454,0.053468,-0.016236,1.022965
968,-17.090105,3.356985,4.028382,0.022095,-0.012207,1.032853
969,-15.320058,2.929732,3.051804,0.014649,-0.011963,1.013077
970,-13.733120,2.075227,1.709010,0.029419,-0.090822,0.969863
971,-11.474784,1.403830,0.915541,0.041016,-0.105837,0.983536
972,-10.070954,0.000000,0.671397,0.025025,-0.088991,0.973404
973,-10.498207,-1.464866,0.671397,0.009522,-0.022217,1.002335
974,-9.704738,-2.258335,0.427253,0.028077,-0.046754,0.975723
975,-11.047532,-2.807660,0.549325,0.022217,-0.023926,1.004410
976,-11.413748,-3.234913,0.976577,0.025147,-0.023560,0.993790
977,-11.474784,-3.784237,0.488289,0.020508,-0.021241,0.980240
978,-13.672084,-4.333562,0.061036,0.036500,-0.041260,1.004654
979,-13.672084,-4.699779,0.000000,0.043214,-0.046754,1.012100
980,-12.024109,-4.150454,-0.305180,0.050782,-0.073732,0.995254
981,-12.146181,-4.089418,-0.366217,0.034546,-0.067506,1.012833
982,-10.376135,-3.906310,0.000000,0.047608,-0.063966,1.007340
983,-9.765774,-3.112840,0.427253,0.056275,-0.082399,0.991836
984,-8.789197,-2.868696,1.342794,0.039673,-0.058106,0.972549
985,-10.437171,-3.967346,1.892119,0.033692,-0.023072,0.992447
986,-13.183795,-4.333562,1.403830,0.024781,-0.047120,0.955581
987,-14.953841,-6.042573,1.098650,0.013672,-0.035645,0.970474
988,-17.822538,-5.004959,-0.793469,0.087282,-0.050782,1.026505
989,-21.179522,-1.953155,-1.525902,0.064454,-0.038819,0.976455
990,-26.245518,0.671397,-0.854505,0.095949,-0.071656,1.034928
991,-26.916915,3.845274,1.098650,0.047608,-0.101686,1.010636
992,-23.682002,5.004959,2.014191,0.010864,-0.162600,1.207904
993,-28.320745,4.943923,3.356985,0.021729,-0.111940,1.009293
994,-24.963760,4.882887,4.699779,0.023560,-0.112062,0.988663
995,-24.963760,6.530861,7.934691,0.113771,-0.084840,1.000015
996,-36.194400,9.338521,10.498207,0.035157,-0.074952,0.988418
997,-36.133364,8.422980,10.070954,0.011963,-0.072267,0.968276
998,-37.048905,7.324331,7.019150,0.021118,-0.044800,0.976211
999,-48.828870,5.737392,5.127031,0.021607,-0.082399,0.992813
1000,-49.988556,5.432212,2.746624,-0.009277,-0.110109,0.966690
1001,-44.434272,2.197299,0.061036,-0.008667,-0.113161,1.053483
1002,-42.481117,0.793469,-6.347753,-0.042115,-0.166018,1.013809
1003,-34.363317,-1.953155,-12.451362,-0.009033,-0.101686,1.083635
1004,-46.509499,8.545052,-34.546426,0.018555,-0.022461,0.960586
1005,-51.819638,10.315099,-44.373236,0.107668,-0.335821,1.097551
1006,-28.931106,2.258335,-20.630198,0.132937,-0.345098,1.141741
1007,-16.784924,1.159686,-0.183108,0.076539,-0.167849,1.058122
1008,-27.344167,7.080186,1.342794,0.025879,0.085817,1.000015
1009,-68.787671,13.000687,-9.643702,0.031373,0.113283,0.977066
1010,-117.067216,21.057450,-15.564202,0.127443,0.078004,0.915297
1011,-143.434806,25.513085,-12.268254,-0.086183,0.255497,0.804944
1012,-152.773327,-5.371176,-19.836728,-0.265385,0.397101,0.780163
1013,-217.959869,-21.362631,-12.268254,-0.082643,1.052873,1.445212
1014,-479.072251,-5.127031,-58.472572,0.244022,0.511482,1.332418
1015,-664.072633,-67.627985,17.517357,-0.682261,-0.018555,1.999969
1016,-792.858778,-144.533455,56.946670,-0.206546,0.041382,1.563012
1017,-879.530022,-167.971313,91.615167,-0.075807,-0.409430,1.428122
1018,-1089.250019,-162.966354,187.685969,-0.460090,-0.721080,1.999969
1019,-471.503777,-57.190814,98.268101,-1.152972,-0.795178,1.999969
1020,332.402533,3.906310,-64.942397,-0.272099,0.956558,1.999969
1021,403.143359,4.211490,-69.825284,-0.746960,1.223651,1.612818
1022,135.378042,-13.427939,-68.482490,-0.491829,0.808484,0.647959
1023,-15.320058,-72.938125,36.743725,-0.414313,0.396490,-0.107546
1024,-47.547112,-85.450523,51.392386,-0.048707,0.437629,0.261723
1025,41.199359,-44.129091,-3.906310,-0.150393,0.092775,0.733043
1026,101.014725,-16.906996,-16.784924,-0.113161,0.493172,0.833509
1027,65.491722,-6.652934,-15.259022,-0.133547,0.560678,0.927626
1028,70.496681,-3.906310,-17.212177,-0.204105,0.420172,1.203876
1029,124.391547,-3.540093,-21.850919,-0.203372,0.421515,1.198505
1030,155.397879,-6.286717,-23.254749,-0.193484,0.463508,1.183124
1031,165.407797,-4.699779,-22.644388,-0.171511,0.411749,1.335348
1032,194.094759,9.033341,-25.207904,-0.151614,0.317388,1.414206
1033,226.016632,26.977951,-27.588312,-0.133547,0.244999,1.345846
1034,244.205386,37.659266,-27.283131,-0.123659,0.146242,1.210101
1035,260.807202,42.908370,-26.001373,-0.114382,0.040162,1.108415
1036,274.540322,46.082246,-23.193713,-0.069459,-0.015991,0.985000
1037,278.141451,41.199359,-19.104295,-0.011597,0.001099,1.067887
1038,279.911498,28.747997,-16.845960,0.084352,0.008301,1.268330
1039,293.461509,20.263981,-21.301595,0.182254,-0.030640,1.366476
1040,310.978866,26.489662,-34.607462,0.269657,-0.235599,0.998917
1041,305.790799,52.613108,-48.767834,0.308476,-0.389532,0.631235
1042,259.708553,76.600290,-55.237659,0.286503,-0.381353,0.705577
1043,222.842756,80.994888,-60.914015,0.281376,-0.326421,1.101946
1044,216.983291,73.975738,-65.491722,0.196414,-0.215091,1.677638
1045,217.166400,71.229114,-67.444877,0.140871,-0.283574,1.999969
1046,226.321813,81.544213,-64.942397,0.047974,-0.394781,1.999969
1047,247.379263,95.033188,-60.059510,-0.032715,-0.592050,1.999969
1048,256.534676,104.127565,-50.659953,-0.054810,-0.732067,1.999969
1049,246.219577,97.535668,-38.086519,-0.078614,-0.775158,1.999969
1050,245.914397,84.596017,-25.513085,-0.074220,-0.846693,1.999969
1051,286.076143,81.849393,-16.845960,-0.056153,-0.986343,1.999969
1052,321.355001,91.065843,-13.672084,-0.101564,-0.993057,1.999969
1053,294.621195,91.920348,-3.723201,0.007568,-1.012711,1.718776
1054,285.709926,95.521477,1.403830,0.377935,-0.982681,1.675807
1055,273.258564,101.503014,-0.122072,0.429328,-0.994888,1.719875
1056,252.018006,95.521477,4.577707,0.318730,-1.250507,1.671778
1057,250.614176,81.177996,15.625238,0.162600,-1.567285,1.364889
1058,224.368658,66.041047,28.259709,0.136721,-2.000031,0.989517
1059,172.610056,62.561990,42.114900,0.497078,-2.000031,0.591806
1060,110.597391,80.872816,23.559930,0.876722,-2.000031,0.429450
1061,78.187228,129.762722,-27.222095,0.832532,-2.000031,0.190921
1062,67.689021,160.097658,-42.053864,0.393927,-2.000031,-0.320439
1063,-2.319371,106.385901,-17.334249,-0.061524,-2.000031,-0.385260
1064,-54.016938,6.408789,27.893492,-0.437018,-2.000031,-2.000031
1065,-173.098344,-157.534142,79.285878,0.306035,-1.570459,-0.669200
1066,-272.404059,-197.268635,70.740826,0.945937,-1.344503,1.224262
1067,-133.119707,-77.882048,38.696880,-0.097292,-0.024659,1.999969
1068,-74.097810,-65.552758,27.344167,-0.610727,0.983658,1.579370
1069,-138.368811,-82.581827,57.984283,-0.075319,0.602670,-0.465461
1070,-286.503395,-87.953002,69.642176,0.502327,-0.206546,-0.580087
1071,-358.220798,-73.914702,78.675517,1.017838,-0.206180,1.999969
1072,-308.110170,-48.401617,59.327077,1.792142,-0.363531,1.999969
1073,-149.904631,17.151141,-3.173877,1.349508,-0.325322,1.999969
1074,-140.199893,20.813306,-22.888533,-0.661265,-0.028443,1.999969
1075,-182.803082,-10.193027,20.325017,-2.000031,-0.978408,1.983185
1076,-75.928893,-95.338369,53.162432,-0.677745,-0.412360,1.399557
1077,-73.121233,-122.621500,43.640803,1.878691,0.347295,1.999969
1078,-44.312200,-25.940337,1.892119,1.273579,-0.010010,1.619532
1079,-37.781338,10.559243,2.990768,-1.174701,-0.057130,1.066423
1080,-44.373236,-54.077974,15.747311,-0.203250,0.035889,1.106950
1081,-27.832456,-42.969406,-3.112840,0.905165,0.139162,1.493187
1082,-37.720302,-0.488289,0.488289,-0.122072,-0.053346,1.116228
1083,-24.597543,-10.986496,1.342794,-0.226810,-0.009400,1.041398
1084,-21.606775,-14.831769,-1.831083,0.251957,0.099611,1.211566
1085,-21.728847,0.976577,-0.427253,-0.037598,-0.040528,1.098405
1086,-13.305867,1.831083,-0.549325,-0.025391,0.074098,0.958267
1087,-21.484703,3.967346,0.244144,0.093141,0.055055,1.041642
1088,-23.010605,9.887846,2.319371,-0.008057,-0.016602,1.079118
1089,-15.564202,11.108568,2.563516,0.036255,0.014771,1.040543
1090,-18.249790,14.343481,4.577707,0.053590,0.016968,1.054704
1091,-15.869383,16.968032,4.699779,-0.032593,0.007691,1.026383
1092,-13.794156,15.625238,4.577707,-0.007202,0.024048,0.993179
1093,-15.197986,15.625238,4.394598,-0.048951,0.020142,0.994766
1094,-15.930419,12.878614,4.577707,-0.062013,-0.010864,1.001968
1095,-12.207218,10.131991,3.906310,-0.028931,0.009033,0.995254
1096,-12.451362,8.667124,3.784237,-0.052979,0.008423,0.997574
1097,-11.535821,6.225681,3.601129,-0.065187,0.011963,0.971939
1098,-11.841001,3.845274,3.234913,-0.044800,0.011475,0.975723
1099,-13.366903,1.770047,3.051804,-0.057740,0.005859,0.962783
1100,-14.404517,-0.671397,2.685588,-0.043091,0.002075,0.977798
1101,-15.075914,-2.075227,2.136263,-0.048585,-0.007202,0.981338
1102,-15.136950,-3.051804,1.525902,-0.029786,-0.001099,0.976577
1103,-18.982223,-3.356985,1.525902,-0.038697,0.001343,1.000259
1104,-16.418708,-3.845274,2.075227,-0.027955,0.058717,0.948257
1105,-17.090105,-3.418021,1.098650,-0.023682,-0.014038,0.984390
1106,-18.554971,-2.868696,1.220722,-0.026368,-0.034546,1.046891
1107,-16.723888,-2.685588,1.342794,-0.044678,-0.035157,1.012345
1108,-16.296635,-3.540093,1.220722,-0.034546,-0.030274,1.023087
1109,-15.869383,-4.028382,1.342794,-0.030152,-0.048463,1.032486
1110,-13.061723,-2.136263,-0.854505,0.065919,-0.157229,0.758312
1111,-9.826810,-4.821851,-0.915541,-0.051392,-0.018189,1.117327
1112,-16.296635,-7.019150,0.488289,-0.046509,-0.046754,0.977554
1113,-11.902037,-7.629511,-0.122072,-0.023926,-0.036011,1.000748
1114,-12.024109,-7.934691,-0.793469,-0.033692,-0.036622,0.997696
1115,-14.465553,-8.545052,-0.488289,-0.016968,-0.058595,1.021256
1116,-11.841001,-7.507439,-0.488289,0.008911,-0.068971,1.029068
1117,-10.498207,-5.249104,-0.305180,0.006226,-0.072755,0.998184
1118,-11.657893,-2.258335,-1.037613,-0.010254,-0.237430,0.949355
1119,-11.169604,-1.159686,0.732433,-0.012451,-0.056031,0.977676
1120,-14.770733,-2.807660,2.929732,-0.028931,-0.040528,0.997574
1121,-15.625238,-3.418021,2.563516,-0.014771,-0.044556,0.986099
1122,-16.968032,-4.516670,2.685588,-0.033082,-0.050416,0.965713
1123,-16.601816,-6.408789,1.709010,-0.065675,-0.023804,0.934951
1124,-22.278172,-10.254063,1.342794,-0.040284,-0.024170,0.960342
1125,-28.076600,-12.024109,0.671397,-0.037964,-0.045655,0.976822
1126,-28.747997,-12.390326,-0.854505,-0.025147,-0.033692,0.968276
1127,-34.668498,-11.535821,0.976577,0.028077,-0.050050,1.012955
1128,-40.894179,-9.582666,2.136263,0.009766,-0.078737,1.008682
1129,-36.865797,-7.324331,1.770047,-0.004273,-0.063478,1.014054
1130,-40.650034,-7.019150,3.540093,0.016724,-0.103273,0.971206
1131,-45.227741,-6.103609,7.507439,0.015991,-0.101564,1.004654
1132,-41.809720,-5.554284,7.141222,-0.025757,-0.089357,1.042985
1133,-42.847333,-2.807660,4.821851,0.017823,-0.106813,0.996109
1134,-40.772107,-0.610361,2.685588,-0.033692,-0.097902,1.029557
1135,-41.016251,-1.953155,0.427253,-0.039185,-0.077882,1.004654
1136,-42.908370,-2.746624,-5.920500,-0.071901,-0.107790,1.035416
1137,-43.701839,-4.638743,-10.254063,-0.058839,-0.134890,1.003922
1138,-46.326390,-6.103609,-16.479744,-0.043458,-0.148684,1.038834
1139,-52.491035,-3.723201,-22.217136,-0.064698,-0.048219,0.994522
1140,-67.811093,-2.624552,-40.772107,-0.006470,-0.230350,1.086687
1141,-43.640803,2.868696,-37.232013,0.114992,-0.366094,1.036637
1142,-26.306554,-7.019150,-13.611048,-0.045045,-0.014405,1.045914
1143,-59.266041,-10.131991,-28.198672,0.003540,0.117433,0.915785
1144,-95.033188,-6.103609,-34.485389,0.110231,0.063844,0.960830
1145,-122.987716,-1.342794,-20.019837,0.226322,0.097292,0.646006
1146,-134.767681,3.295949,-16.601816,0.080201,0.462898,1.018082
1147,-194.888228,-9.948882,-66.895552,-0.002441,0.947524,1.361105
1148,-443.244068,6.286717,-75.989929,0.034180,1.119890,1.391012
1149,-712.901503,9.216449,-41.626612,-0.377935,0.149538,1.220478
1150,-808.056764,-83.009079,50.659953,-0.252567,-0.153079,1.425193
1151,-881.910430,-113.405051,117.311360,0.231937,-1.557153,1.999969
1152,-976.638438,-89.784085,248.599985,-1.668605,-0.676524,1.999969
1153,-175.173571,-92.652781,-2.014191,-0.708385,-1.966217,1.999969
1154,414.557107,-26.977951,-9.887846,-0.528695,0.842054,1.999969
1155,255.069810,20.813306,-15.381094,0.311894,0.737316,-0.217166
1156,-9.094377,-7.751583,64.881361,-0.336309,0.660899,-0.155398
1157,-126.710918,-54.749371,124.574655,0.298833,0.961807,-0.123659
1158,-29.602502,-28.625925,51.819638,0.294560,0.321050,0.901137
1159,77.454795,-14.404517,5.798428,0.364508,0.693858,0.662608
1160,25.879301,-16.113527,-1.525902,0.303471,0.705943,0.884291
1161,24.841688,-19.043259,-9.887846,0.127199,0.508431,1.162982
1162,97.901884,-19.531548,-25.879301,0.041016,0.550912,1.164080
1163,116.029603,-27.344167,-30.701152,-0.051514,0.563363,1.074113
1164,125.185016,-32.166018,-31.311513,-0.111086,0.455573,1.237690
1165,161.562524,-25.268940,-34.607462,-0.171756,0.385504,1.284688
1166,187.624933,-15.381094,-35.400931,-0.202518,0.332647,1.240742
1167,204.592966,-3.479057,-33.569848,-0.243046,0.211185,1.208148
1168,226.199741,7.263294,-30.151827,-0.271611,0.113893,1.097429
1169,241.336690,11.169604,-24.414435,-0.245365,0.051637,0.955825
1170,248.172732,6.591897,-18.371862,-0.174685,0.026612,0.981704
1171,257.633326,1.159686,-15.808347,-0.096559,0.034668,1.092790
1172,268.253605,2.502480,-18.188754,0.000366,0.044923,1.256855
1173,274.845502,14.526589,-24.841688,0.077272,-0.033814,1.331563
1174,280.216678,37.537194,-34.180209,0.119753,-0.232670,1.033829
1175,273.319600,55.786984,-41.321431,0.086671,-0.344244,0.858412
1176,252.201114,63.477531,-43.274586,0.066407,-0.384771,0.853773
1177,235.782406,57.557031,-44.190127,0.043336,-0.364263,0.975357
1178,224.307622,48.584726,-43.945983,0.072633,-0.299931,1.396750
1179,207.095445,50.476844,-43.274586,0.033082,-0.277348,1.999969
1180,218.448157,56.153201,-42.969406,0.067140,-0.341802,1.999969
1181,248.050660,70.801862,-47.791257,0.078614,-0.423835,1.999969
1182,252.262150,80.750744,-48.706798,0.047242,-0.488045,1.999969
1183,243.350881,79.346914,-44.007019,0.009888,-0.629892,1.999969
1184,254.520485,73.060197,-40.039673,0.034180,-0.717174,1.999969
1185,268.925002,68.177310,-39.246204,0.109133,-0.753552,1.999969
1186,271.427482,65.980011,-39.978637,0.202762,-0.749767,1.999969
1187,270.450904,65.125505,-43.518730,0.324102,-0.740612,1.880400
1188,269.291218,63.843748,-51.209277,0.435187,-0.704112,1.788235
1189,260.196841,63.721675,-60.364691,0.428717,-0.711070,1.711574
1190,251.163500,60.547799,-67.994202,0.356207,-0.783337,1.671901
1191,242.740520,58.838788,-72.571908,0.246586,-0.917617,1.563256
1192,228.641184,61.707485,-71.046006,0.054444,-1.153338,1.326925
1193,206.851301,65.430686,-62.012665,-0.109133,-1.486229,1.022965
1194,172.487984,66.773480,-44.739452,-0.137575,-1.908721,0.772107
1195,126.039521,69.153887,-26.977951,0.084108,-2.000031,0.658946
1196,74.647135,74.708171,-13.672084,0.430304,-2.000031,0.633799
1197,52.552071,76.783398,-6.408789,0.570077,-2.000031,0.215702
1198,63.416495,53.345541,0.488289,0.492683,-2.000031,-0.470588
1199,6.408789,-10.986496,29.175250,0.062989,-2.000031,-0.880140
1200,-138.673991,-130.800336,59.998474,0.631357,-1.975616,-1.066178
1201,-245.731289,-196.536202,64.087892,1.174456,-1.736965,0.508309
1202,-182.131685,-86.976425,33.630884,0.289067,-0.161379,1.922393
1203,-103.273060,-62.439918,-3.356985,-0.529793,0.781384,1.999969
1204,-128.297856,-74.464027,25.329976,-0.419806,0.656382,0.884901
1205,-237.308309,-87.891966,45.471885,-0.153445,-0.034913,-0.013550
1206,-273.929961,-79.652094,61.219196,0.155032,-0.293339,1.263325
1207,-269.230182,-61.341268,66.468299,0.853162,-0.228885,1.999969
1208,-182.558938,-32.288090,37.903410,1.255512,-0.206912,1.999969
1209,-109.071489,-9.460594,1.098650,0.604501,0.033570,1.775784
1210,-121.889067,-3.234913,0.732433,-0.565316,-0.094484,1.552758
1211,-126.771954,-36.438544,29.602502,-1.267353,-0.443366,1.533227
1212,-83.802548,-92.713817,50.720989,-0.534554,-0.138430,1.000259
1213,-85.877775,-113.588159,40.894179,1.351949,0.334234,1.999969
1214,-69.581140,-51.514458,6.347753,1.187518,-0.230350,1.608179
1215,-42.298009,-10.498207,2.807660,-0.567758,0.086671,1.057511
1216,-67.933165,-50.232700,15.869383,-0.375250,-0.019409,1.145037
1217,-39.307240,-60.914015,6.591897,0.467536,0.016968,1.301289
1218,-30.884260,-36.316472,2.807660,0.244266,0.127565,1.350973
1219,-39.551385,-26.672770,2.685588,-0.112795,-0.172610,1.213886
1220,1.586938,-28.076600,0.488289,0.086915,0.033936,1.170550
1221,-5.615320,-21.789883,1.525902,0.129885,0.036988,1.040299
1222,-7.202258,-14.465553,3.356985,0.040894,0.002319,1.074479
1223,-0.244144,-11.963073,3.418021,0.056641,0.053101,1.026505
1224,-3.479057,-8.178836,4.028382,0.087037,0.041260,0.998795
1225,-6.042573,-2.929732,4.577707,0.085817,0.038453,1.037125
1226,-6.469825,0.305180,4.760815,0.034668,0.024414,1.016373
1227,-2.258335,1.281758,4.150454,0.002930,0.047852,0.944472
1228,-5.737392,0.488289,3.784237,0.026612,0.046021,0.976822
1229,-9.399557,-1.037613,3.051804,-0.007202,0.010986,0.994888
1230,-5.676356,-3.784237,1.770047,0.012207,0.011597,1.040665
1231,-2.441444,-4.699779,0.671397,0.027344,0.031617,0.993179
1232,-2.563516,-5.188067,-0.122072,-0.003296,0.033082,0.958755
1233,-5.065995,-6.652934,-0.183108,0.020386,0.050416,0.965347
1234,-7.080186,-6.591897,0.305180,0.023438,0.052613,0.979995
1235,-8.972305,-5.798428,0.915541,0.067140,0.014282,0.971695
1236,-9.765774,-4.028382,1.342794,0.055909,0.034546,0.958999
1237,-13.855192,-3.234913,1.464866,0.031617,0.042481,0.986343
1238,-17.517357,-4.882887,0.000000,0.072877,-0.008911,1.204730
1239,-12.939651,-5.249104,1.892119,0.084962,0.023926,1.019547
1240,-10.742351,-2.319371,0.488289,-0.033570,0.019654,1.002213
1241,-12.451362,-4.882887,0.732433,0.058106,0.013794,1.042374
1242,-10.070954,-3.601129,0.488289,0.026123,0.009277,1.015518
1243,-9.582666,-4.577707,0.427253,0.017212,0.033570,0.997452
1244,-8.972305,-5.065995,0.122072,0.029297,0.059327,0.953872
1245,-17.273213,-5.859464,-0.305180,0.029908,0.023560,0.962417
1246,-19.409476,-5.676356,-0.122072,0.055787,-0.013916,1.012100
1247,-15.747311,-4.211490,-0.427253,0.047120,-0.004517,0.992203
1248,-19.348440,-4.516670,0.061036,0.040284,-0.018433,1.014908
1249,-15.503166,-4.577707,0.000000,0.036011,-0.009400,0.972427
1250,-16.784924,-4.760815,-0.427253,0.035767,0.004761,0.972549
1251,-21.850919,-5.249104,-0.122072,0.032105,-0.016480,0.976211
1252,-20.202945,-6.042573,0.488289,0.036011,-0.024537,0.994766
1253,-20.569162,-6.347753,0.732433,0.051026,-0.009033,0.996109
1254,-20.386053,-6.591897,0.488289,0.061646,-0.014160,0.974380
1255,-20.080873,-6.164645,-0.122072,0.070802,0.009644,0.971328
1256,-25.452049,-5.798428,-0.366217,0.054322,-0.012573,0.926772
1257,-28.442817,-5.554284,0.976577,0.059571,-0.005249,0.991226
1258,-37.170977,-5.920500,1.586938,-0.014405,-0.130983,1.148333
1259,-36.560616,-5.371176,1.403830,0.077516,-0.055909,1.106584
1260,-33.813993,-0.183108,0.976577,0.080323,-0.053590,1.009171
1261,-39.551385,2.868696,1.342794,0.079713,-0.034302,1.024552
1262,-38.208591,3.967346,1.098650,0.045045,0.002075,1.023941
1263,-44.678416,4.882887,-0.305180,0.036500,0.009277,0.929091
1264,-60.364691,3.601129,-3.418021,0.015869,0.069459,0.875990
1265,-68.543526,1.586938,-7.995727,-0.031861,-0.058106,1.023941
1266,-46.692607,2.685588,-9.338521,0.158083,-0.008911,0.951308
1267,-86.121920,7.080186,-15.564202,-0.005859,0.050538,0.965957
1268,-96.375982,8.972305,-14.404517,0.095827,-0.066285,0.938979
1269,-92.164492,11.657893,-17.334249,-0.003662,-0.104372,0.978897
1270,-75.928893,7.080186,-28.625925,-0.108034,-0.355230,1.085710
1271,-69.092851,4.760815,-42.114900,0.105348,-0.381231,0.954604
1272,-51.270314,3.845274,-29.724575,0.406744,-0.500008,1.188006
1273,-36.255436,16.113527,18.554971,0.325444,-0.246464,1.169085
1274,-59.143969,29.114214,38.574807,-0.121706,0.382330,0.891615
1275,-145.448997,32.898451,15.625238,-0.065064,0.552132,0.835828
1276,-205.020218,19.714656,9.582666,-0.229862,0.512581,0.110353
1277,-175.234607,-42.359045,38.635843,-0.425177,0.633555,0.827161
1278,-279.606317,-94.483864,-1.159686,-0.293828,0.274418,1.000504
1279,-500.068666,-161.623560,22.705425,-0.264164,0.167483,1.352316
1280,-685.435264,-292.607004,76.417182,-0.122438,0.140627,1.178485
1281,-778.454261,-323.613336,87.403677,0.014405,-0.298344,0.176761
1282,-872.755016,-254.642557,144.167239,1.230732,-1.647242,1.516381
1283,-902.052338,-94.666972,254.337377,-0.120119,-1.021256,1.999969
1284,-302.372778,42.908370,-10.315099,-0.394659,-1.682033,1.999969
1285,108.216983,111.573968,-60.181582,-0.325322,0.674815,1.999969
1286,-6.225681,121.034562,-86.732280,-0.530404,0.839124,1.999969
1287,-102.845808,47.241932,8.728161,-0.854017,0.646983,1.999969
1288,-47.302968,-44.922560,58.167391,-0.539071,0.384771,1.999969
1289,126.894026,-27.100023,52.552071,-0.307256,0.396368,1.999969
1290,203.799496,-20.935378,48.401617,-0.081178,0.543709,1.691798
1291,191.714351,-4.943923,45.410849,0.083864,0.362188,1.273945
1292,218.509194,17.761501,33.569848,0.074830,0.160403,0.850599
1293,241.519799,28.259709,19.714656,0.101198,0.112428,0.422370
1294,231.631952,27.588312,10.864424,0.183841,0.101808,0.212772
1295,214.419776,28.442817,0.000000,0.242924,0.096803,0.306157
1296,207.949950,36.987869,-14.587625,0.260258,0.099367,0.454231
1297,209.658961,42.847333,-27.588312,0.242313,0.167361,0.685679
1298,209.597925,41.992828,-37.537194,0.210208,0.169802,1.006241
1299,221.744106,41.382467,-43.762875,0.152956,0.130495,1.296162
1300,241.824979,37.354086,-46.814679,0.093263,0.132204,1.547143
1301,265.690089,34.607462,-50.537881,0.104005,-0.002686,1.531640
1302,290.775921,37.415122,-53.894865,0.136233,-0.068849,1.541283
1303,303.715572,45.838102,-57.557031,0.145876,-0.163699,1.410056
1304,312.260624,58.655680,-61.219196,0.150759,-0.269291,1.197894
1305,308.842603,69.947356,-64.576181,0.149294,-0.433845,0.799451
1306,287.541009,80.506600,-67.811093,0.127199,-0.556893,0.456550
1307,252.689403,95.155261,-66.590372,0.115480,-0.547127,0.459113
1308,210.330358,100.709545,-61.097124,0.043824,-0.420905,1.042985
1309,186.404211,95.460441,-54.566262,0.048096,-0.376104,1.760281
1310,199.038682,90.455482,-48.096437,0.048096,-0.346075,1.999969
1311,223.086900,91.676204,-42.542153,0.116335,-0.420539,1.999969
1312,242.801556,97.901884,-36.682689,0.159792,-0.499153,1.999969
1313,256.351568,97.901884,-30.701152,0.172976,-0.540536,1.999969
1314,270.939193,88.197147,-24.170291,0.186770,-0.630869,1.999969
1315,297.734035,79.163806,-20.263981,0.311162,-0.686168,1.999969
1316,310.429541,78.187228,-21.240558,0.461311,-0.722423,1.893828
1317,299.259937,74.158846,-23.254749,0.519295,-0.752453,1.513573
1318,283.756771,62.378882,-28.198672,0.486091,-0.770397,1.385885
1319,263.553826,50.171664,-32.227054,0.421759,-0.744152,1.505272
1320,244.449531,44.068055,-36.743725,0.346563,-0.826307,1.602686
1321,235.294118,48.340581,-42.175937,0.239384,-0.975235,1.439719
1322,216.495003,56.153201,-47.180896,0.264042,-1.157733,1.148333
1323,182.375830,62.317845,-53.833829,0.489387,-1.418601,0.966567
1324,143.862058,72.632944,-70.557717,0.738781,-1.831815,0.864393
1325,106.935225,95.460441,-88.136110,0.924941,-2.000031,0.661143
1326,80.628672,116.029603,-107.423514,0.695445,-2.000031,0.357183
1327,66.956588,108.522164,-94.300755,0.235843,-2.000031,-0.201541
1328,27.954528,55.481804,-51.941711,-0.150271,-2.000031,-0.508064
1329,-25.879301,-28.686961,2.014191,-0.348272,-1.871489,-0.020386
1330,-55.420768,-85.938811,47.669184,-0.330816,-1.427878,0.861707
1331,-54.627298,-89.967193,73.853666,-0.332525,-1.029068,1.643580
1332,-38.391699,-53.711757,88.685435,-0.423713,-0.984634,0.058106
1333,-156.740673,-92.591745,65.430686,0.195682,-0.409064,-0.552621
1334,-106.630045,-99.732967,61.585412,0.181399,-0.215702,0.020874
1335,-95.399405,-59.754330,62.134737,0.195071,1.270405,0.835462
1336,-217.410544,-101.686122,67.994202,0.248661,0.870008,0.485603
1337,-350.164035,-118.471046,89.478904,0.963516,-0.614878,0.732921
1338,-302.616922,-80.933852,69.764248,1.412009,-0.389532,1.904204
1339,-237.064164,-53.833829,26.306554,1.551781,-0.007202,1.999969
1340,-177.004654,-16.784924,-8.117800,0.794324,-0.273075,1.999969
1341,-100.343328,5.371176,-24.963760,-0.873426,-0.335454,1.855985
1342,-116.273747,-25.818265,21.728847,-1.697292,-0.440681,1.699001
1343,-87.525750,-82.642863,57.312886,-0.451423,-0.165652,0.999039
1344,-75.562676,-99.488823,45.593957,1.245380,0.420050,1.894804
1345,-73.975738,-54.627298,18.005646,1.004044,0.120851,1.957183
1346,-57.068742,-16.357671,12.634470,-0.591806,-0.103639,1.291524
1347,-46.631571,-50.659953,13.733120,-0.151980,0.055543,1.317281
1348,-34.058137,-47.791257,0.854505,0.621958,0.083619,1.336812
1349,-36.316472,-14.648661,1.586938,0.081300,-0.007813,1.267597
1350,-27.283131,-11.657893,2.685588,-0.056764,-0.060304,1.281758
1351,-5.310140,-12.634470,-2.868696,0.025513,0.143801,1.050675
1352,-17.395285,-7.202258,-0.244144,0.060792,0.084352,1.021988
1353,-17.029068,-3.906310,0.366217,-0.005859,0.049805,1.011124
1354,-16.357671,-1.525902,0.732433,0.108766,0.105104,0.985367
1355,-26.001373,7.568475,3.234913,0.063966,0.026368,1.112932
1356,-20.386053,12.207218,4.821851,0.022827,0.042725,1.050919
1357,-20.202945,15.136950,4.882887,0.045777,0.044678,1.015640
1358,-21.484703,16.357671,6.042573,-0.030274,0.009522,1.034928
1359,-17.639429,14.160372,5.920500,-0.020508,0.029175,0.998062
1360,-17.700465,11.902037,5.249104,-0.022705,0.041871,0.972549
1361,-20.019837,9.338521,4.089418,-0.054688,0.024414,0.983047
1362,-20.813306,7.751583,1.770047,0.028321,0.019898,0.954360
1363,-14.953841,5.615320,1.403830,-0.009400,-0.029297,1.000015
1364,-18.554971,3.967346,2.746624,-0.026001,-0.018311,0.980117
1365,-15.869383,3.662165,2.807660,-0.033692,-0.001221,1.000870
1366,-16.174563,3.051804,2.929732,-0.036255,0.024659,0.990249
1367,-19.226368,2.624552,2.746624,-0.014405,0.002808,0.997696
1368,-19.653620,2.624552,2.136263,-0.019165,-0.019532,1.037247
1369,-16.723888,3.051804,1.709010,-0.024781,-0.017334,1.027115
1370,-15.014878,3.295949,1.770047,-0.017334,-0.032593,1.013931
1371,-13.611048,4.882887,0.732433,0.007935,0.012329,0.999405
1372,-9.887846,4.028382,0.854505,-0.044800,-0.035767,1.073259
1373,-15.014878,1.403830,2.441444,-0.034180,-0.040894,0.945815
1374,-10.986496,0.976577,2.075227,-0.034180,-0.012940,0.967056
1375,-12.085145,-1.037613,1.586938,-0.063722,0.004150,0.973770
1376,-14.770733,-4.333562,1.464866,-0.033326,-0.011475,0.979019
1377,-15.564202,-5.859464,1.159686,-0.037964,-0.024537,1.020645
1378,-14.343481,-6.469825,1.220722,-0.018799,-0.057496,1.049454
1379,-9.887846,-5.676356,1.159686,-0.018799,-0.049805,1.026261
1380,-7.568475,-5.493248,1.159686,-0.021118,-0.039673,1.023941
1381,-5.920500,-5.065995,0.915541,-0.028321,-0.019776,0.970596
1382,-8.300908,-5.737392,1.098650,-0.019409,-0.028199,0.970352
1383,-10.742351,-5.798428,1.403830,-0.019409,-0.012818,0.963882
1384,-14.099336,-6.347753,1.647974,-0.003540,-0.000855,0.945083
1385,-22.644388,-7.751583,3.418021,-0.014893,-0.027588,0.967666
1386,-25.452049,-7.568475,4.028382,0.000000,-0.009277,0.939956
1387,-30.334936,-8.484016,2.990768,-0.051148,-0.030884,0.951675
1388,-37.415122,-10.986496,3.784237,-0.013916,-0.045899,0.994888
1389,-36.865797,-10.009918,2.319371,-0.007568,-0.072145,1.023209
1390,-33.264668,-8.606088,0.976577,-0.018189,-0.059571,1.016983
1391,-32.776379,-8.850233,0.793469,-0.013306,-0.064454,0.998795
1392,-33.875029,-8.728161,1.831083,-0.012573,-0.068360,0.985000
1393,-35.339895,-7.202258,3.662165,0.007691,-0.078492,1.028824
1394,-33.997101,-6.530861,5.676356,-0.002564,-0.145266,1.032975
1395,-28.259709,-4.638743,7.385367,-0.011109,-0.097658,1.010880
1396,-26.733806,-4.394598,8.606088,-0.004028,-0.062989,1.003677
1397,-34.424353,-5.554284,9.155413,-0.031250,-0.063966,0.965347
1398,-36.316472,-4.333562,7.141222,0.014771,-0.083009,0.985855
1399,-34.180209,-4.577707,3.662165,-0.050416,-0.074830,1.005020
1400,-37.354086,-6.958114,0.000000,-0.042725,-0.063478,0.974380
1401,-44.800488,-7.446403,-5.004959,-0.045045,-0.053590,1.013321
1402,-49.561303,-8.545052,-9.338521,-0.047486,-0.073854,0.991104
1403,-47.608148,-7.751583,-17.090105,-0.028687,-0.141482,0.973892
1404,-57.740139,-8.484016,-29.480430,-0.048585,-0.171145,0.992813
1405,-76.478218,-2.380407,-37.476158,0.033326,-0.282109,1.133074
1406,-57.373922,5.188067,-33.020523,0.115358,-0.357794,1.004166
1407,-24.048219,3.479057,-15.991455,0.101198,-0.291752,1.049332
1408,-27.038987,-3.906310,-9.887846,0.009277,0.050050,0.970840
1409,-60.486763,-2.807660,-18.432898,0.003540,0.216068,0.841199
1410,-107.545586,-0.061036,-27.100023,0.122072,0.079347,1.070085
1411,-134.523537,10.803388,-19.836728,0.015259,0.098756,0.727916
1412,-143.862058,-6.286717,-12.146181,-0.067994,0.322759,0.770275
1413,-210.086213,-25.513085,-32.166018,-0.259403,0.578744,1.171405
1414,-463.324941,-13.855192,-44.800488,0.143191,0.644419,1.996246
1415,-611.093309,-59.266041,10.254063,-0.707774,0.224125,1.658839
1416,-736.705577,-154.726482,48.889906,-0.374884,-0.238529,1.487694
1417,-791.271840,-201.846342,93.751431,-0.186893,-0.530770,1.075212
1418,-957.839323,-218.875410,140.444038,0.776501,-2.000031,1.999969
1419,-770.519570,-153.566796,241.947051,-0.712291,-0.925063,1.999969
1420,9.216449,-120.485237,-16.174563,-0.175784,-0.627085,1.999969
1421,293.339437,-48.645762,0.671397,-0.313970,0.968765,1.999969
1422,105.165179,9.521630,-21.362631,-0.056641,0.900649,1.999969
1423,-37.476158,-9.216449,60.669871,-0.528939,0.756970,1.346944
1424,-26.123445,-13.122759,73.914702,-0.105348,0.290776,0.991226
1425,116.884108,20.019837,44.190127,-0.197635,0.234501,0.682017
1426,139.833677,18.188754,42.481117,-0.014038,0.432502,0.267338
1427,83.985657,4.699779,45.654994,0.043336,0.403815,0.406744
1428,90.455482,-1.892119,40.222782,0.071290,0.292729,0.646372
1429,132.875563,-4.455634,29.053178,0.130739,0.387823,0.795544
1430,143.739986,-13.366903,21.301595,0.135134,0.435798,0.977066
1431,159.487297,-19.958801,12.390326,0.147585,0.377569,1.156146
1432,194.888228,-17.944610,0.244144,0.130129,0.323980,1.174578
1433,217.166400,-14.160372,-10.193027,0.089357,0.268803,1.174090
1434,231.326772,-8.667124,-18.127718,0.023072,0.141970,1.201678
1435,248.661021,-1.770047,-22.827497,-0.057130,0.042725,1.335470
1436,267.277028,0.854505,-22.949569,-0.114504,-0.032227,1.389914
1437,288.334478,1.220722,-19.958801,-0.179934,-0.054200,1.489891
1438,304.509041,1.342794,-17.822538,-0.119753,-0.195560,1.381613
1439,321.355001,4.577707,-16.601816,-0.068116,-0.249149,1.338155
1440,325.139239,8.728161,-17.151141,-0.021729,-0.290166,1.307881
1441,324.406806,16.235599,-20.935378,0.017334,-0.353277,1.269184
1442,316.655222,33.325704,-28.076600,0.037842,-0.615000,0.921279
1443,298.405432,60.059510,-32.776379,0.090700,-0.716197,0.644541
1444,258.548867,67.505913,-32.715343,0.069581,-0.632212,0.692638
1445,227.847715,47.669184,-33.630884,0.152956,-0.509895,1.049821
1446,213.076982,30.640116,-38.818952,0.163333,-0.352667,1.820706
1447,196.353094,32.532235,-44.007019,0.159182,-0.353521,1.999969
1448,217.715724,54.871443,-48.218509,0.117800,-0.611215,1.999969
1449,274.479286,76.722362,-52.552071,-0.006226,-0.835462,1.999969
1450,282.902266,76.661326,-45.654994,-0.135988,-0.853773,1.999969
1451,260.013733,54.139010,-30.212863,-0.159060,-0.951186,1.999969
1452,284.428168,40.466926,-20.080873,-0.047120,-1.016373,1.999969
1453,306.034943,46.692607,-19.043259,0.089601,-0.969741,1.990143
1454,287.296864,55.359731,-19.897765,0.175540,-0.946426,1.755032
1455,275.638972,56.641489,-25.085832,0.227420,-0.977432,1.649317
1456,270.328832,57.801175,-33.875029,0.308232,-0.966323,1.564599
1457,253.177691,61.768521,-43.396658,0.345830,-1.027481,1.456809
1458,236.881056,68.848707,-51.941711,0.354131,-1.154925,1.266621
1459,215.457389,73.975738,-58.777752,0.429816,-1.343893,1.052750
1460,181.399252,79.224842,-65.125505,0.604501,-1.640406,0.955947
1461,140.749218,92.774853,-77.454795,0.670909,-2.000031,0.959243
1462,110.170138,117.372396,-85.633631,0.532357,-2.000031,0.584237
1463,97.413596,129.640650,-85.328450,0.246708,-2.000031,-0.105959
1464,73.304341,97.535668,-61.585412,-0.048707,-2.000031,-0.688609
1465,4.089418,18.432898,-20.019837,-0.253666,-2.000031,-0.511482
1466,-50.049592,-66.041047,23.010605,-0.267216,-1.603784,0.290898
1467,-55.298695,-106.141756,49.439231,-0.208255,-1.171283,0.280644
1468,-165.468833,-149.660487,9.704738,0.873671,-1.415305,-0.327276
1469,-186.892500,-99.183642,22.095064,-0.166506,-0.385016,0.998795
1470,-124.025330,-87.159533,16.113527,-0.458625,0.694835,1.733425
1471,-117.738613,-88.868544,11.413748,-0.639780,0.924331,1.313863
1472,-238.712139,-76.661326,45.777066,-0.487068,0.221561,0.254398
1473,-297.795071,-77.454795,63.477531,0.065553,-0.424811,0.649546
1474,-260.257877,-70.008392,62.378882,0.960220,-0.219608,1.999969
1475,-209.414817,-22.827497,36.926833,1.319478,0.166995,1.999969
1476,-159.121080,15.808347,1.831083,0.784802,-0.025025,1.999969
1477,-136.354620,48.523690,-14.770733,0.018677,-0.055055,1.501976
1478,-152.956436,66.529335,-6.164645,-0.791028,-0.145266,1.520165
1479,-163.210498,12.024109,26.916915,-1.376120,-0.361089,1.999969
1480,-75.684749,-42.175937,40.283818,-0.390753,-0.304814,1.430442
1481,-39.185168,-69.459068,29.419394,0.624277,0.372320,1.794461
1482,-64.454108,-44.495308,21.667811,0.971695,0.061891,1.547753
1483,-49.378195,-4.211490,11.169604,-0.367315,-0.013672,1.137957
1484,-52.063783,-28.931106,11.841001,-0.343511,-0.036500,1.030900
1485,-41.016251,-37.842374,7.812619,0.331792,0.070069,1.431296
1486,-30.762188,-16.906996,0.976577,0.093141,0.068360,1.373190
1487,-28.564889,-10.498207,2.929732,-0.218265,-0.045777,1.037491
1488,-17.029068,-16.662852,2.685588,-0.016114,0.055665,1.055192
1489,-21.606775,-13.611048,2.746624,-0.019165,0.013428,1.048112
1490,-17.639429,-11.291676,2.685588,-0.054444,0.028687,1.031510
1491,-19.226368,-9.338521,3.356985,0.008179,0.018067,1.097917
1492,-14.892805,-4.394598,2.258335,-0.023926,0.018433,1.047379
1493,-14.282444,-3.234913,2.746624,-0.043824,-0.002197,1.043107
1494,-10.742351,-2.563516,2.685588,-0.025513,-0.005615,1.051652
1495,-7.751583,-1.647974,2.685588,-0.056641,0.021973,1.005386
1496,-8.484016,-3.051804,2.685588,-0.078859,0.022339,0.967910
1497,-8.911269,-6.652934,2.014191,-0.087037,0.026490,0.947646
1498,-11.047532,-10.070954,1.709010,-0.102663,0.014405,0.976822
1499,-10.254063,-11.902037,1.403830,-0.027222,0.005127,1.059220
1500,-8.117800,-9.155413,1.037613,-0.036011,0.003540,1.031876
1501,-7.324331,-7.568475,1.342794,-0.030884,-0.003174,1.042008
1502,-4.638743,-4.882887,1.464866,-0.013428,0.017212,1.021744
1503,-5.920500,-2.807660,1.586938,-0.034668,0.016602,0.999161
1504,-7.873655,-2.136263,2.136263,-0.023926,0.005737,1.006485
1505,-6.836042,-0.427253,2.075227,-0.009888,-0.002197,1.021744
1506,-5.981537,1.281758,2.685588,-0.042969,0.002075,1.005753
1507,-5.615320,1.281758,2.929732,-0.057740,0.010864,0.974624
1508,-7.812619,-0.305180,2.929732,-0.062867,0.000244,0.974990
1509,-8.422980,-2.075227,2.746624,-0.064820,-0.004517,0.975479
1510,-8.972305,-3.723201,2.380407,-0.072999,0.002686,0.980606
1511,-10.437171,-5.920500,2.075227,-0.063233,0.007080,1.019547
1512,-6.652934,-6.836042,0.793469,-0.028931,0.048951,0.872084
1513,-8.850233,-7.385367,1.892119,-0.041627,0.032349,0.988785
1514,-15.136950,-8.422980,2.563516,-0.057740,0.017456,0.982681
1515,-14.648661,-9.765774,1.464866,-0.125978,0.057862,1.077653
1516,-14.038300,-13.366903,1.709010,-0.013672,0.062989,0.877211
1517,-18.005646,-12.756542,1.098650,-0.041749,-0.033692,0.987808
1518,-15.259022,-12.451362,0.549325,-0.024414,-0.037720,1.058732
1519,-12.573434,-11.657893,0.549325,-0.016724,-0.006592,1.028946
1520,-10.009918,-11.963073,-2.075227,-0.087648,0.001465,1.040177
1521,-12.146181,-9.704738,-0.244144,0.010376,-0.032349,1.011856
1522,-15.808347,-7.812619,2.014191,-0.001953,-0.042115,1.014176
1523,-16.540780,-5.859464,2.929732,-0.019287,0.014893,1.009415
1524,-18.310826,-5.493248,3.540093,-0.001465,0.009400,0.994400
1525,-18.982223,-5.065995,3.112840,-0.042481,-0.005982,0.961685
1526,-21.789883,-7.995727,2.990768,-0.055665,-0.007446,0.960342
1527,-24.414435,-11.718929,2.258335,-0.046998,-0.024170,0.987930
1528,-23.804074,-12.573434,0.305180,-0.022583,-0.037232,0.992935
1529,-23.376822,-12.390326,0.000000,-0.015015,-0.042847,1.007462
1530,-25.818265,-11.841001,0.061036,-0.019898,-0.049317,1.026749
1531,-26.062409,-10.254063,1.159686,0.004517,-0.077760,0.992569
1532,-25.513085,-8.911269,1.770047,0.011963,-0.074098,1.025406
1533,-24.719615,-7.507439,2.319371,-0.009522,-0.078981,1.025284
1534,-21.606775,-7.141222,1.892119,-0.023438,-0.056275,1.000504
1535,-23.804074,-7.324331,2.014191,0.004517,-0.037842,0.963760
1536,-31.372549,-8.300908,1.892119,-0.021241,-0.043824,0.979629
1537,-29.480430,-10.070954,0.488289,-0.006226,-0.044678,0.943130
1538,-39.246204,-10.864424,0.488289,-0.026490,-0.043336,1.003555
1539,-45.471885,-11.291676,1.037613,0.010254,-0.093751,1.063615
1540,-43.396658,-5.004959,0.488289,0.049928,-0.088991,1.037980
1541,-41.077287,-0.305180,0.061036,0.003906,-0.073732,1.003189
1542,-41.199359,1.098650,-4.943923,-0.025269,-0.074586,0.962783
1543,-48.218509,0.915541,-6.958114,-0.033082,-0.079591,1.005142
1544,-55.603876,-1.403830,-15.442130,-0.100099,-0.118898,1.038224
1545,-63.660639,1.464866,-28.198672,-0.102296,-0.097536,1.039689
1546,-77.210651,6.652934,-34.790570,0.064942,-0.238529,1.027848
1547,-55.848020,1.831083,-15.320058,0.129885,-0.359503,1.029557
1548,-43.884947,-3.234913,-5.981537,-0.038697,-0.029908,0.969863
1549,-60.364691,-3.967346,-19.043259,-0.038697,0.157351,0.885512
1550,-106.202792,-7.141222,-30.334936,0.014771,0.060670,0.913466
1551,-123.903258,-5.798428,-10.437171,0.115114,0.076661,0.790661
1552,-141.115435,-6.652934,-29.541466,-0.006836,0.276249,0.937026
1553,-180.300603,-26.428626,-54.993515,-0.111696,0.707774,1.300191
1554,-401.312276,-10.498207,-49.805447,0.163210,0.943374,1.271626
1555,-603.341726,-38.452735,-14.221408,-0.555550,0.208011,1.870146
1556,-661.387045,-103.212024,19.714656,-0.041138,0.183719,0.929580
1557,-752.697032,-120.119020,17.090105,-0.057496,-0.169314,1.105486
1558,-823.010605,-151.491569,34.546426,0.495125,-1.576928,1.999969
1559,-915.114061,-103.883421,179.690242,-0.886366,-0.351690,1.999969
1560,-120.790417,-78.736553,-10.070954,-0.640269,-1.331930,1.999969
1561,407.049668,-1.098650,-42.298009,-0.458625,0.598398,1.999969
1562,323.918517,33.630884,-44.190127,-0.075807,1.089982,0.593759
1563,99.366751,24.719615,0.549325,-0.623545,0.283330,0.047486
1564,-25.452049,-16.052491,72.693980,-0.273564,0.186160,-0.359380
1565,-8.911269,-7.141222,50.476844,-0.151736,-0.095094,0.213993
1566,109.681849,9.155413,30.945296,-0.170291,0.240726,0.344488
1567,81.544213,3.234913,34.180209,-0.007813,0.447761,0.433234
1568,53.650721,-5.798428,33.752956,0.026001,0.384039,0.904311
1569,102.784772,-1.098650,20.569162,0.082887,0.417487,1.112566
1570,138.735027,4.394598,7.141222,0.098512,0.504646,1.124285
1571,149.477379,9.277485,-2.868696,0.099123,0.442634,1.195941
1572,176.882582,16.174563,-13.366903,0.054200,0.356817,1.223163
1573,203.555352,22.705425,-21.850919,-0.003662,0.266606,1.206683
1574,219.729915,27.893492,-24.780652,-0.062989,0.163088,1.237934
1575,240.054932,34.546426,-24.170291,-0.102541,0.054566,1.237568
1576,257.755398,39.673457,-20.019837,-0.112551,-0.015015,1.322042
1577,271.976806,39.856565,-13.550011,-0.104250,-0.093874,1.407004
1578,291.508354,36.499580,-6.713970,-0.031739,-0.143801,1.376730
1579,307.072557,29.480430,-4.028382,0.083742,-0.193729,1.217182
1580,307.377737,28.992142,-8.056764,0.249271,-0.310185,0.983047
1581,292.423896,43.457694,-20.019837,0.443488,-0.558480,0.584115
1582,263.065538,68.604562,-34.546426,0.462654,-0.543343,0.534066
1583,219.119554,68.726635,-44.434272,0.357794,-0.462654,0.804211
1584,200.747692,49.378195,-52.918288,0.197879,-0.396002,1.251972
1585,195.864805,39.490349,-58.228428,0.050416,-0.318975,1.974884
1586,185.000381,47.730220,-55.664912,-0.059815,-0.377081,1.999969
1587,214.358740,62.134737,-51.758602,-0.128298,-0.616709,1.999969
1588,266.544595,76.600290,-49.927520,-0.175906,-0.765515,1.999969
1589,264.225223,76.234073,-38.025483,-0.221927,-0.731090,1.999969
1590,249.759670,63.050278,-22.827497,-0.158938,-0.841077,1.999969
1591,278.263523,61.524376,-15.991455,0.036500,-0.895155,1.721462
1592,271.061265,75.867857,-16.235599,0.201175,-0.764904,1.574975
1593,230.106050,74.647135,-13.794156,0.233402,-0.816297,1.850126
1594,245.487144,63.965820,-16.540780,0.284062,-0.850477,1.949615
1595,260.196841,54.200046,-22.644388,0.359380,-0.877089,1.684108
1596,247.074083,54.810407,-28.870069,0.365240,-0.964492,1.355367
1597,228.641184,59.205005,-35.828183,0.277714,-1.090837,1.128069
1598,206.912337,61.585412,-40.222782,0.159060,-1.217670,0.985733
1599,180.544747,61.951629,-40.772107,0.045899,-1.378805,0.918471
1600,154.421302,64.332036,-37.720302,0.031373,-1.571069,0.924819
1601,129.274434,70.008392,-34.119173,0.122927,-1.802396,0.808362
1602,103.700313,80.079347,-34.607462,0.202274,-2.000031,0.636606
1603,74.830243,91.065843,-32.837415,0.129885,-2.000031,0.379400
1604,47.364004,85.877775,-19.409476,-0.023194,-2.000031,0.049439
1605,15.197986,49.134051,6.347753,-0.458625,-2.000031,-1.517235
1606,-103.089952,-79.041733,56.275273,-0.169558,-1.989288,-1.579980
1607,-217.532616,-189.394980,86.182956,0.636973,-1.903105,-0.431403
1608,-134.645609,-146.730755,56.092164,0.573739,-0.098268,1.665553
1609,-98.634318,-85.694667,24.414435,-0.321416,1.217792,1.999969
1610,-138.612955,-85.572595,54.077974,-0.601205,1.005753,1.058122
1611,-243.289845,-122.011139,77.332723,0.080568,-0.092775,-0.041993
1612,-272.281987,-97.535668,79.224842,0.508675,-0.347539,0.815320
1613,-265.873198,-71.046006,71.839475,1.068864,-0.072023,1.999969
1614,-224.979019,-45.899138,45.960174,1.684718,0.001099,1.999969
1615,-134.645609,8.422980,-2.929732,1.084245,0.020630,1.768582
1616,-131.837949,40.955215,-22.156100,0.004761,0.124392,1.398947
1617,-171.999695,50.598917,2.929732,-1.543725,-0.139040,1.999969
1618,-143.129625,-22.522316,34.851606,-1.500511,-0.828626,1.665064
1619,-38.757916,-85.206378,39.978637,-0.174563,-0.190555,1.200214
1620,-64.087892,-100.160220,42.298009,1.347066,0.505989,1.999969
1621,-54.200046,-39.673457,19.043259,0.740490,-0.047974,1.412009
1622,-36.621653,-14.831769,7.385367,-0.640635,-0.059815,1.127214
1623,-46.509499,-50.720989,18.127718,-0.051026,0.082887,1.084367
1624,-36.011292,-45.899138,7.141222,0.416999,0.133425,1.405173
1625,-41.199359,-28.625925,5.371176,-0.042603,-0.047974,1.072160
1626,-30.334936,-32.959487,4.333562,-0.201785,0.011963,1.171405
1627,-17.700465,-34.302281,1.586938,0.197513,0.050904,1.086809
1628,-26.245518,-22.217136,1.342794,0.060304,0.016846,1.112810
1629,-21.911955,-18.066682,2.685588,0.002197,-0.031983,1.057633
1630,-14.526589,-13.305867,2.563516,0.080568,0.058717,1.006729
1631,-26.611734,-8.361944,2.746624,0.013306,0.021363,0.961807
1632,-28.198672,-8.056764,3.112840,-0.011719,0.005249,1.052384
1633,-26.062409,-8.117800,1.403830,0.003540,-0.032837,0.990494
1634,-23.315785,-8.239872,1.098650,0.001221,0.008423,1.039200
1635,-22.339208,-8.056764,0.244144,-0.003052,-0.009155,1.013931
1636,-19.348440,-8.056764,-0.183108,-0.002319,-0.008179,0.998672
1637,-19.409476,-8.239872,-1.098650,-0.021485,0.002197,0.984756
1638,-23.987182,-7.812619,-1.281758,-0.066651,0.056153,1.238056
1639,-16.235599,-6.286717,-0.610361,0.017945,-0.065675,1.013809
1640,-17.151141,-5.127031,-0.793469,0.021973,-0.027832,0.982925
1641,-19.165332,-4.394598,-0.122072,0.009888,-0.029053,1.014786
1642,-16.174563,-4.211490,-0.305180,0.023072,-0.017700,0.951431
1643,-20.935378,-3.906310,0.305180,0.031373,-0.032105,1.033463
1644,-19.165332,-2.929732,0.366217,0.010620,-0.047608,1.039445
1645,-15.686275,-2.441444,0.244144,0.026490,-0.048219,1.018326
1646,-15.014878,-1.586938,0.305180,0.019043,-0.043824,1.012345
1647,-13.733120,-1.647974,-0.122072,-0.001709,-0.042237,1.006729
1648,-15.381094,-2.136263,0.244144,0.008179,-0.035645,0.985489
1649,-16.052491,-2.807660,0.061036,-0.006836,-0.025513,0.978042
1650,-18.738079,-3.295949,-0.122072,0.007568,-0.038453,0.994522
1651,-21.484703,-3.295949,-0.488289,0.007202,-0.072877,0.997330
1652,-19.531548,-2.685588,-0.671397,0.017700,-0.025757,0.964981
1653,-23.376822,-2.807660,-0.549325,0.009522,-0.072267,0.981949
1654,-23.559930,-2.319371,-0.915541,0.011963,-0.081666,1.025162
1655,-22.461280,-1.892119,-0.915541,0.015259,-0.095216,1.031144
1656,-17.944610,-1.647974,-0.488289,0.009400,-0.090211,1.019547
1657,-16.174563,-1.342794,-0.305180,0.025635,-0.097780,1.036027
1658,-13.916228,-0.671397,0.305180,0.028199,-0.110353,1.035660
1659,-8.606088,0.610361,1.037613,0.025269,-0.092653,1.017227
1660,-10.254063,1.281758,1.709010,0.024414,-0.092042,1.015030
1661,-7.934691,1.342794,1.770047,0.010498,-0.076417,0.998795
1662,-8.972305,0.915541,1.342794,0.000610,-0.067872,0.998672
1663,-11.535821,0.366217,0.671397,-0.003906,-0.086305,1.012955
1664,-9.277485,-0.183108,0.305180,0.004150,-0.084352,1.003311
1665,-11.535821,-0.610361,-0.183108,0.007568,-0.103883,1.011246
1666,-9.704738,-0.427253,-0.366217,0.015259,-0.101808,1.019669
1667,-6.713970,-0.732433,-0.915541,0.020020,-0.085328,1.015518
1668,-8.056764,0.000000,-1.037613,0.024537,-0.093629,1.007095
1669,-10.009918,2.685588,0.183108,0.099245,-0.007935,0.901259
1670,-7.873655,2.441444,1.586938,0.029664,-0.082887,1.001846
1671,-6.164645,2.258335,2.136263,0.005615,-0.073854,0.955703
1672,-12.756542,1.098650,1.709010,0.000244,-0.107790,0.986709
1673,-11.047532,0.122072,0.732433,0.004273,-0.113893,1.030167
1674,-7.812619,-0.366217,-0.183108,0.004150,-0.102907,1.021134
1675,-7.141222,-1.159686,-0.976577,-0.001343,-0.098268,1.003677
1676,-7.751583,-1.831083,-2.075227,0.003784,-0.110719,1.004166
1677,-4.882887,-2.075227,-2.746624,0.007813,-0.096315,1.020401
1678,-7.080186,-1.770047,-3.295949,0.019287,-0.104250,1.014298
1679,-7.019150,-0.854505,-2.990768,0.031006,-0.110842,1.020523
1680,-5.859464,0.488289,-2.075227,0.028565,-0.089601,0.996597
1681,-10.009918,1.831083,-1.525902,0.018921,-0.063844,0.975113
1682,-13.611048,3.418021,0.061036,0.051637,-0.067994,0.988663
1683,-20.569162,7.202258,3.906310,0.045411,-0.075196,0.992447
1684,-25.268940,8.667124,6.225681,0.010010,-0.087037,1.005264
1685,-23.682002,10.437171,8.056764,0.030152,-0.069337,0.996719
1686,-32.104982,11.535821,10.254063,-0.020874,-0.056275,0.949599
1687,-39.185168,9.216449,8.361944,-0.049561,-0.035279,0.954360
1688,-45.960174,7.324331,4.089418,-0.018433,-0.025391,1.004654
1689,-51.148241,5.737392,-1.037613,-0.036255,-0.134035,1.003922
1690,-50.354772,4.943923,-7.446403,-0.109987,-0.096559,1.011002
1691,-50.049592,1.953155,-18.677043,-0.046143,-0.203128,1.048478
1692,-52.368963,2.624552,-28.992142,-0.080079,-0.166384,1.001846
1693,-52.246891,2.014191,-30.823224,0.003418,-0.284184,1.131975
1694,-42.786297,-6.286717,-16.418708,-0.008789,-0.177737,1.047013
1695,-52.735180,-6.713970,-13.244831,0.056031,-0.055543,0.929213
1696,-71.229114,-2.624552,-12.695506,0.104494,-0.119875,0.929580
1697,-94.911116,1.953155,0.732433,-0.023438,-0.216190,1.010147
1698,-88.502327,-4.638743,2.197299,-0.063844,-0.164309,0.981582
1699,-89.051652,-10.925460,-3.540093,0.082521,0.097780,0.936172
1700,-159.365225,-6.713970,9.155413,-0.020996,-0.048096,0.996109
1701,-205.325399,-16.296635,14.404517,-0.014527,-0.069825,1.064103
1702,-247.623407,-19.592584,14.404517,-0.143923,-0.285527,1.045670
1703,-266.727703,-44.068055,19.836728,-0.243046,-0.255253,1.061540
1704,-293.095293,-80.445563,32.166018,-0.186404,-0.162844,1.190082
1705,-249.393454,-104.676890,40.588998,-0.136477,0.201907,1.562402
1706,-227.054246,-96.620127,53.589685,-0.243290,0.031250,1.999969
1707,-224.368658,-83.375296,81.849393,-0.776501,-0.005127,1.999969
1708,53.894865,-23.620966,25.635157,-0.222049,0.362066,1.999969
1709,149.233234,19.531548,-6.042573,-0.350835,0.557137,1.041398
1710,59.876402,10.498207,29.663539,-0.323857,0.481575,0.591318
1711,41.077287,2.441444,36.987869,-0.229740,0.113039,0.773693
1712,108.644236,8.606088,26.672770,-0.146975,0.255253,0.941054
1713,108.278019,6.347753,25.574121,-0.060792,0.378912,1.208637
1714,120.057984,11.596857,21.301595,-0.040406,0.265385,1.432883
1715,166.933700,23.926146,10.864424,-0.038575,0.219120,1.342916
1716,186.648356,34.424353,5.249104,-0.085451,0.125124,1.029313
1717,192.629892,40.711070,5.004959,-0.117800,-0.024537,0.805066
1718,198.794537,43.091478,7.690547,-0.164187,-0.139284,0.650645
1719,195.681697,41.077287,13.733120,-0.152956,-0.224613,0.586801
1720,189.456016,38.452735,20.325017,-0.097902,-0.263188,0.666392
1721,185.122454,38.025483,24.658579,-0.014527,-0.272465,0.814343
1722,181.826505,40.772107,25.757229,0.078614,-0.256840,1.045670
1723,179.568170,46.387427,23.926146,0.179690,-0.264775,1.349752
1724,186.282139,54.139010,19.470512,0.253788,-0.298955,1.487449
1725,198.062104,61.341268,11.841001,0.307256,-0.366461,1.485008
1726,203.860533,65.186542,5.493248,0.304814,-0.461799,1.293477
1727,201.052873,61.951629,2.014191,0.304692,-0.560555,1.084367
1728,190.676738,53.589685,0.244144,0.301518,-0.628183,0.922622
1729,173.159380,41.565576,0.000000,0.285771,-0.708751,0.823011
1730,154.238193,27.100023,-0.793469,0.343999,-0.784314,0.613657
1731,133.180743,7.690547,-4.394598,0.381231,-0.764782,0.488167
1732,104.859998,-10.376135,-9.033341,0.357794,-0.717418,0.544320
1733,79.530022,-22.034028,-15.381094,0.244999,-0.650889,0.708385
1734,60.975052,-27.588312,-21.484703,0.089357,-0.577646,0.824598
1735,45.105669,-26.062409,-27.771420,-0.091676,-0.504280,1.010758
1736,28.320745,-10.254063,-32.166018,-0.261845,-0.560189,1.097551
1737,8.606088,18.554971,-37.170977,-0.362188,-1.248310,-0.831067
1738,-89.600977,-39.734493,-19.287404,-0.256596,-1.174578,0.277714
1739,-178.591592,-63.050278,13.550011,-0.627695,-2.000031,-0.570565
1740,-307.011521,-152.590219,44.129091,0.858656,-1.954131,1.999969
1741,-122.926680,-35.523003,4.089418,1.149432,-1.952178,1.999969
1742,341.374838,41.565576,-18.127718,-0.047974,-0.016968,1.644923
1743,258.121614,64.515145,-65.552758,-0.263432,0.445075,-0.578500
1744,2.014191,14.770733,6.042573,-0.542733,0.823377,-0.053590
1745,-192.385748,-58.472572,39.063096,-0.222416,0.641489,0.957168
1746,-108.949416,-25.329976,30.518044,0.179202,0.007080,1.534203
1747,14.099336,-2.746624,-4.333562,-0.012696,0.022950,1.411154
1748,-13.244831,-6.836042,0.671397,-0.127443,0.044800,0.709606
1749,-28.992142,-15.564202,3.479057,-0.038941,0.019043,1.143450
1750,-11.108568,-12.634470,0.000000,-0.000366,-0.005005,1.036759
1751,-11.169604,-9.887846,0.671397,0.071534,0.015503,1.114275
1752,-8.239872,-4.577707,1.159686,0.019165,-0.011353,1.074723
1753,-1.037613,-2.258335,0.732433,-0.019898,0.029786,1.025650
1754,-2.990768,-2.685588,0.793469,-0.028199,0.024537,1.018814
1755,-1.220722,-1.831083,0.427253,-0.013550,0.023438,1.016373
1756,-0.793469,-0.976577,0.671397,-0.012451,0.033570,1.005386
1757,-1.647974,-0.183108,0.732433,-0.011963,0.041382,0.993057
1758,-3.295949,0.488289,0.854505,-0.021485,0.032715,0.968765
1759,-3.601129,0.610361,0.732433,-0.024414,0.061524,0.965591
1760,-9.643702,-0.061036,0.671397,-0.019776,0.045411,0.970352
1761,-12.573434,-0.793469,0.854505,-0.029297,-0.000610,1.033097
1762,-7.385367,-0.244144,0.976577,-0.021485,-0.000610,1.031632
1763,-2.319371,-0.671397,0.854505,-0.030396,0.008423,1.031510
1764,-0.183108,-1.464866,0.488289,-0.035157,0.024537,0.979263
1765,-0.793469,-3.234913,-0.183108,-0.031983,0.032959,0.970474
1766,-3.051804,-4.455634,-0.488289,-0.006958,0.014649,0.998917
1767,-1.525902,-3.967346,-0.610361,-0.007935,-0.001465,1.027970
1768,1.464866,-3.234913,-0.366217,0.012573,0.025391,0.993057
1769,0.976577,-2.685588,0.183108,-0.005127,0.034546,0.997574
1770,-1.281758,-2.136263,0.122072,-0.023316,0.018677,0.971817
1771,-1.342794,-2.563516,0.122072,-0.012573,0.032959,0.994766
1772,-3.051804,-1.892119,-0.244144,-0.014527,0.032593,0.908583
1773,-6.042573,-2.502480,0.122072,-0.026246,0.068482,0.931655
1774,-14.526589,-4.455634,-0.366217,-0.029175,0.030884,0.990494
1775,-15.808347,-5.065995,-0.488289,0.001709,-0.037598,1.052628
1776,-10.131991,-2.929732,0.671397,-0.021118,-0.025757,1.113664
1777,-4.394598,-1.098650,1.220722,0.007324,-0.015381,1.038834
1778,-2.380407,0.671397,1.770047,0.001221,0.014527,0.993179
1779,-3.601129,0.610361,1.464866,-0.033570,0.039307,0.963394
1780,-10.070954,-0.976577,2.014191,-0.032227,-0.009644,1.003677
1781,-4.638743,-1.586938,1.709010,-0.026734,-0.005127,1.002213
1782,-3.723201,-1.159686,1.586938,-0.014649,0.012329,1.018570
1783,-6.713970,-1.159686,2.075227,-0.030152,0.048096,0.954482
1784,-9.094377,-2.380407,0.366217,-0.050782,0.078737,0.903334
1785,-21.545739,-6.225681,-0.610361,-0.054444,0.042237,0.947524
1786,-23.010605,-8.606088,-1.647974,0.017090,-0.066407,1.015885
1787,-18.310826,-7.324331,-1.647974,0.042725,-0.081056,1.096574
1788,-8.667124,-3.601129,0.183108,0.033448,-0.099489,1.152605
1789,6.042573,-0.183108,0.366217,-0.000732,-0.022461,1.011734
1790,2.441444,-0.305180,1.037613,-0.016968,0.019776,0.964370
1791,-1.342794,-0.732433,1.220722,-0.009400,0.052003,0.931655
1792,-4.882887,-2.197299,0.244144,-0.027710,0.046387,0.932021
1793,-14.343481,-4.760815,-0.244144,0.000977,-0.040040,1.051896
1794,-3.967346,-2.563516,-0.793469,0.034791,-0.042359,1.079240
1795,0.427253,1.037613,-0.366217,0.005127,0.015503,0.981216
1796,-6.836042,0.488289,0.183108,-0.053712,0.000000,0.974868
1797,-6.347753,-2.502480,-0.793469,-0.024292,-0.029541,1.037003
1798,-2.075227,-3.784237,-2.197299,0.020020,-0.066529,1.077043
1799,5.554284,-2.014191,-2.441444,0.015625,-0.063844,1.071061
1800,11.230640,-1.159686,-2.136263,0.000122,-0.032471,1.044327
1801,14.953841,0.000000,-1.892119,0.005493,0.020752,0.969741
1802,12.451362,-1.037613,-1.403830,-0.084962,0.125734,0.764782
1803,-17.883574,-5.859464,-0.244144,0.043824,-0.006592,0.991714
1804,-6.164645,-0.915541,-0.305180,-0.017212,-0.063355,1.067643
1805,1.647974,-1.159686,-1.037613,-0.027100,0.055543,0.921157
1806,-14.099336,-4.760815,-1.159686,-0.030152,-0.019165,0.974014
1807,-10.193027,-6.286717,-2.929732,-0.007813,-0.046509,1.006241
1808,-9.826810,-5.981537,-3.112840,0.033448,-0.035157,1.067277
1809,-4.577707,-3.723201,-2.746624,0.031861,-0.058961,1.073625
1810,0.976577,-1.770047,-2.258335,0.023072,-0.034424,1.039811
1811,2.502480,-0.732433,-2.136263,0.011719,-0.007446,0.989395
1812,-1.220722,-0.244144,-1.831083,0.049195,-0.042847,1.053239
1813,4.394598,3.234913,-1.037613,0.033326,-0.053712,1.065568
1814,9.521630,5.371176,-0.366217,-0.044434,-0.003052,0.952285
1815,3.356985,2.197299,-0.183108,-0.048341,0.003784,0.952773
1816,3.723201,-0.366217,-1.159686,-0.016480,0.004517,0.983413
1817,0.610361,-1.953155,-1.525902,-0.021363,-0.003784,1.003067
1818,1.770047,-2.075227,-1.647974,0.024781,-0.026734,1.038956
1819,3.479057,0.183108,-1.098650,0.009155,-0.025025,1.022843
1820,5.493248,0.427253,-1.281758,-0.010132,-0.021729,1.022110
1821,6.225681,0.061036,-0.976577,0.015137,-0.030518,1.034440
1822,10.376135,0.793469,-1.342794,0.001709,-0.013672,0.997696
1823,9.155413,0.122072,-1.159686,-0.004517,-0.001587,0.994400
1824,9.277485,0.183108,-1.220722,0.001221,0.007202,0.986099
1825,7.141222,0.000000,-1.342794,-0.017578,0.013916,0.964248
1826,5.188067,-0.793469,-1.342794,-0.002197,0.025391,0.958999
1827,1.586938,-0.793469,-1.525902,-0.005371,0.006958,0.982925
1828,-0.793469,-1.525902,-0.976577,-0.006958,-0.010620,1.015030
1829,3.173877,-0.854505,-1.586938,0.016236,-0.020020,1.045426
1830,4.333562,1.098650,-1.464866,0.029053,0.003174,1.021256
1831,4.577707,3.540093,-0.732433,0.008179,-0.006348,1.016129
1832,4.699779,4.760815,0.061036,-0.004273,0.001099,1.003433
1833,5.798428,4.577707,0.244144,-0.029053,0.011719,0.949966
1834,2.929732,2.563516,0.183108,-0.026734,0.031861,0.927260
1835,-1.342794,0.488289,0.061036,-0.014527,0.026612,0.961563
1836,-4.638743,-0.732433,-0.244144,-0.004761,0.007568,0.989639
1837,-3.601129,-1.342794,-0.488289,-0.020630,-0.007202,0.992813
1838,-2.441444,-2.136263,-0.488289,0.005859,-0.003418,1.003799
1839,-2.197299,-2.319371,-0.488289,-0.010498,-0.004639,1.004654
1840,-0.732433,-2.563516,-0.732433,-0.001709,-0.002441,1.006363
1841,-0.854505,-2.502480,-0.732433,0.002564,0.008301,0.995010
1842,-2.258335,-2.502480,-0.732433,-0.005859,0.008911,0.990005
1843,-3.418021,-2.746624,-1.281758,-0.006104,0.001099,0.991348
1844,-3.356985,-1.464866,-2.990768,0.004273,0.003296,1.016007
1845,-7.080186,-2.014191,-2.624552,-0.009400,-0.015137,0.986709
1846,-4.638743,-2.441444,-2.197299,-0.003906,0.018067,0.983169
1847,-3.112840,-0.061036,-11.718929,0.008911,-0.032715,1.037980
1848,-7.751583,-3.112840,-2.685588,-0.025147,0.030640,0.948501
1849,-7.324331,-2.624552,-1.037613,0.035035,-0.046754,1.109026
1850,6.225681,-0.488289,0.000000,-0.008301,-0.001221,0.987198
1851,-3.112840,-1.525902,1.342794,0.022583,-0.005493,1.008316
1852,-1.342794,-0.061036,1.525902,-0.008789,-0.009277,1.012467
1853,-0.732433,-0.549325,1.892119,0.000977,-0.003784,1.005875
1854,0.183108,-0.244144,2.014191,-0.005127,-0.003906,1.001968
1855,0.915541,-0.488289,1.525902,-0.006104,-0.006104,0.987686
1856,1.037613,-1.770047,1.709010,-0.013428,-0.019532,0.996231
1857,2.990768,-2.380407,0.732433,0.003418,-0.004150,0.993423
1858,-0.427253,-2.502480,0.061036,0.030152,-0.006958,0.994644
1859,-2.258335,-1.220722,-0.976577,0.013428,-0.001709,0.983169
1860,-2.868696,-2.258335,-0.366217,-0.008911,-0.010864,1.008438
1861,0.061036,-2.075227,-0.366217,0.013184,-0.018799,1.017960
1862,0.244144,-1.892119,0.793469,0.020020,-0.001587,1.007218
1863,0.061036,-0.915541,0.732433,0.013062,-0.020386,1.015885
1864,1.770047,0.000000,0.488289,0.002441,0.004761,1.002457
1865,1.892119,0.183108,0.244144,0.004150,0.001831,0.992691
1866,0.610361,-0.122072,-0.244144,-0.000732,0.002075,0.993912
1867,0.793469,-0.671397,-0.549325,0.012573,-0.005493,1.002457
1868,4.089418,0.671397,-2.258335,-0.005371,0.024903,1.000504
1869,-2.746624,-0.610361,-0.976577,0.000732,-0.000122,0.982559
1870,-4.150454,-0.488289,-0.366217,0.006592,-0.005249,1.003067
1871,-4.699779,-0.244144,0.183108,0.005005,-0.004150,1.017227
1872,-1.953155,0.305180,0.244144,0.010498,-0.022705,1.017594
1873,-0.549325,0.366217,0.427253,-0.008179,-0.006592,0.998428
1874,-0.427253,-0.305180,0.915541,-0.013550,-0.015381,1.003433
1875,1.037613,-0.854505,1.098650,-0.002686,-0.003540,1.008316
1876,0.976577,-1.159686,1.342794,-0.002808,-0.012573,0.995377
1877,1.953155,-1.586938,1.403830,-0.000732,-0.010864,0.993301
1878,1.159686,-2.136263,2.197299,0.009888,-0.005982,1.022232
1879,1.586938,-1.342794,1.586938,0.015381,0.007935,0.989273
1880,-3.418021,-1.342794,1.342794,0.009644,0.000855,0.987564
1881,-2.746624,-0.854505,0.366217,0.012329,-0.005615,1.004410
1882,-2.136263,-0.488289,-0.549325,0.006348,-0.002564,0.985000
1883,-2.990768,-0.854505,-0.976577,0.009766,-0.011353,0.995254
1884,-1.953155,-0.732433,-1.281758,0.002319,-0.015503,1.013687
1885,1.281758,-0.732433,-1.281758,0.011475,-0.012207,1.012711
1886,1.464866,-0.671397,-0.732433,0.013306,-0.007568,1.011734
1887,0.976577,-0.732433,-0.122072,0.007446,-0.005737,1.000992
1888,0.061036,-1.037613,0.183108,0.002808,-0.007691,1.001358
1889,1.953155,-0.915541,-0.244144,-0.005982,-0.003784,0.996231
1890,0.183108,-1.586938,-0.427253,0.007446,0.004150,0.978531
1891,-0.122072,-1.586938,-0.976577,0.002075,0.009888,0.969619
1892,-1.586938,-1.342794,-1.892119,0.015503,0.016114,0.974868
1893,-5.127031,-0.549325,-4.272526,0.021485,0.004517,1.000137
