Packet number,Gyroscope X (deg/s),Gyroscope Y (deg/s),Gyroscope Z (deg/s),Accelerometer X (g),Accelerometer Y (g),Accelerometer Z (g)
0,-0.854505,0.000000,0.000000,0.006348,-0.001099,1.008560
1,-0.122072,0.000000,0.000000,0.000000,-0.000244,0.998795
2,-0.305180,0.122072,0.000000,-0.003174,-0.000732,0.992813
3,-0.854505,-0.183108,-0.183108,0.000122,0.000732,0.996109
4,-0.366217,-0.244144,-0.244144,0.005127,0.005737,0.991104
5,-0.976577,-0.366217,-0.244144,-0.000122,0.000366,0.996719
6,-0.671397,-0.366217,-0.183108,0.002319,0.004150,0.996353
7,-0.732433,-0.305180,-0.183108,0.004883,0.006348,0.995987
8,-1.281758,-0.244144,-0.183108,-0.001343,0.002808,0.995743
9,-1.525902,-0.244144,-0.122072,0.005371,0.007202,0.994766
10,-1.953155,-0.061036,-0.183108,0.004273,-0.003052,1.004410
11,-1.586938,0.061036,0.000000,0.006958,-0.001587,1.006607
12,-1.525902,0.122072,0.000000,0.003662,0.002319,1.002457
13,-1.525902,0.000000,0.000000,0.001465,0.001587,1.001968
14,-1.220722,-0.061036,0.000000,0.002075,-0.000366,1.001724
15,-0.915541,0.061036,-0.183108,0.001709,0.000732,1.008804
16,-0.610361,-0.061036,0.000000,0.003784,0.000610,1.001846
17,-0.549325,0.122072,-0.122072,0.003662,0.000000,1.003311
18,-0.244144,-0.061036,-0.183108,0.001953,-0.003174,0.997330
19,-0.793469,-0.244144,0.000000,0.009522,-0.005371,1.006485
20,0.183108,0.061036,-0.183108,0.008057,-0.000244,1.001114
21,-0.305180,-0.061036,-0.122072,0.006836,-0.001465,0.998917
22,-0.183108,-0.061036,-0.183108,0.004517,-0.001709,0.998795
23,-0.183108,0.000000,0.000000,0.003662,0.002564,0.994034
24,-0.732433,0.000000,0.000000,0.002197,-0.003052,1.001114
25,-0.732433,0.061036,0.000000,0.004639,-0.002319,0.991226
26,-0.671397,0.000000,-0.122072,0.005371,-0.000366,1.000504
27,-0.671397,0.000000,0.000000,0.005005,-0.005371,1.002579
28,-0.549325,0.000000,-0.122072,0.004761,-0.000977,1.000259
29,-0.610361,0.000000,-0.122072,0.006348,-0.007446,1.005142
30,-0.183108,0.061036,0.000000,0.003662,0.000855,0.997330
31,-0.610361,-0.061036,-0.122072,0.000244,-0.005493,0.994156
32,-0.366217,-0.061036,-0.122072,0.002319,-0.001953,1.005997
33,0.061036,0.000000,-0.122072,0.004150,-0.001343,0.997940
34,-0.122072,-0.061036,-0.183108,0.005127,-0.003052,0.997086
35,0.244144,0.000000,-0.183108,-0.000366,0.001099,0.993790
36,-0.671397,-0.244144,-0.122072,-0.004517,0.002808,0.994400
37,-1.037613,-0.244144,0.000000,0.009033,0.004273,0.998795
38,-1.220722,0.061036,-0.183108,0.003174,0.000000,0.998917
39,-1.159686,0.183108,0.000000,0.004883,-0.001831,1.002090
40,-1.220722,0.122072,-0.183108,0.003784,0.000244,1.007095
41,-1.220722,0.000000,-0.122072,0.004395,0.000488,1.001846
42,-0.976577,0.000000,0.000000,0.011597,0.000122,1.010269
43,-0.549325,0.000000,-0.122072,-0.002808,0.000977,1.000992
44,-0.732433,-0.061036,0.000000,0.000366,-0.003540,1.002701
45,-0.305180,-0.183108,0.000000,0.000000,0.003052,0.995377
46,-0.976577,-0.305180,-0.122072,0.004883,-0.000855,1.001602
47,-0.305180,-0.061036,0.000000,0.003540,0.001953,0.999893
48,-0.488289,-0.061036,0.000000,0.004150,0.001343,0.995499
49,-0.488289,-0.061036,0.000000,0.008301,-0.002808,1.007706
50,-0.244144,0.061036,0.000000,0.011475,-0.005005,1.007584
51,-0.305180,0.061036,0.061036,-0.003540,0.000488,1.002823
52,-0.061036,-0.244144,0.061036,0.010742,0.002686,0.995010
53,-0.671397,-0.061036,0.000000,0.013428,0.003662,1.007340
54,-1.220722,-0.305180,0.366217,-0.003540,-0.010254,1.013809
55,0.366217,0.122072,0.122072,0.011719,0.013672,0.995010
56,-1.953155,0.000000,0.305180,0.007446,-0.003418,1.010758
57,-0.427253,-0.061036,0.305180,0.002808,-0.008667,1.001114
58,0.244144,0.122072,0.244144,0.009033,-0.004883,1.009293
59,0.793469,0.000000,0.183108,0.000122,-0.003296,1.006485
60,1.464866,-0.183108,0.000000,0.010498,-0.005371,1.015763
61,1.709010,0.000000,0.061036,-0.017212,-0.015991,0.983536
62,3.662165,-0.183108,-0.122072,0.013062,0.003906,1.003067
63,2.624552,-0.244144,0.000000,-0.008301,0.000366,0.996963
64,3.173877,-0.488289,0.000000,0.011353,0.003418,1.005753
65,3.418021,-0.549325,-0.183108,-0.009644,-0.002075,0.998550
66,3.540093,-1.037613,-0.122072,0.006714,0.004883,0.991714
67,2.990768,-1.159686,-0.122072,-0.022583,0.003662,0.987564
68,2.197299,-2.075227,-0.183108,0.014771,0.012329,0.986465
69,2.441444,-1.647974,-0.305180,0.001099,0.007568,0.984146
70,1.647974,-2.441444,0.000000,0.012818,0.015015,1.001968
71,1.953155,-1.647974,-0.427253,0.022705,0.004761,1.006851
72,2.197299,-1.586938,-0.366217,0.008057,0.004273,0.997086
73,2.258335,-1.037613,-0.244144,0.019532,-0.001465,1.004410
74,3.295949,-0.305180,-0.244144,0.003052,0.001587,1.012955
75,2.929732,-0.549325,0.000000,0.004028,0.005249,1.009537
76,2.929732,-0.244144,0.000000,0.006104,0.008423,0.996963
77,2.929732,-0.366217,-0.366217,-0.006226,0.010620,0.985611
78,2.319371,-0.854505,-0.122072,0.010864,0.016480,1.002823
79,2.258335,-0.427253,-0.244144,0.008667,0.005737,0.995499
80,2.685588,-0.427253,-0.305180,0.003296,0.009888,0.998795
81,1.831083,-0.549325,-0.244144,0.020752,0.014160,1.002213
82,2.685588,0.122072,-0.183108,0.014160,0.018067,0.999405
83,1.586938,0.000000,0.000000,0.012329,0.016480,0.982803
84,1.647974,-0.305180,0.000000,0.012207,0.019409,1.003311
85,0.915541,0.000000,0.000000,0.000000,0.008667,0.990982
86,1.098650,-0.244144,0.183108,0.011719,0.010986,1.005386
87,1.586938,-0.305180,0.061036,0.003052,0.018677,0.991470
88,0.732433,-0.976577,0.183108,0.005005,0.008179,1.001968
89,2.014191,-0.793469,-0.122072,0.010498,0.020264,1.007584
90,1.159686,-0.854505,0.061036,0.001831,0.008423,1.000259
91,2.075227,-0.488289,0.183108,0.019532,0.016480,1.001968
92,1.953155,-0.122072,0.183108,-0.003418,0.016114,0.996597
93,2.136263,-0.488289,0.122072,0.008423,0.015503,0.995010
94,2.075227,-0.610361,0.549325,0.001953,0.017212,1.001114
95,2.258335,-0.488289,0.671397,0.013550,0.016480,1.011490
96,2.990768,0.061036,0.671397,0.013428,0.006470,1.018448
97,4.333562,0.427253,0.732433,0.004273,0.007202,0.981704
98,4.699779,0.000000,0.793469,0.000366,0.012696,1.019059
99,5.798428,0.000000,0.671397,0.007935,0.019287,0.992935
100,5.004959,-0.488289,0.671397,-0.006104,0.019776,0.996963
101,6.836042,-0.793469,0.122072,0.003296,0.039673,0.991470
102,3.723201,-1.953155,0.366217,-0.000732,0.011841,0.999771
103,7.751583,-1.770047,-0.366217,0.007446,0.041505,0.997452
104,4.516670,-2.380407,-0.122072,0.013306,0.032227,0.976089
105,5.188067,-1.464866,-0.305180,0.023072,0.034546,0.983047
106,2.990768,-1.220722,-0.305180,0.008789,0.031739,0.975357
107,2.136263,-0.793469,-0.183108,0.036011,0.031617,1.013809
108,2.197299,-0.183108,0.122072,-0.000122,0.024659,1.007218
109,2.990768,-0.427253,0.000000,0.011353,0.045167,0.976699
110,0.732433,-0.610361,0.000000,0.004150,0.035523,0.977188
111,-0.061036,-1.281758,-0.183108,0.009522,0.033692,0.969009
112,-1.342794,-2.136263,-0.427253,0.005371,0.026123,0.993912
113,0.000000,-2.624552,-0.671397,0.015747,0.027588,1.008438
114,0.122072,-2.441444,-0.793469,0.025269,0.024537,1.000748
115,0.976577,-1.953155,-0.610361,0.015015,0.028443,1.007462
116,1.525902,-1.464866,-0.671397,0.024781,0.034058,1.000259
117,0.183108,-0.610361,-0.488289,0.020874,0.032227,0.996597
118,0.366217,0.122072,-0.549325,0.019287,0.036378,0.990860
119,-0.244144,1.098650,-0.488289,0.021729,0.033570,1.001602
120,0.000000,2.014191,-0.366217,0.020752,0.041871,0.981338
121,-1.770047,2.075227,-0.366217,0.019043,0.044434,0.971084
122,-3.173877,2.075227,-0.488289,0.014649,0.038087,0.973892
123,-4.211490,2.197299,-0.427253,0.017334,0.032471,0.993301
124,-4.455634,2.868696,-0.549325,-0.008545,0.018067,0.997818
125,-3.784237,2.197299,-0.183108,0.011963,0.015625,1.001236
126,-2.441444,2.014191,-0.305180,-0.005859,0.018311,0.997940
127,-2.319371,1.159686,-0.122072,0.006226,0.014160,1.008682
128,-0.244144,1.159686,-0.244144,-0.002930,0.022583,1.000504
129,-0.732433,0.610361,-0.183108,0.006958,0.025025,0.982681
130,-0.732433,0.000000,-0.244144,0.001831,0.035279,0.976333
131,-1.403830,-0.732433,-0.305180,-0.007691,0.045655,0.959487
132,-3.601129,-1.892119,-0.427253,-0.000488,0.037842,0.975357
133,-3.540093,-2.197299,-0.305180,0.019654,0.043824,0.962783
134,-6.103609,-2.441444,-0.305180,0.008179,0.031373,0.968643
135,-6.958114,-2.624552,-0.122072,0.021973,0.027222,0.976699
136,-7.934691,-2.807660,0.000000,0.003540,0.021973,0.991348
137,-8.545052,-3.479057,0.061036,0.012818,0.015015,0.996841
138,-7.202258,-3.356985,0.000000,0.007080,0.027832,0.981949
139,-8.178836,-4.089418,0.000000,0.005005,0.037110,0.955337
140,-11.352712,-5.493248,0.183108,0.007324,0.019776,0.968154
141,-11.230640,-6.347753,0.183108,0.009522,0.020508,0.954849
142,-14.282444,-7.324331,0.366217,0.018555,0.011841,0.992569
143,-14.526589,-7.263294,0.671397,0.027222,0.002441,0.980606
144,-15.197986,-7.141222,1.037613,0.008789,0.029175,0.920058
145,-23.254749,-9.582666,2.380407,0.023682,0.031006,0.935073
146,-29.053178,-11.047532,2.746624,0.023438,-0.003052,1.000137
147,-27.832456,-10.986496,2.502480,0.021363,0.007446,0.950820
148,-31.982910,-11.535821,3.051804,0.014038,0.013184,0.951675
149,-36.987869,-12.756542,4.028382,0.018433,0.002319,0.956558
150,-36.682689,-13.244831,3.723201,0.033570,-0.007935,1.016861
151,-40.772107,-12.268254,3.662165,0.042115,-0.047852,1.025772
152,-34.912642,-10.742351,2.807660,0.038453,-0.050172,1.028824
153,-34.058137,-9.948882,3.356985,0.053101,-0.028321,0.998795
154,-34.973678,-9.460594,2.746624,0.040772,-0.042481,1.034928
155,-30.579080,-8.361944,2.258335,0.043946,-0.059937,1.018570
156,-29.236286,-7.385367,2.319371,0.037720,-0.080079,1.010636
157,-31.921874,-6.836042,3.051804,0.010864,-0.091432,1.011490
158,-24.963760,-7.019150,5.065995,0.058595,-0.046876,1.048966
159,-26.184482,-5.371176,5.493248,0.032959,0.019776,0.995743
160,-32.532235,-3.479057,4.333562,0.113039,0.030762,0.927993
161,-49.866484,-4.211490,3.723201,0.071778,0.010376,1.092302
162,-48.584726,1.159686,2.075227,0.043580,-0.089479,0.993545
163,-44.129091,1.831083,-0.793469,0.031373,-0.045167,0.990616
164,-47.241932,3.295949,-1.037613,0.023194,-0.056275,1.018082
165,-50.659953,2.258335,-5.371176,0.002930,-0.086061,0.999283
166,-47.547112,0.732433,-8.300908,0.007568,-0.170657,0.907240
167,-45.838102,0.488289,-14.892805,0.000366,0.012696,1.094133
168,-60.975052,2.014191,-32.349126,-0.017823,-0.169070,0.957656
169,-75.013352,10.559243,-33.691920,0.114626,-0.205814,1.028336
170,-69.520104,11.108568,-22.583352,0.100221,-0.295659,1.090227
171,-49.500267,1.342794,-7.324331,0.090822,-0.153323,1.034195
172,-51.880674,5.310140,-5.493248,0.082521,-0.046754,0.994644
173,-79.041733,9.765774,-5.127031,0.058106,0.027710,0.988052
174,-105.714504,12.207218,-5.798428,0.084474,-0.062257,0.893202
175,-103.578241,9.216449,13.183795,0.059815,-0.157351,0.986831
176,-99.122606,1.831083,15.197986,-0.054078,0.121706,0.759655
177,-129.457542,-8.667124,8.606088,0.181521,0.649790,0.722545
178,-294.316014,-9.704738,-5.249104,0.010864,0.406989,1.377951
179,-442.267491,-11.474784,15.503166,-0.033814,-0.166873,0.966812
180,-534.981308,-33.020523,31.311513,0.107179,-0.031250,1.299580
181,-574.898909,-37.109941,18.188754,0.181888,-0.127321,1.423117
182,-629.221027,-30.640116,26.855879,0.058595,-0.183719,0.970352
183,-679.514763,-40.222782,44.617380,0.529061,-1.657984,1.519799
184,-702.586404,-3.967346,136.171511,-1.043107,-0.531014,1.999969
185,-217.044327,15.930419,-39.429313,-0.266606,-1.115618,1.999969
186,161.562524,51.941711,-52.185855,-0.426886,0.704234,1.999969
187,45.227741,63.538567,-68.055238,-0.219730,0.438483,1.999969
188,-60.303655,14.160372,9.521630,-0.385626,0.462531,1.725246
189,18.432898,4.272526,12.085145,-0.162600,0.285283,1.546288
190,118.593118,10.254063,-2.136263,-0.083619,0.470100,0.923842
191,78.614481,1.464866,4.699779,0.024659,0.445930,0.775280
192,80.262455,0.854505,2.014191,0.085328,0.258183,0.750622
193,112.428473,3.601129,-7.202258,0.162234,0.351446,0.602670
194,99.488823,-0.549325,-11.657893,0.170901,0.346563,0.684092
195,106.080720,-1.403830,-18.188754,0.128176,0.298344,0.877333
196,124.818799,-0.244144,-24.048219,0.051759,0.340215,1.016251
197,133.607996,-2.258335,-24.353399,-0.025757,0.321050,1.251972
198,158.632792,-4.272526,-23.315785,-0.069581,0.279057,1.433860
199,187.136645,-4.455634,-20.508125,-0.098512,0.238041,1.492821
200,210.879683,-1.647974,-16.784924,-0.065431,0.141238,1.402243
201,232.242313,4.577707,-14.038300,-0.029175,0.064698,1.194598
202,241.702907,9.033341,-11.169604,0.013794,0.015625,1.033097
203,242.984665,10.070954,-8.667124,0.061524,-0.024537,1.044694
204,247.379263,7.812619,-7.629511,0.102419,-0.039796,1.130999
205,253.360800,5.004959,-8.728161,0.141726,-0.032105,1.250629
206,257.877470,2.929732,-11.657893,0.173831,-0.035889,1.422019
207,267.277028,3.540093,-17.883574,0.213016,-0.073610,1.519921
208,276.981765,9.277485,-26.855879,0.269413,-0.099855,1.548608
209,279.056992,18.677043,-38.635843,0.315557,-0.244999,1.369284
210,274.845502,31.616693,-51.392386,0.306157,-0.342290,1.192645
211,261.844816,36.682689,-61.768521,0.247929,-0.376349,1.179339
212,247.623407,35.400931,-69.031815,0.173465,-0.379767,1.312642
213,238.040742,34.668498,-73.975738,0.079835,-0.404425,1.390158
214,226.321813,41.748684,-75.074388,-0.037232,-0.455573,1.491478
215,209.231708,49.561303,-70.862898,-0.136355,-0.495613,1.766140
216,202.761883,53.589685,-63.538567,-0.157717,-0.576669,1.999969
217,210.513466,54.505226,-55.786984,-0.128176,-0.657603,1.999969
218,222.598611,56.275273,-48.584726,-0.086305,-0.694957,1.999969
219,230.411231,57.312886,-41.199359,-0.034668,-0.720958,1.999969
220,240.787366,58.716716,-33.997101,0.033814,-0.777478,1.999969
221,258.915084,61.463340,-30.090791,0.117922,-0.833997,1.929595
222,258.365759,62.989242,-25.635157,0.112184,-0.889418,1.628077
223,246.280613,59.754330,-19.714656,0.078004,-1.023697,1.380026
224,235.782406,57.129778,-13.122759,-0.009888,-1.118914,1.279805
225,215.335317,53.711757,-2.502480,-0.106447,-1.254536,1.262837
226,201.297017,49.866484,10.498207,-0.089357,-1.427512,1.192401
227,182.803082,48.096437,20.141909,0.127199,-1.640650,1.025772
228,153.749905,52.063783,20.202945,0.395758,-1.955596,0.813977
229,123.109789,66.102083,10.742351,0.717296,-2.000031,0.304814
230,89.478904,75.379568,-11.963073,0.770520,-2.000031,-0.160037
231,44.007019,65.186542,-18.249790,0.590585,-2.000031,-0.364752
232,-11.352712,26.428626,-5.981537,0.312993,-1.862821,-0.069093
233,-99.977111,-7.873655,9.826810,0.165774,-2.000031,-1.227680
234,-201.724269,-84.779126,49.683375,-0.026001,-2.000031,-0.417853
235,-250.736248,-87.891966,70.435645,0.382818,-1.347433,-0.137087
236,-132.448310,-62.317845,28.564889,0.357916,0.223636,1.885161
237,-166.994736,-47.302968,34.668498,0.336797,1.073014,1.999969
238,-238.834211,-75.074388,36.316472,0.390875,0.404181,1.044938
239,-259.647517,-73.731594,33.325704,0.372686,-0.326665,0.707286
240,-267.277028,-39.124132,29.663539,0.278691,-0.310674,1.839139
241,-259.952697,-29.236286,32.532235,0.498543,-0.248539,1.999969
242,-168.886854,-7.263294,13.427939,0.224002,-0.385870,1.999969
243,-97.108415,4.760815,4.089418,-0.277104,-0.060060,1.775051
244,-103.639277,-17.029068,19.714656,-0.614633,-0.004517,1.915435
245,-96.742199,-55.970092,32.043946,-0.306767,-0.325444,1.415793
246,-36.194400,-69.214923,19.043259,0.659068,0.126711,1.981109
247,-47.608148,-47.669184,9.948882,0.813489,0.034913,1.845487
248,-18.982223,-13.061723,0.305180,-0.209476,-0.025025,1.057145
249,-30.029755,-30.273899,7.019150,-0.246708,0.108156,1.076432
250,-34.424353,-36.316472,4.699779,0.425422,0.036988,1.377340
251,-18.432898,-10.803388,-1.037613,0.143923,0.013062,1.180316
252,-18.371862,-7.385367,2.563516,-0.107424,-0.002564,1.098405
253,-8.300908,-12.024109,2.319371,0.079347,0.041382,1.079973
254,-6.225681,-6.897078,0.915541,0.049195,0.067506,0.977188
255,-13.000687,-4.394598,2.319371,0.017090,0.071168,0.999405
256,-12.878614,-2.502480,1.647974,0.040040,0.045533,0.956924
257,-17.761501,0.183108,2.502480,0.059205,0.069703,0.975357
258,-21.545739,3.173877,3.112840,0.042847,0.043824,1.027726
259,-20.325017,5.310140,1.464866,0.040284,0.015381,1.070329
260,-15.014878,4.638743,2.014191,0.060914,-0.006592,0.986343
261,-20.630198,3.418021,3.051804,0.006104,-0.002808,0.978042
262,-17.883574,1.037613,2.868696,-0.008911,0.024659,1.055314
263,-13.488975,-0.366217,2.319371,-0.002075,-0.001465,1.033341
264,-6.958114,-0.549325,-0.976577,-0.033692,-0.109987,0.838880
265,-5.371176,-3.967346,0.793469,-0.003296,0.086549,1.059342
266,-7.629511,-4.882887,1.220722,0.010498,-0.000366,0.983413
267,-5.859464,-4.089418,0.976577,0.033814,0.028077,0.982071
268,-7.019150,-3.601129,0.976577,0.016114,0.052491,0.981094
269,-10.925460,-3.356985,1.342794,0.012573,0.024537,0.994888
270,-11.230640,-3.051804,0.915541,-0.033082,0.118410,1.235370
271,-7.751583,-3.173877,1.342794,0.052491,-0.061402,0.992081
272,-10.193027,-3.784237,0.976577,0.014771,-0.022950,0.991958
273,-7.202258,-4.089418,1.037613,0.010620,-0.007568,1.046403
274,-1.525902,-3.967346,0.671397,-0.007446,0.034791,1.007950
275,-2.258335,-5.432212,0.488289,-0.007202,0.044678,0.975601
276,-4.699779,-6.408789,0.000000,0.007202,0.005005,0.942885
277,-6.713970,-7.263294,0.000000,0.014282,0.035279,0.964492
278,-9.643702,-7.385367,0.244144,0.030274,0.023682,0.999649
279,-8.667124,-6.713970,0.122072,0.022339,0.011109,1.011002
280,-8.117800,-5.432212,0.366217,0.059083,0.016602,1.039078
281,-8.850233,-3.356985,0.976577,0.039307,0.018311,1.029801
282,-7.080186,-1.709010,1.525902,0.043091,0.013062,0.966567
283,-10.803388,-0.915541,2.014191,0.033814,0.028077,0.955459
284,-14.770733,-1.464866,2.685588,0.015747,0.019654,0.941054
285,-18.432898,-3.173877,3.112840,0.014527,0.036378,0.905898
286,-27.832456,-5.737392,4.211490,0.014038,0.029786,0.948623
287,-31.250477,-7.324331,3.356985,-0.000244,0.002930,0.935195
288,-32.837415,-10.437171,2.197299,0.000977,0.002686,0.964004
289,-33.813993,-12.512398,0.671397,0.021607,-0.009155,0.988296
290,-34.241245,-12.939651,-0.671397,0.036622,-0.016114,1.012955
291,-34.424353,-11.596857,-1.586938,0.032837,-0.015259,1.006729
292,-36.865797,-10.742351,-0.915541,0.050416,-0.048585,1.005142
293,-32.410163,-8.484016,0.427253,0.078004,-0.036500,1.008316
294,-36.255436,-4.699779,2.502480,0.082277,-0.060304,0.929946
295,-41.443503,-5.371176,5.065995,0.039551,-0.065553,0.996841
296,-36.255436,-5.371176,6.225681,-0.013794,-0.051881,1.091325
297,-36.255436,-2.929732,5.493248,0.134524,0.104860,1.035538
298,-55.298695,6.652934,3.356985,-0.023072,0.035889,0.939712
299,-66.407263,0.671397,2.746624,0.012451,-0.055055,0.961563
300,-62.867170,1.037613,-1.464866,0.023682,-0.039307,0.986343
301,-62.073701,0.610361,-8.545052,-0.049317,-0.045777,1.010025
302,-62.989242,-4.821851,-17.700465,-0.074830,-0.145266,1.027604
303,-71.961547,-4.089418,-29.724575,-0.047974,-0.141848,1.135027
304,-95.460441,6.652934,-49.744411,0.090822,-0.380011,1.022110
305,-62.378882,1.831083,-28.809033,0.208621,-0.426398,1.136248
306,-26.367590,-2.502480,-0.549325,0.185306,-0.145632,1.012345
307,-47.608148,8.300908,1.159686,0.079469,0.175906,1.021988
308,-91.432059,20.691234,-9.704738,0.157717,0.166384,1.020523
309,-132.082094,30.151827,0.244144,0.071656,0.215091,0.803357
310,-147.219043,15.136950,3.784237,-0.340337,0.158694,0.979995
311,-160.952163,-22.766461,-6.347753,-0.100099,0.269291,0.543954
312,-323.491264,-26.916915,-28.747997,0.018311,1.008316,1.490379
313,-565.133135,-33.264668,-56.397345,-0.424323,0.474006,1.439719
314,-729.137102,-103.273060,-3.356985,-0.338262,0.229740,1.522118
315,-885.023270,-162.478065,37.048905,0.038819,0.086183,1.129778
316,-1000.625620,-188.296330,85.755703,1.321431,-2.000031,1.999969
317,-857.923247,-109.681849,202.334630,-0.274174,-1.163226,1.999969
318,180.178531,-22.827497,-90.638590,0.131960,-0.538827,1.999969
319,496.894789,20.447089,-89.173724,-0.537850,0.889296,1.999969
320,258.426795,25.513085,-104.859998,-0.329717,1.018814,0.461799
321,46.875715,-33.020523,-19.409476,-0.746227,0.470100,-0.262089
322,-56.763561,-74.219883,23.132677,-0.382574,0.551522,0.260990
323,15.136950,-43.274586,-1.953155,-0.363897,0.238285,0.662486
324,106.202792,-10.986496,-16.845960,-0.283085,0.468391,0.727916
325,81.116960,3.906310,-12.207218,-0.290410,0.542245,0.834363
326,76.295109,11.596857,-6.652934,-0.306279,0.383795,0.943374
327,122.804608,21.423667,-7.385367,-0.313115,0.373541,0.961685
328,140.077821,22.461280,-2.929732,-0.268681,0.420905,0.801892
329,144.289311,27.161059,0.488289,-0.226200,0.400885,0.894667
330,162.294957,37.537194,0.183108,-0.161501,0.358892,0.973281
331,180.239567,50.659953,-0.915541,-0.124147,0.337774,1.040543
332,190.859846,57.312886,0.122072,-0.108156,0.273075,1.108293
333,208.926528,55.725948,2.990768,-0.087282,0.230594,1.123186
334,228.030823,47.302968,5.920500,-0.012085,0.220584,1.138079
335,241.886015,38.025483,5.798428,0.094118,0.230472,1.265400
336,254.215305,34.546426,1.647974,0.203128,0.227543,1.466331
337,273.380636,39.612421,-6.286717,0.292851,0.211429,1.611231
338,293.034257,47.364004,-17.090105,0.327153,0.130983,1.566430
339,306.584268,53.589685,-27.100023,0.303227,-0.060670,1.237934
340,307.072557,63.416495,-35.767147,0.276493,-0.272709,0.784802
341,283.024338,76.112001,-40.466926,0.275883,-0.367315,0.587533
342,247.318227,84.596017,-43.457694,0.341680,-0.316411,0.662608
343,219.913024,83.253223,-47.974365,0.372076,-0.122072,1.171405
344,196.414130,71.107042,-50.720989,0.384161,0.025513,1.999969
345,200.808728,61.341268,-55.176623,0.335210,-0.025391,1.999969
346,242.191196,62.378882,-62.378882,0.223392,-0.338262,1.999969
347,292.790112,80.567636,-64.454108,0.127810,-0.511116,1.999969
348,285.099565,89.723049,-58.045319,-0.032349,-0.628061,1.999969
349,280.094606,83.009079,-45.960174,-0.178836,-0.833387,1.999969
350,306.523232,75.867857,-32.593271,-0.215824,-0.886244,1.999969
351,311.100938,70.313573,-16.784924,-0.232425,-0.940688,1.999969
352,308.964675,71.900511,-1.892119,0.133059,-1.008194,1.930571
353,301.396201,84.962234,1.220722,0.356451,-1.003799,1.712551
354,275.089647,85.328450,5.615320,0.331792,-1.172015,1.679591
355,262.211032,76.173037,15.014878,0.161379,-1.428489,1.598291
356,243.106737,57.557031,31.128405,0.040528,-1.870634,1.363180
357,210.574502,46.204318,51.331350,0.295659,-2.000031,0.875868
358,156.557565,43.945983,47.974365,0.917494,-2.000031,0.433478
359,101.930266,64.759289,5.004959,1.354025,-2.000031,0.144533
360,63.172351,101.136797,-41.077287,0.981827,-2.000031,-0.208865
361,23.071641,91.615167,-41.138323,0.316167,-2.000031,-0.420294
362,-45.532921,18.677043,-6.164645,-0.150271,-2.000031,0.092287
363,-70.130465,-59.815366,36.377508,-0.304570,-1.731228,0.855116
364,-60.059510,-99.916075,49.073014,0.636362,-1.919829,-2.000031
365,-219.851987,-53.040360,36.804761,-0.094484,0.320073,1.032486
366,-208.377203,-78.492409,29.358358,-0.630625,-0.094606,1.224506
367,-122.926680,-75.318532,21.972992,-0.664439,1.247822,1.281147
368,-276.127260,-77.576867,58.228428,-0.712535,0.648447,0.238895
369,-370.733196,-65.491722,92.164492,0.436286,-0.540536,-0.042725
370,-382.635233,-46.387427,80.750744,1.755398,-0.310185,1.999969
371,-321.599146,3.601129,38.452735,1.999969,-0.333379,1.999969
372,-185.427634,50.720989,-19.348440,0.676036,-0.374395,1.999969
373,-172.732128,23.804074,-10.070954,-1.983307,-0.714366,1.999969
374,-77.637903,-44.800488,37.964446,-1.957549,-0.689708,0.923476
375,-49.866484,-123.170825,49.195087,0.454353,0.505379,1.168475
376,-104.127565,-100.709545,43.030442,1.999969,0.239384,1.999969
377,-43.396658,-16.174563,6.836042,-0.059815,-0.204471,1.988434
378,-25.940337,-35.645075,13.305867,-0.891859,-0.070069,0.667369
379,-35.217823,-69.703212,7.019150,0.588510,0.345586,1.266865
380,-57.984283,-31.799802,3.662165,0.535042,-0.024781,1.294453
381,-42.725261,-12.573434,2.746624,-0.414435,-0.033692,1.086320
382,-38.574807,-28.503853,1.464866,0.209476,0.005249,1.240131
383,-25.635157,-10.009918,-0.915541,0.209720,0.062989,1.236469
384,-28.870069,-0.061036,1.586938,-0.070436,0.002441,1.057755
385,-24.719615,-2.197299,2.685588,0.076905,-0.023194,1.131365
386,-18.005646,6.652934,2.380407,0.059693,-0.013184,1.048234
387,-19.409476,9.094377,5.920500,0.013428,-0.011597,1.060441
388,-13.061723,10.009918,4.760815,-0.014527,0.017212,0.993057
389,-15.197986,8.117800,4.821851,-0.015869,0.026978,0.994766
390,-16.906996,8.422980,3.906310,-0.003906,0.082887,1.114397
391,-14.831769,6.103609,3.356985,-0.060060,0.006348,0.967422
392,-19.348440,0.671397,2.807660,-0.030640,-0.002808,0.948013
393,-16.784924,-1.281758,2.014191,-0.017334,-0.011353,1.023941
394,-13.855192,-2.868696,1.709010,-0.033082,-0.007813,1.007706
395,-12.634470,-5.004959,1.647974,-0.019409,-0.027710,1.016007
396,-8.545052,-5.981537,1.159686,-0.063111,0.020752,1.056046
397,-4.760815,-8.789197,2.197299,-0.025757,0.067872,0.862196
398,-14.587625,-12.146181,1.403830,-0.012207,-0.002197,0.955459
399,-14.038300,-13.000687,0.793469,-0.013062,-0.007813,1.013565
400,-13.550011,-12.817578,0.122072,-0.012207,0.006226,0.983658
401,-15.686275,-13.305867,0.183108,-0.006714,0.004150,0.980850
402,-16.235599,-14.770733,0.549325,0.004028,0.073365,1.010269
403,-16.723888,-12.451362,1.342794,0.024659,-0.030518,1.021500
404,-15.136950,-10.864424,1.403830,0.032959,-0.042237,1.029923
405,-12.756542,-8.972305,1.709010,0.027710,-0.044800,1.018692
406,-13.183795,-7.629511,2.441444,0.022705,-0.023560,1.044816
407,-10.864424,-6.408789,2.807660,0.038331,-0.036500,0.963638
408,-12.878614,-6.286717,3.356985,-0.004761,-0.016968,0.967300
409,-14.282444,-7.812619,2.807660,-0.008057,-0.021485,0.962905
410,-15.869383,-9.155413,2.197299,0.007935,-0.018189,0.997086
411,-16.845960,-9.582666,1.647974,0.014771,-0.025635,1.000381
412,-17.029068,-9.155413,1.037613,0.025879,-0.027832,0.989273
413,-19.653620,-8.606088,1.464866,0.020508,-0.026978,0.989639
414,-21.728847,-8.117800,1.647974,0.020996,-0.038209,1.005509
415,-23.437858,-7.568475,1.586938,0.023072,-0.040650,1.014298
416,-24.353399,-7.507439,1.098650,0.002197,-0.041505,0.973648
417,-25.391012,-8.850233,1.342794,0.019409,-0.016358,1.028092
418,-28.747997,-9.033341,1.220722,-0.002930,-0.054200,1.011368
419,-27.038987,-9.765774,0.793469,0.025879,-0.036744,0.967178
420,-29.785611,-9.948882,-0.549325,0.020996,-0.008057,0.934707
421,-37.781338,-12.207218,-0.122072,0.036500,-0.026123,0.948867
422,-37.048905,-10.925460,0.854505,0.055787,-0.010864,1.036881
423,-53.406577,-2.136263,3.601129,0.131472,-0.096803,1.000870
424,-56.580453,2.258335,7.263294,-0.011963,-0.122194,1.025895
425,-47.669184,3.418021,6.897078,0.080812,-0.063966,1.026383
426,-56.885634,3.723201,5.249104,-0.039307,-0.097658,1.000992
427,-59.449149,0.061036,3.356985,-0.056031,-0.059205,0.983902
428,-60.181582,-1.831083,-6.775006,-0.042481,-0.080934,1.046525
429,-56.885634,-2.746624,-12.024109,-0.031250,-0.189212,1.019059
430,-60.547799,-1.953155,-26.733806,-0.019776,-0.084840,0.991592
431,-67.261769,6.408789,-54.444190,0.033204,-0.263676,0.969375
432,-51.209277,-1.281758,-38.025483,0.168948,-0.510872,1.104265
433,-15.625238,-9.338521,-1.831083,0.115969,-0.219730,1.061662
434,-17.700465,-3.418021,-3.845274,0.010132,0.032593,0.884047
435,-47.486076,3.295949,-21.728847,0.144533,0.117189,1.014542
436,-85.877775,16.906996,-20.569162,0.155520,0.268070,0.877333
437,-135.988403,22.522316,-31.738766,-0.070802,0.508309,0.808240
438,-186.282139,-5.981537,-41.321431,-0.117800,0.241581,0.322637
439,-282.719158,-44.373236,-9.582666,-0.020020,0.772107,1.521019
440,-504.707408,-24.597543,-32.471199,0.619150,1.713771,1.999969
441,-705.821317,-62.195773,-53.711757,-0.649912,0.231205,1.379049
442,-896.070802,-131.227588,27.222095,-0.256107,0.062135,1.359762
443,-1001.968414,-143.190661,45.960174,-0.006592,0.131228,0.877211
444,-1188.067445,-151.308461,60.486763,0.637949,-2.000031,1.999969
445,-653.086137,-12.451362,115.297169,-2.000031,-1.847807,1.999969
446,267.399100,37.109941,-88.624399,-0.892103,0.547250,1.999969
447,361.760891,74.158846,-61.219196,-1.252705,1.256001,1.999969
448,115.419242,53.284504,-27.832456,-0.959243,0.525154,1.358663
449,13.550011,-41.077287,94.850080,-0.851942,0.456184,0.386236
450,46.387427,-87.708858,103.028916,-0.183230,0.205325,0.247562
451,155.519951,-83.497368,76.173037,-0.150759,0.375616,0.458259
452,132.997635,-72.083619,69.214923,0.064576,0.555917,0.539681
453,109.132525,-33.142596,58.411536,0.147829,0.408087,0.759045
454,144.228275,10.864424,31.860838,0.114504,0.361822,0.709728
455,148.805982,30.945296,16.784924,0.027344,0.369268,0.614633
456,149.233234,27.038987,8.606088,-0.026978,0.285161,0.807385
457,174.196994,19.043259,2.075227,-0.056031,0.291630,1.053971
458,192.446784,13.733120,-1.892119,-0.086793,0.286870,1.385519
459,216.495003,18.066682,-4.028382,-0.126467,0.167971,1.569726
460,253.788052,27.283131,-5.432212,-0.149783,0.061036,1.443137
461,276.920729,29.663539,-2.685588,-0.184207,-0.038453,1.188495
462,290.348669,22.461280,2.380407,-0.160647,-0.094850,1.106584
463,299.443046,11.413748,6.713970,-0.077760,-0.113405,1.333516
464,312.748913,4.821851,7.690547,0.062989,-0.107912,1.549218
465,331.242847,8.850233,1.342794,0.230350,-0.124147,1.671656
466,343.022812,19.592584,-10.803388,0.357183,-0.280644,1.405539
467,338.200961,36.560616,-27.954528,0.450568,-0.529671,0.944350
468,317.631800,66.712444,-47.852293,0.558968,-0.557504,0.690562
469,277.775235,87.220569,-64.698253,0.448737,-0.474128,1.078630
470,252.201114,85.633631,-75.806821,0.375006,-0.488167,1.535546
471,254.215305,83.863584,-81.727321,0.158206,-0.512703,1.748806
472,246.158541,88.807507,-80.201419,-0.051759,-0.610727,1.972930
473,230.167086,97.169451,-69.031815,-0.296757,-0.752575,1.999969
474,232.730602,102.174411,-50.659953,-0.410163,-0.943618,1.999969
475,241.580835,101.625086,-29.175250,-0.366461,-1.042741,1.999969
476,263.004501,81.483177,-7.263294,-0.194705,-1.178607,1.999969
477,302.433814,66.590372,1.342794,0.136843,-1.190814,1.999969
478,321.049821,67.689021,-3.845274,0.508553,-1.077775,1.914946
479,291.813535,70.374609,-12.573434,0.607919,-1.036027,1.702052
480,272.648203,55.848020,-18.554971,0.587533,-1.056046,1.773953
481,276.371405,33.386740,-26.123445,0.413458,-1.081559,1.818753
482,270.084688,14.648661,-31.311513,0.223026,-1.223774,1.753201
483,259.220264,11.841001,-36.194400,0.073854,-1.536889,1.546044
484,240.299077,22.339208,-39.490349,0.055177,-2.000031,1.065812
485,202.578775,42.542153,-46.204318,0.217044,-2.000031,0.536995
486,149.599451,74.158846,-54.261082,0.442267,-2.000031,0.118410
487,99.732967,103.578241,-58.655680,0.421637,-2.000031,-0.263798
488,57.312886,91.737240,-37.964446,0.206790,-2.000031,-0.522103
489,0.976577,21.057450,4.760815,0.072633,-2.000031,-0.299931
490,-38.269627,-58.167391,49.256123,0.094484,-1.913970,0.636728
491,-46.936751,-91.554131,79.652094,0.183474,-1.511009,1.203265
492,-52.124819,-98.939498,79.224842,0.672251,-1.983551,-2.000031
493,-179.018845,-99.122606,75.318532,0.505135,0.571298,0.706554
494,-166.445411,-86.366064,36.560616,0.259648,-0.064942,1.109392
495,-130.006867,-45.288777,40.222782,0.269535,1.349630,1.307515
496,-250.919356,-94.178683,44.373236,-0.024903,0.735851,0.828260
497,-275.211719,-67.261769,49.195087,0.265385,-0.338384,0.553353
498,-300.419623,-36.621653,50.720989,0.606332,-0.218875,1.999969
499,-265.629053,-20.569162,42.908370,1.175189,-0.305669,1.999969
500,-153.627832,14.831769,-0.793469,0.850355,-0.130495,1.999969
501,-141.908904,27.649348,-12.634470,-0.247440,-0.088869,1.627100
502,-159.975586,0.061036,20.569162,-1.619043,-0.568978,1.999969
503,-98.817426,-64.576181,46.936751,-0.917983,-0.372930,0.996597
504,-79.774166,-107.118334,49.683375,0.796155,0.389532,1.973053
505,-79.285878,-74.280919,28.992142,1.265400,0.094728,1.999969
506,-50.782025,-19.104295,16.662852,-0.390753,0.003296,1.332540
507,-59.449149,-47.608148,21.850919,-0.275395,0.002319,1.004410
508,-46.021210,-50.843061,7.690547,0.557870,0.107668,1.549950
509,-43.030442,-20.935378,4.028382,0.049317,-0.009644,1.186053
510,-39.673457,-18.371862,2.868696,-0.133059,-0.053101,1.236103
511,-26.672770,-21.423667,2.014191,0.175051,0.010254,1.174212
512,-18.249790,-11.596857,0.366217,0.047730,0.063355,1.086687
513,-19.714656,-8.361944,2.502480,-0.021851,-0.005493,1.054826
514,-17.456321,-6.042573,2.258335,0.074708,0.060304,0.999649
515,-22.583352,-1.403830,2.319371,0.017456,0.032471,0.961440
516,-24.109255,0.061036,3.234913,0.046387,0.015625,1.058976
517,-22.888533,4.028382,3.662165,0.044556,0.011109,1.052140
518,-23.010605,5.981537,5.249104,0.011353,-0.017212,1.047379
519,-19.165332,6.408789,5.249104,0.008545,0.001221,1.024308
520,-18.677043,6.164645,5.432212,-0.006226,-0.011963,1.016373
521,-16.113527,5.432212,4.943923,-0.090822,0.076051,1.184833
522,-10.437171,2.868696,6.591897,0.032105,0.058961,0.898329
523,-15.625238,2.746624,5.004959,-0.041993,-0.038209,0.914076
524,-14.282444,0.061036,3.540093,-0.031006,-0.015625,1.020645
525,-14.343481,-2.075227,2.929732,-0.020264,-0.013184,1.024796
526,-13.305867,-2.990768,2.014191,-0.014038,-0.013062,0.986221
527,-12.817578,-3.906310,1.220722,-0.021851,-0.015015,1.000137
528,-12.146181,-4.943923,0.732433,-0.010376,-0.016236,1.011612
529,-11.718929,-5.188067,0.671397,-0.002930,-0.032593,1.009781
530,-9.887846,-5.065995,0.427253,-0.120729,0.036988,1.251484
531,-3.540093,-5.798428,1.403830,0.042969,-0.028687,0.894057
532,-8.667124,-6.469825,0.854505,-0.023194,-0.037476,0.914687
533,-8.606088,-7.141222,0.793469,-0.004028,-0.023804,1.001358
534,-9.887846,-7.507439,0.671397,-0.021485,-0.010498,0.985855
535,-10.986496,-8.239872,0.793469,0.004028,0.026246,0.993057
536,-13.550011,-8.422980,0.793469,0.010742,-0.012085,0.978531
537,-13.977264,-8.178836,0.427253,-0.045533,0.039429,1.066056
538,-14.099336,-9.704738,2.075227,0.102907,0.015625,0.867689
539,-19.287404,-7.690547,2.197299,0.034180,-0.088380,0.896864
540,-18.005646,-5.554284,2.197299,0.049561,-0.092042,1.011002
541,-16.662852,-2.807660,2.685588,0.040040,-0.057008,1.035172
542,-18.738079,-1.586938,3.723201,0.018311,-0.039063,1.012345
543,-18.493935,-0.854505,3.662165,-0.002441,-0.024170,0.964248
544,-22.827497,-2.380407,4.028382,0.001465,-0.021485,0.977676
545,-24.597543,-3.784237,3.418021,-0.020996,-0.026123,0.983902
546,-24.414435,-5.493248,1.342794,-0.022950,-0.028321,0.962051
547,-27.100023,-8.056764,-0.488289,-0.007202,-0.031006,0.970596
548,-29.663539,-9.277485,-2.319371,-0.006226,-0.006226,0.941176
549,-34.058137,-11.230640,-3.356985,0.000732,-0.020996,0.960952
550,-41.382467,-12.512398,-2.807660,-0.030640,-0.081544,0.967910
551,-40.833143,-14.892805,-1.159686,-0.014893,-0.101442,0.880262
552,-44.556344,-14.404517,2.563516,0.068849,-0.083009,0.987076
553,-48.096437,-14.099336,5.920500,0.021973,-0.116335,1.140520
554,-46.021210,-5.981537,4.943923,0.089967,-0.117311,0.991836
555,-44.800488,-2.014191,3.479057,-0.010864,-0.097292,1.013321
556,-43.579767,-2.380407,-0.305180,-0.015381,-0.038697,1.025650
557,-45.838102,-5.127031,-10.131991,-0.079591,-0.050050,1.038956
558,-48.035401,-9.460594,-16.052491,-0.076051,-0.166873,0.964614
559,-53.040360,-14.282444,-19.409476,-0.048585,-0.071778,1.155535
560,-71.717403,-4.882887,-43.030442,0.059327,-0.312383,0.954360
561,-58.411536,-5.249104,-30.212863,0.245975,-0.428229,1.047013
562,-23.315785,-9.155413,-4.638743,0.085206,-0.229129,1.046403
563,-26.672770,-5.310140,-6.652934,-0.003662,0.107301,0.988052
564,-71.839475,2.258335,-21.545739,0.120851,0.105470,0.987564
565,-115.907530,13.488975,-13.244831,0.029053,0.345953,0.879774
566,-176.821546,6.225681,-18.249790,0.015991,0.543343,0.523568
567,-188.601511,-30.518044,-14.038300,-0.139040,0.365118,0.554574
568,-362.615396,-51.453422,-25.452049,0.206302,1.358663,1.330953
569,-605.966278,-47.058824,-52.124819,-0.232181,0.534554,1.481956
570,-794.872969,-134.523537,19.226368,-0.600473,-0.072145,1.402609
571,-933.913176,-196.108949,70.435645,-0.108522,0.016724,1.004776
572,-1051.346609,-218.753338,107.789731,1.161639,-2.000031,1.999969
573,-994.644083,-167.116808,262.455177,-0.399298,-1.502342,1.999969
574,59.205005,-83.802548,-52.674144,0.045167,-1.115251,1.999969
575,419.684138,-9.704738,-39.795529,-0.204837,0.937148,1.999969
576,199.588006,24.841688,-77.515831,0.125978,0.854749,1.379538
577,7.812619,1.831083,6.958114,-0.690684,0.613169,0.750011
578,-72.571908,-31.006332,50.720989,-0.373541,0.516365,0.746838
579,20.691234,6.897078,47.852293,-0.308843,0.459480,0.497200
580,109.071489,23.132677,24.048219,-0.236088,0.439216,0.326055
581,78.187228,22.095064,29.175250,-0.088136,0.495003,0.352667
582,51.087205,16.540780,35.767147,-0.015991,0.409308,0.792859
583,97.962921,18.005646,30.151827,0.147341,0.492195,1.071061
584,133.913176,16.968032,20.141909,0.297734,0.604868,1.183856
585,150.026703,13.000687,8.484016,0.380865,0.552132,1.288472
586,182.864118,15.197986,-7.385367,0.404181,0.490974,1.318257
587,212.954910,19.592584,-23.865110,0.351690,0.396246,1.241108
588,231.387808,21.789883,-35.523003,0.271611,0.284672,1.185809
589,248.905165,22.095064,-44.190127,0.228275,0.180911,1.173358
590,266.239414,21.728847,-49.622339,0.171878,0.125002,1.264179
591,283.146410,19.409476,-53.101396,0.169558,0.035645,1.234272
592,300.541695,19.165332,-56.702525,0.195193,-0.015137,1.110857
593,303.715572,19.104295,-62.134737,0.250004,-0.077028,1.010513
594,299.198901,23.132677,-69.398032,0.244511,-0.152956,0.984634
595,292.607004,29.236286,-76.295109,0.133913,-0.228885,1.108049
596,282.230869,37.232013,-79.652094,0.064698,-0.313237,1.307027
597,276.127260,53.711757,-80.689708,-0.000244,-0.405280,1.476463
598,274.052033,71.961547,-79.102770,-0.057252,-0.468025,1.512840
599,271.793698,77.759976,-75.379568,-0.119265,-0.485847,1.612329
600,265.201801,83.924620,-68.543526,-0.159182,-0.436896,1.936187
601,252.811475,91.737240,-58.106355,-0.229007,-0.555673,1.999969
602,254.032197,100.709545,-42.481117,-0.317388,-0.806409,1.999969
603,264.530404,105.409323,-26.123445,-0.288090,-0.952895,1.999969
604,272.831312,102.357519,-10.986496,-0.220584,-0.958022,1.999969
605,283.695735,95.704585,2.380407,-0.145510,-0.988418,1.999969
606,305.424582,92.591745,10.070954,-0.042481,-1.122942,1.999969
607,335.454337,98.756390,13.061723,0.104860,-1.183490,1.999969
608,339.787900,111.451896,16.662852,0.735729,-1.088640,1.999298
609,308.232242,115.541314,5.798428,0.910170,-1.245502,1.871855
610,294.926375,92.774853,-0.915541,0.969009,-1.414939,1.837064
611,285.954070,59.021897,-12.085145,0.779187,-1.721706,1.753323
612,266.849775,33.875029,-21.606775,0.636118,-2.000031,1.460594
613,228.763256,33.447776,-35.095750,0.669932,-2.000031,1.028702
614,167.544060,72.205692,-63.355459,0.826917,-2.000031,0.349004
615,129.945830,150.514992,-100.648508,0.654551,-2.000031,-0.614511
616,95.338369,195.559625,-97.596704,0.076295,-2.000031,-1.408103
617,-29.602502,127.321279,-46.326390,-0.568002,-2.000031,-1.220600
618,-171.450370,-62.989242,36.499580,-0.834852,-2.000031,-2.000031
619,-315.312428,-300.053407,98.817426,1.104753,-1.522484,0.419562
620,-163.759823,-185.427634,46.631571,0.888441,-0.343999,1.999969
621,-117.677577,-49.805447,19.226368,-0.692760,1.110857,1.999969
622,-191.103990,-109.498741,57.862211,-0.668833,0.734874,0.213016
623,-312.321660,-142.336156,99.122606,0.793591,-0.594369,-0.847303
624,-370.428016,-93.324178,89.478904,1.360983,-0.443488,1.322530
625,-383.855955,-83.558404,72.632944,1.999969,-0.382696,1.999969
626,-222.842756,-17.639429,11.841001,1.615625,-0.399420,1.999969
627,-102.113375,-2.380407,-37.354086,-0.891859,-0.014649,1.999969
628,-163.210498,-56.458381,23.071641,-2.000031,-0.827405,1.999969
629,-62.684062,-132.631418,42.908370,0.570687,-0.217655,1.999969
630,-16.845960,-77.882048,8.178836,1.940826,0.289677,1.985016
631,-41.016251,6.286717,4.577707,-0.272099,0.055299,1.238300
632,-42.969406,-23.193713,12.207218,-0.725841,-0.178958,1.077897
633,-10.193027,-48.889906,4.699779,0.521736,0.115724,1.193133
634,-24.719615,-21.667811,1.586938,0.225345,0.064820,1.087297
635,-31.616693,-14.526589,4.028382,-0.073487,-0.115114,1.279683
636,-2.807660,-17.883574,1.342794,0.109255,0.061036,1.000626
637,-14.770733,-11.047532,1.342794,0.109499,0.068727,0.976089
638,-20.202945,-7.751583,4.150454,0.010620,-0.061158,1.133562
639,-2.502480,-5.004959,3.540093,0.102296,0.020630,1.009659
640,-11.230640,1.281758,5.127031,0.101686,0.069703,1.023209
641,-15.930419,4.821851,6.591897,0.024292,0.011841,0.982193
642,-12.451362,5.004959,6.042573,0.051148,0.088991,0.958389
643,-23.132677,5.371176,7.141222,0.053223,0.041627,0.987076
644,-23.987182,6.042573,6.103609,0.018799,0.048341,1.044205
645,-25.024796,4.638743,5.676356,0.013794,0.038209,0.984268
646,-26.367590,2.868696,4.821851,-0.041138,-0.005127,0.990127
647,-23.315785,-0.305180,4.028382,-0.009155,-0.011963,1.031998
648,-19.653620,-1.037613,2.807660,0.025635,-0.008545,1.036393
649,-18.188754,-0.854505,2.258335,0.014527,-0.017334,1.009293
650,-16.296635,-0.915541,1.831083,0.016724,-0.007813,0.999283
651,-17.517357,-1.220722,1.525902,0.027588,-0.003540,0.989517
652,-18.554971,-1.342794,1.342794,0.015991,-0.019043,1.036637
653,-17.029068,-0.793469,0.915541,0.041138,-0.019409,1.023941
654,-15.930419,-0.244144,0.427253,0.025025,-0.004150,1.005386
655,-16.601816,-0.244144,0.061036,0.015381,-0.026490,0.985733
656,-15.442130,-0.610361,0.000000,0.006104,-0.004395,0.985611
657,-17.761501,-2.197299,-0.122072,0.006104,-0.010986,0.999405
658,-17.212177,-3.356985,-0.732433,0.018677,-0.018799,0.982803
659,-17.761501,-4.394598,-1.220722,0.016114,-0.011597,1.003189
660,-19.226368,-5.065995,-2.014191,0.032227,-0.021607,1.025772
661,-17.883574,-4.577707,-2.929732,0.032349,-0.042725,0.996231
662,-18.554971,-4.455634,-3.295949,0.021118,-0.044312,0.984878
663,-19.287404,-4.577707,-2.929732,0.024659,-0.049805,0.985733
664,-21.728847,-4.638743,-2.075227,0.043214,-0.060792,1.009781
665,-21.789883,-3.418021,-0.366217,0.013794,-0.062867,0.989151
666,-24.353399,-3.784237,1.342794,0.044312,-0.011231,0.981094
667,-28.320745,-2.136263,2.014191,0.020874,-0.057130,0.944350
668,-31.128405,-3.234913,1.892119,0.017945,-0.046021,1.026261
669,-31.555657,-3.051804,1.525902,0.038331,-0.040650,1.006485
670,-34.485389,-3.540093,0.427253,0.040040,-0.083131,1.011368
671,-32.898451,-2.990768,0.122072,0.030640,-0.091432,0.999771
672,-30.457008,-3.173877,-0.854505,0.040650,-0.056764,0.988663
673,-32.837415,-3.234913,-2.563516,0.015381,-0.057252,0.951919
674,-35.828183,-4.821851,0.061036,0.013062,-0.043458,0.878431
675,-49.317159,-4.821851,4.821851,0.110719,-0.004028,1.194232
676,-50.537881,1.464866,4.028382,0.013794,-0.120974,0.952407
677,-49.378195,2.868696,5.676356,0.071656,-0.111208,0.964492
678,-58.289464,5.371176,9.704738,0.049928,-0.150759,1.040055
679,-57.312886,6.225681,10.864424,0.011475,-0.159670,1.029191
680,-48.462654,7.507439,8.850233,-0.039185,-0.138430,1.039567
681,-47.486076,2.136263,1.037613,-0.064576,-0.129274,1.042618
682,-37.354086,-0.366217,-6.713970,-0.039185,-0.185550,0.950210
683,-32.898451,-5.493248,-18.066682,-0.029297,-0.093874,1.108293
684,-36.926833,-4.455634,-34.546426,-0.031617,-0.128908,1.012345
685,-55.298695,3.540093,-47.425040,0.118532,-0.310063,1.022599
686,-35.095750,0.244144,-22.400244,0.150271,-0.366339,1.088029
687,-15.197986,-8.667124,-5.676356,-0.000610,-0.060548,1.034928
688,-36.011292,-3.601129,-19.348440,0.016114,0.155764,0.972549
689,-78.736553,2.075227,-29.297322,0.205936,0.030518,1.029679
690,-110.170138,16.601816,-23.193713,0.079835,0.257206,0.706310
691,-127.443351,2.868696,-30.334936,0.022583,0.641489,0.667124
692,-194.399939,-17.395285,-40.711070,-0.209110,0.744152,1.173114
693,-371.343557,-29.663539,-51.819638,0.108766,1.220233,1.157000
694,-674.204624,-28.809033,-37.476158,-0.533333,0.550179,1.999969
695,-834.912642,-95.948730,53.772793,-0.307256,-0.168093,1.510155
696,-951.613642,-87.647822,96.559091,0.234012,0.157229,0.790051
697,-1017.227436,-117.128252,81.239033,1.351949,-2.000031,1.999969
698,-870.008393,-72.022583,162.294957,-1.380148,-0.832044,1.999969
699,58.045319,-53.162432,-88.807507,-0.332036,-0.454963,1.999969
700,320.317388,-4.089418,-83.009079,-0.737194,0.924331,1.999969
701,94.422828,-3.662165,-90.577554,-0.546883,0.941299,1.999969
702,-32.776379,-59.876402,27.161059,-0.790539,0.701427,1.213031
703,-38.941024,-89.784085,55.237659,-0.386114,0.402838,1.117693
704,89.906157,-57.923247,23.132677,-0.293706,0.236088,0.933120
705,145.143816,-36.865797,14.404517,-0.232792,0.549081,0.635508
706,94.239719,-28.870069,21.545739,-0.192508,0.494392,0.842054
707,112.672618,-18.738079,19.592584,-0.209964,0.291386,1.031632
708,170.901045,-12.329290,13.977264,-0.242435,0.322026,0.974258
709,180.361639,-22.034028,17.578393,-0.231815,0.303349,0.913588
710,195.437552,-27.161059,18.371862,-0.167605,0.204837,0.951308
711,221.316854,-19.714656,14.648661,-0.131228,0.181765,0.937514
712,227.847715,-9.460594,11.535821,-0.127321,0.140383,0.981094
713,236.942092,0.854505,8.484016,-0.128542,0.066163,1.072526
714,253.910124,10.620279,5.615320,-0.126101,0.016602,1.109880
715,265.445945,15.686275,5.493248,-0.109255,-0.023682,1.130755
716,273.746853,15.991455,6.469825,-0.042603,-0.045777,1.195087
717,285.038529,16.906996,5.554284,0.055665,-0.060792,1.334493
718,296.086061,20.813306,1.403830,0.129885,-0.073732,1.496849
719,307.927062,28.015564,-5.065995,0.198856,-0.121706,1.674830
720,318.669413,35.828183,-14.404517,0.229007,-0.253544,1.706081
721,329.533837,49.744411,-23.804074,0.298100,-0.515877,1.114031
722,317.814908,69.520104,-36.499580,0.429572,-0.627817,0.631113
723,281.254292,70.557717,-43.335622,0.462776,-0.501350,0.561776
724,239.749752,44.495308,-51.392386,0.456062,-0.384405,0.996841
725,221.011673,30.090791,-62.867170,0.433600,-0.274296,1.801419
726,210.635538,40.222782,-73.670558,0.308598,-0.302983,1.999969
727,224.002441,61.463340,-79.285878,0.152224,-0.509529,1.999969
728,264.225223,74.341955,-81.971466,0.035767,-0.750744,1.999969
729,285.343709,72.388800,-77.027543,-0.033448,-0.772717,1.999969
730,280.888075,57.923247,-68.909743,0.010498,-0.902968,1.999969
731,294.071870,60.425727,-68.421454,0.198489,-1.005020,1.999969
732,281.620508,79.957275,-70.801862,0.304936,-0.983291,1.957916
733,264.286259,83.375296,-70.862898,0.254765,-1.074479,1.999969
734,274.052033,78.980697,-69.886320,0.277470,-1.161028,1.944121
735,272.587167,76.112001,-67.017624,0.320562,-1.266011,1.643214
736,255.069810,73.670558,-61.768521,0.292485,-1.451316,1.392844
737,232.242313,71.534295,-53.589685,0.213993,-1.714870,1.211078
738,204.531930,67.994202,-42.664225,0.240726,-2.000031,1.031632
739,171.450370,68.604562,-32.104982,0.476570,-2.000031,0.888197
740,134.462501,74.769207,-30.945296,0.745006,-2.000031,0.715465
741,113.344015,92.103456,-42.481117,0.805310,-2.000031,0.126589
742,96.620127,96.864271,-43.091478,0.554574,-2.000031,-0.537240
743,26.123445,50.476844,-17.761501,0.286137,-2.000031,-0.672862
744,-42.664225,-34.302281,20.080873,-0.051270,-1.889555,-0.204227
745,-144.655528,-158.144503,35.400931,0.619028,-2.000031,-1.079728
746,-286.503395,-210.696574,47.608148,0.904921,-1.755886,0.487922
747,-144.167239,-81.666285,20.141909,0.306157,-0.177493,1.688258
748,-123.842222,-42.359045,-4.760815,-0.290532,0.966445,1.645655
749,-233.218891,-64.332036,32.471199,-0.174441,0.870253,0.658335
750,-331.548028,-66.529335,44.068055,0.110597,-0.532845,0.744396
751,-329.900053,-40.100710,52.368963,0.573007,-0.577401,1.999969
752,-257.755398,3.051804,38.025483,0.878798,-0.456916,1.999969
753,-146.547646,20.263981,2.685588,0.144533,-0.261112,1.999969
754,-135.744259,-32.288090,13.427939,-0.973159,-0.496834,1.999969
755,-71.534295,-62.500954,35.034714,-0.926894,-0.338018,0.842420
756,-76.722362,-106.446937,45.899138,0.709972,0.414923,1.586450
757,-94.666972,-73.060197,35.278859,1.448508,0.139773,1.999969
758,-48.584726,-20.263981,10.925460,-0.262455,-0.025269,1.563867
759,-59.693294,-39.917601,19.897765,-0.333135,-0.055177,1.008682
760,-44.007019,-47.547112,9.277485,0.498177,0.169558,1.552636
761,-49.439231,-19.958801,3.356985,0.155642,-0.007813,1.214984
762,-39.978637,-15.381094,3.906310,-0.163699,-0.014893,1.238788
763,-30.090791,-18.249790,1.647974,0.151247,-0.095705,1.100847
764,-18.127718,-8.422980,0.244144,0.071901,0.041871,1.105608
765,-24.719615,-5.615320,2.685588,-0.028077,0.012696,1.079362
766,-19.958801,-5.127031,2.380407,0.080323,-0.000855,1.116472
767,-16.052491,0.244144,2.807660,0.023560,0.017700,1.001236
768,-20.019837,2.014191,3.723201,0.033692,0.020630,0.998062
769,-20.752270,5.188067,3.418021,-0.034791,0.123293,1.294942
770,-20.874342,6.225681,5.920500,0.028443,0.022339,0.979629
771,-28.381781,5.554284,6.713970,-0.010864,-0.023194,0.977798
772,-22.583352,5.310140,5.554284,-0.006714,0.002808,1.013687
773,-23.743038,4.638743,6.042573,-0.012085,-0.008179,1.025406
774,-21.667811,3.051804,5.432212,-0.037842,0.007813,1.005264
775,-20.019837,0.854505,4.150454,-0.022950,-0.012818,0.994766
776,-17.761501,0.061036,0.732433,-0.045411,-0.100343,0.897597
777,-16.723888,-2.929732,2.197299,-0.030152,0.011231,1.049454
778,-19.104295,-4.821851,2.502480,-0.021729,-0.016480,1.038102
779,-16.418708,-5.859464,1.464866,-0.011597,-0.032105,0.964248
780,-16.296635,-6.836042,0.793469,-0.028443,-0.028565,0.992203
781,-15.564202,-7.446403,0.366217,0.000610,-0.025757,1.018570
782,-15.442130,-7.324331,-0.122072,-0.009644,-0.041382,1.017472
783,-10.742351,-8.361944,0.061036,0.033814,0.065431,0.961440
784,-10.925460,-6.713970,0.305180,-0.016236,-0.048585,0.991348
785,-11.474784,-7.629511,-0.122072,0.007935,-0.044434,1.000626
786,-11.718929,-7.812619,-0.854505,-0.006958,-0.027344,0.945571
787,-17.273213,-9.460594,-0.549325,-0.005615,-0.024170,0.955459
788,-20.080873,-9.643702,0.000000,0.018189,-0.036744,0.985855
789,-22.034028,-9.277485,0.854505,0.012329,-0.042115,1.008316
790,-22.888533,-7.629511,1.770047,0.021118,-0.053346,1.009293
791,-21.057450,-6.408789,2.197299,0.015625,-0.037964,0.994766
792,-22.888533,-5.859464,2.685588,0.016846,-0.052979,0.989151
793,-24.536507,-5.859464,3.479057,0.018189,-0.046387,1.013809
794,-24.231327,-5.065995,2.380407,0.001221,-0.052125,0.989395
795,-25.329976,-5.554284,1.220722,0.036133,-0.035157,0.961807
796,-28.747997,-6.713970,0.671397,0.000366,-0.069947,1.003922
797,-28.564889,-8.117800,-0.549325,-0.001709,-0.072023,0.988174
798,-29.175250,-8.545052,-1.464866,0.014160,-0.066773,0.989151
799,-31.372549,-9.521630,-1.892119,0.011231,-0.080079,0.994888
800,-31.677729,-8.484016,-0.305180,0.002564,-0.046632,0.942275
801,-38.879988,-10.315099,2.319371,0.026612,-0.033692,0.847303
802,-47.730220,-5.798428,2.502480,0.061646,-0.064942,0.978531
803,-57.679103,-3.479057,5.004959,0.024537,-0.112917,1.062882
804,-61.341268,-0.549325,9.033341,0.082155,-0.162722,1.058122
805,-55.970092,1.037613,10.864424,-0.015381,-0.191531,1.034684
806,-47.791257,2.136263,8.850233,0.010742,-0.115602,1.043595
807,-42.725261,0.793469,3.418021,-0.081788,-0.130251,1.051896
808,-28.259709,-1.709010,-6.408789,-0.054444,-0.162234,1.006485
809,-29.968719,-5.188067,-21.789883,-0.036011,0.051270,1.004776
810,-63.599603,-0.976577,-43.701839,-0.023926,-0.180423,0.967422
811,-63.050278,2.990768,-35.034714,0.118532,-0.378302,1.092302
812,-30.457008,-9.643702,-8.178836,0.029053,-0.199466,1.015396
813,-35.828183,-13.366903,-14.404517,-0.010986,-0.002564,1.004776
814,-69.336996,-6.286717,-29.297322,0.062013,0.032959,1.026749
815,-98.207065,-0.305180,-25.452049,0.166995,0.003662,0.966567
816,-99.061570,1.709010,-18.310826,-0.001587,0.318242,0.791516
817,-142.458228,-11.596857,-42.359045,0.006226,0.220706,0.516487
818,-191.226062,-40.833143,-42.114900,-0.063233,0.681651,1.369284
819,-473.090715,-5.676356,-50.049592,0.667979,1.556054,1.559106
820,-700.267033,-33.264668,-41.626612,-0.685191,0.308721,1.845853
821,-807.690547,-107.057298,17.090105,-0.196292,-0.001099,1.188739
822,-911.512932,-144.960708,22.949569,-0.268925,-0.115602,0.802380
823,-1039.444572,-179.873350,70.557717,0.653574,-2.000031,1.999969
824,-789.318685,-78.126192,177.004654,-1.882109,-1.221942,1.999969
825,74.708171,-72.632944,-46.143282,-0.858045,-0.433356,1.999969
826,288.639658,-31.067369,-9.887846,-0.926772,0.820203,1.999969
827,86.610208,-20.447089,-6.286717,-0.393072,0.860487,1.999969
828,-18.127718,-42.786297,82.825971,-0.675181,0.703014,1.559350
829,22.522316,-42.725261,76.112001,-0.187015,0.286015,1.050553
830,135.866331,-13.733120,54.139010,-0.161624,0.411017,0.593393
831,115.846494,-12.634470,52.124819,-0.031250,0.512459,0.426764
832,77.454795,-14.343481,51.575494,0.011353,0.363043,0.687144
833,109.681849,-8.667124,41.077287,0.079591,0.358160,0.907729
834,137.697414,-7.080186,30.395972,0.092409,0.440803,0.969986
835,147.341115,-11.535821,23.071641,0.127810,0.435554,1.125750
836,174.990463,-10.315099,12.878614,0.124636,0.404791,1.261616
837,206.912337,-4.821851,2.014191,0.109133,0.388190,1.296529
838,227.969787,1.831083,-6.225681,0.083009,0.294072,1.276997
839,249.942779,7.812619,-13.244831,0.040162,0.186648,1.253803
840,271.000229,10.925460,-17.944610,0.030396,0.093629,1.217914
841,287.846189,12.268254,-21.240558,0.027588,-0.004395,1.145892
842,300.236515,10.070954,-23.743038,0.034546,-0.046387,1.167132
843,310.246433,7.019150,-26.611734,0.074586,-0.059937,1.281270
844,321.477073,5.615320,-31.555657,0.117433,-0.098634,1.378317
845,333.196002,4.333562,-38.025483,0.150027,-0.128176,1.400534
846,340.459297,3.784237,-47.180896,0.158572,-0.201541,1.371603
847,340.764477,12.756542,-58.533608,0.221683,-0.344610,1.205829
848,327.031357,38.086519,-73.426413,0.265019,-0.474983,0.955459
849,304.264897,74.586099,-83.192187,0.168948,-0.458503,0.959976
850,269.962615,87.525750,-87.586786,0.180545,-0.464973,1.307149
851,259.098192,93.812467,-91.187915,0.076173,-0.432868,1.552514
852,253.604944,95.277333,-89.539940,-0.121218,-0.424445,1.961212
853,238.651102,95.338369,-76.844434,-0.213870,-0.508186,1.999969
854,249.332418,91.004807,-62.073701,-0.192996,-0.552987,1.999969
855,280.766003,85.023270,-49.988556,-0.062501,-0.589609,1.999969
856,324.223697,81.483177,-42.847333,0.097658,-0.723156,1.999969
857,363.530938,86.243992,-43.213550,0.309819,-0.851942,1.999969
858,356.023499,95.399405,-48.889906,0.620615,-0.918837,1.894804
859,330.693523,111.879149,-58.533608,0.899184,-0.881239,1.795071
860,308.537423,117.433433,-69.275959,0.615244,-0.953872,1.828641
861,287.235828,92.713817,-66.651408,0.345220,-1.173358,1.970611
862,268.925002,72.816052,-57.495995,0.023438,-1.693507,1.949981
863,243.472953,78.431373,-41.443503,-0.015991,-2.000031,1.649683
864,179.934386,104.921035,-19.592584,0.523812,-2.000031,1.105730
865,88.136110,135.133898,-11.657893,1.254414,-2.000031,0.128908
866,105.104143,170.412757,-33.508812,0.983169,-2.000031,-0.694347
867,115.419242,144.960708,-42.420081,0.551644,-2.000031,-1.979767
868,-48.889906,-9.094377,10.498207,0.153567,-2.000031,-0.998062
869,-166.750591,-139.406424,62.073701,0.331426,-2.000031,-2.000031
870,-258.670939,-235.904479,71.473259,0.723278,-0.027710,1.472313
871,-177.615015,-183.413443,23.804074,0.114748,-0.512825,1.999969
872,-129.091325,-72.388800,33.875029,-0.538094,1.101701,1.725856
873,-204.348821,-115.663386,47.486076,-0.744274,0.546517,0.872694
874,-315.678645,-125.307088,104.921035,0.392340,-0.232670,0.338262
875,-325.139239,-89.112688,106.385901,1.068009,-0.443977,1.476219
876,-298.832685,-65.430686,81.971466,1.775540,-0.175296,1.999969
877,-229.068437,-34.607462,39.368276,1.566552,-0.224247,1.999969
878,-155.703059,-10.986496,-3.234913,0.224369,-0.115358,1.999969
879,-163.332570,-28.137636,12.878614,-1.530053,-0.331670,1.999969
880,-127.077134,-92.835889,54.505226,-1.280659,-0.461311,1.586694
881,-72.693980,-139.223316,41.626612,1.351217,0.237308,1.999969
882,-71.778439,-75.684749,10.193027,1.873930,0.103639,1.999969
883,-34.973678,1.281758,-3.418021,-0.685191,0.107546,1.175067
884,-69.825284,-46.814679,18.554971,-0.406378,-0.026246,1.356100
885,-23.926146,-49.683375,-1.831083,0.726452,0.051514,1.367819
886,-37.964446,-11.657893,1.831083,0.163699,-0.005982,1.307881
887,-26.489662,-9.948882,5.249104,-0.158328,-0.141360,1.223651
888,3.601129,-16.479744,-0.244144,0.141604,0.090333,1.018814
889,-12.390326,-10.254063,2.014191,0.058961,0.031373,1.087419
890,-3.173877,-8.117800,1.647974,-0.024537,0.103273,1.039811
891,-2.319371,-9.033341,1.525902,0.096803,0.083009,0.984878
892,-6.775006,-3.845274,3.479057,0.086915,0.051514,1.027726
893,-7.080186,-0.244144,4.882887,0.059449,0.012573,1.010147
894,-6.408789,2.868696,6.042573,0.091798,0.049561,1.032609
895,-8.361944,6.836042,5.432212,0.088502,0.002564,0.951431
896,-9.399557,7.751583,5.798428,0.027955,0.031250,1.008927
897,-12.146181,7.080186,6.042573,0.015015,0.062257,0.940810
898,-13.427939,5.981537,5.127031,-0.006226,0.042603,0.927016
899,-15.320058,2.624552,3.601129,-0.026001,0.029664,0.946914
900,-15.442130,-0.610361,2.380407,-0.006836,0.014649,0.927749
901,-15.686275,-2.441444,1.525902,0.004639,0.040650,0.958755
902,-20.202945,-4.211490,1.403830,0.022705,0.031373,0.977676
903,-22.034028,-3.845274,1.098650,0.044556,0.004517,1.012589
904,-21.057450,-2.441444,1.098650,0.043580,0.008667,0.992081
905,-22.949569,-2.624552,1.831083,0.044312,0.017334,0.987808
906,-26.611734,-2.868696,1.892119,0.016480,0.000732,0.974624
907,-24.780652,-3.845274,0.976577,0.014160,0.005127,0.977798
908,-27.649348,-5.371176,0.549325,0.020752,-0.013184,0.992447
909,-25.391012,-5.981537,0.061036,0.021485,-0.035035,0.998917
910,-24.719615,-7.507439,0.122072,0.022339,-0.013428,1.009415
911,-26.306554,-8.545052,-0.122072,0.022705,-0.015259,0.965835
912,-27.283131,-9.338521,-0.488289,0.017090,0.015747,0.964248
913,-33.386740,-10.315099,-0.366217,0.059083,-0.032593,1.007218
914,-32.166018,-8.239872,-0.122072,0.078859,-0.042847,1.012833
915,-28.503853,-6.591897,-0.183108,0.051514,-0.053956,1.027970
916,-28.259709,-5.798428,0.000000,0.055055,-0.062867,1.008682
917,-26.611734,-5.432212,0.061036,0.032471,-0.061646,1.003799
918,-24.475471,-5.554284,-0.122072,0.033570,-0.029297,0.979995
919,-29.785611,-6.836042,0.671397,0.048463,-0.031861,0.995499
920,-31.067369,-6.958114,1.098650,0.058717,-0.067140,0.995621
921,-29.907683,-7.263294,1.342794,0.033814,-0.024903,1.081804
922,-33.020523,-2.685588,1.037613,0.052491,-0.075074,0.964126
923,-34.180209,-1.770047,0.976577,0.031861,-0.058595,1.030900
924,-34.302281,-1.647974,-0.244144,0.017334,-0.041627,1.005875
925,-37.781338,-2.563516,-1.159686,0.036255,-0.058839,0.972183
926,-43.762875,-0.244144,-0.183108,0.023438,-0.040894,0.854505
927,-51.209277,2.136263,3.784237,0.100954,-0.082765,1.076921
928,-61.036088,5.310140,8.850233,0.066896,-0.139773,1.016129
929,-51.636530,6.897078,9.704738,0.044678,-0.150759,0.995865
930,-50.476844,7.629511,9.033341,0.020020,-0.112306,1.056779
931,-43.701839,6.164645,3.356985,-0.049317,-0.088502,0.989151
932,-39.673457,3.967346,-10.254063,-0.049073,-0.064942,0.917983
933,-51.392386,2.014191,-29.846647,-0.069947,-0.228275,1.109636
934,-50.171664,1.098650,-38.025483,-0.077760,-0.297246,1.092790
935,-47.119860,-9.643702,-38.025483,0.115236,-0.315679,1.051896
936,-19.409476,-13.366903,-15.197986,0.224247,-0.275883,1.166522
937,-19.836728,-3.967346,-5.554284,0.146609,-0.018189,1.075456
938,-64.087892,12.573434,-22.034028,0.115602,0.156863,1.025284
939,-110.841535,24.597543,-29.602502,0.127443,0.282841,0.889906
940,-163.454643,23.865110,-36.499580,-0.241947,0.581186,0.665293
941,-209.536889,-27.344167,-45.593957,-0.505379,0.073732,0.703258
942,-269.596399,-61.890593,-21.484703,-0.258671,1.131609,1.701442
943,-505.012589,-134.706645,-97.657740,-0.489998,0.619028,1.249409
944,-776.073854,-252.750439,35.339895,-0.168215,0.484993,1.642603
945,-946.181430,-307.804990,100.038148,0.008667,-0.222293,0.865858
946,-1057.328145,-240.299077,167.116808,1.328267,-2.000031,1.999969
947,-814.953842,-29.602502,250.492103,-0.780529,0.580331,1.999969
948,140.932326,29.114214,-92.774853,-0.521126,-0.285527,1.999969
949,351.567865,67.200732,-104.982071,-0.564584,1.621118,1.334859
950,93.934539,40.039673,-70.984970,-1.188617,0.990616,1.386618
951,-85.145342,-64.515145,82.032502,-0.778698,0.240604,0.335943
952,-96.070802,-89.784085,119.813840,-0.294194,0.154299,0.648325
953,45.227741,-53.833829,70.008392,-0.225711,0.109865,1.065446
954,120.546273,-13.122759,60.425727,-0.061891,0.603525,0.890517
955,75.379568,5.249104,62.561990,0.022095,0.599619,1.001968
956,85.511559,15.320058,54.139010,0.034180,0.422980,1.174823
957,142.397192,18.554971,42.847333,0.102419,0.458381,1.192035
958,162.233921,8.056764,35.278859,0.181765,0.482307,1.162737
959,176.821546,3.112840,24.902724,0.251591,0.396490,1.179950
960,206.668193,12.085145,9.399557,0.285405,0.343389,1.122698
961,222.598611,23.132677,-5.065995,0.262089,0.288823,1.004532
962,230.777447,29.846647,-16.296635,0.224857,0.201419,0.998062
963,243.167773,33.508812,-24.658579,0.175540,0.135256,1.076310
964,256.412604,33.936065,-29.541466,0.144900,0.090333,1.191913
965,268.680858,32.410163,-31.921874,0.133425,0.034668,1.332418
966,284.855421,29.114214,-33.508812,0.165896,0.004273,1.477928
967,302.250706,28.198672,-36.560616,0.225467,-0.017945,1.605249
968,315.983825,31.006332,-41.199359,0.278325,-0.092409,1.735622
969,330.510414,35.034714,-48.279545,0.309209,-0.208621,1.787747
970,344.975967,43.457694,-57.373922,0.292485,-0.472541,1.407614
971,345.281147,62.317845,-64.271000,0.343633,-0.626841,0.635630
972,316.289006,84.901198,-73.548486,0.493904,-0.606332,0.192996
973,255.680171,80.872816,-78.431373,0.400885,-0.449958,0.718639
974,216.006714,74.830243,-82.215610,0.296391,-0.392340,1.446311
975,209.719997,74.647135,-81.971466,0.200198,-0.335454,1.999969
976,215.640497,70.008392,-75.684749,0.062623,-0.488167,1.999969
977,256.839857,72.205692,-68.360418,-0.053101,-0.739757,1.999969
978,281.559472,88.319219,-56.641489,-0.073487,-0.863416,1.999969
979,268.680858,86.610208,-34.912642,-0.063478,-0.903822,1.999969
980,283.207446,73.731594,-15.991455,0.086671,-1.043229,1.999969
981,318.181125,75.806821,-6.897078,0.287846,-1.113054,1.999969
982,313.298238,77.454795,-1.159686,0.350958,-1.156756,1.635767
983,284.672313,67.383841,3.662165,0.327153,-1.272969,1.547509
984,267.521172,58.838788,5.249104,0.227420,-1.424338,1.622950
985,249.820707,55.848020,6.591897,0.107179,-1.707057,1.552880
986,229.617762,60.547799,12.268254,0.205692,-2.000031,1.251972
987,192.935073,74.769207,9.033341,0.581064,-2.000031,0.805310
988,149.660487,106.630045,-16.174563,0.884413,-2.000031,0.424201
989,109.681849,146.974899,-38.147555,0.773205,-2.000031,0.010376
990,61.646448,156.191348,-41.138323,0.345098,-2.000031,-0.326543
991,-35.584039,81.910430,-12.634470,-0.017212,-2.000031,-1.782254
992,-169.558251,-93.080034,44.617380,0.268681,-2.000031,-0.933120
993,-226.077668,-166.994736,61.646448,0.840589,-2.000031,-0.014405
994,-273.441672,-131.898985,52.491035,0.446418,-1.902861,0.045289
995,-165.651942,-97.779812,30.762188,0.129397,0.064698,1.999969
996,-191.531243,-91.126879,30.273899,0.129274,0.980484,1.999969
997,-255.802243,-83.192187,44.434272,0.238529,0.171511,1.538109
998,-245.243000,-71.595331,39.917601,0.068360,-0.385016,1.568750
999,-209.292744,-52.429999,41.260395,0.571542,-0.087892,1.999969
1000,-218.936446,-28.686961,36.133364,0.670542,-0.185428,1.999969
1001,-137.819486,3.173877,15.991455,0.365484,-0.244999,1.512840
1002,-129.213397,9.338521,12.512398,-0.435065,0.140383,1.113298
1003,-179.446098,-50.171664,36.499580,-0.684581,-0.396735,1.999969
1004,-108.583200,-91.248951,24.902724,0.604379,-0.319829,1.999969
1005,-35.095750,-56.885634,3.662165,0.897719,-0.059083,1.702907
1006,-44.007019,-12.024109,0.244144,-0.071901,0.200076,1.191547
1007,-73.121233,-26.001373,10.498207,-0.247318,-0.086427,1.179583
1008,-39.124132,-33.264668,0.854505,0.229374,0.119142,1.427146
1009,-38.025483,-16.662852,-0.244144,0.217411,-0.057740,1.215229
1010,-21.667811,-8.484016,-0.305180,-0.121950,-0.079957,1.038102
1011,-14.099336,-19.531548,2.258335,0.031861,0.035645,0.978531
1012,-15.442130,-19.348440,1.525902,0.037354,0.039551,1.044327
1013,-16.784924,-20.691234,2.258335,-0.004028,0.032837,1.007340
1014,-14.709697,-19.226368,1.159686,0.063233,0.058717,1.017838
1015,-22.217136,-15.564202,2.380407,0.056641,-0.000732,1.072526
1016,-15.991455,-12.390326,0.671397,0.022217,-0.036988,1.048966
1017,-17.456321,-10.376135,0.976577,0.049195,0.022583,1.024918
1018,-21.606775,-8.911269,2.563516,0.050660,-0.025879,0.986099
1019,-17.639429,-7.934691,2.441444,0.082033,-0.016724,0.994522
1020,-16.052491,-5.310140,3.234913,0.095338,-0.008179,1.031998
1021,-16.662852,-2.441444,2.502480,0.014893,-0.031739,1.008194
1022,-14.526589,-2.746624,3.051804,-0.053956,0.136965,1.190936
1023,-14.648661,-4.150454,4.882887,0.049928,0.016358,0.953017
1024,-17.151141,-5.554284,3.051804,0.000977,-0.049195,0.958633
1025,-17.029068,-7.080186,2.990768,0.022095,-0.005493,0.999649
1026,-16.906996,-7.995727,0.915541,0.008301,-0.011963,0.995010
1027,-16.723888,-8.850233,0.671397,0.063355,-0.097414,0.961929
1028,-15.869383,-8.484016,0.549325,0.034180,0.051637,1.056046
1029,-17.334249,-8.422980,0.854505,0.065187,0.010498,1.031632
1030,-16.174563,-6.897078,0.854505,0.041260,0.028931,1.072404
1031,-12.268254,-5.371176,0.549325,0.062867,-0.088136,0.964126
1032,-12.024109,-5.127031,0.366217,0.027710,-0.037964,1.028580
1033,-11.169604,-4.577707,0.732433,0.051514,-0.002930,0.955093
1034,-13.855192,-5.798428,0.549325,0.028809,-0.002075,0.976822
1035,-16.052491,-7.202258,0.305180,0.061280,-0.029664,0.944106
1036,-19.775692,-7.812619,-0.183108,0.045167,-0.017334,0.985977
1037,-20.202945,-7.873655,0.000000,0.072267,-0.037598,1.007828
1038,-20.813306,-6.836042,0.244144,0.060670,-0.061158,1.000626
1039,-20.141909,-6.591897,0.671397,0.055909,-0.060914,0.995621
1040,-18.860151,-6.530861,1.159686,0.055055,-0.065431,0.994278
1041,-18.432898,-6.225681,1.892119,0.070924,-0.052125,0.989151
1042,-18.371862,-6.713970,2.929732,0.029664,-0.016846,1.016373
1043,-22.644388,-5.981537,3.418021,0.044190,-0.020386,0.930800
1044,-28.747997,-3.845274,2.929732,0.108156,-0.029053,1.007462
1045,-34.180209,-1.159686,2.380407,0.052491,-0.041749,1.026017
1046,-36.804761,-1.159686,2.685588,0.100710,-0.074220,1.032242
1047,-36.682689,1.281758,2.014191,-0.016236,-0.183719,1.170672
1048,-39.795529,1.037613,1.831083,0.051637,-0.104005,0.990494
1049,-37.415122,1.953155,0.366217,0.057618,-0.055665,0.976699
1050,-40.405890,4.638743,2.319371,0.087404,-0.015869,0.977188
1051,-59.571221,5.310140,4.028382,0.068360,-0.093141,1.013565
1052,-58.716716,8.300908,7.385367,0.052247,-0.107546,0.985367
1053,-63.416495,9.094377,7.263294,0.056031,-0.155398,1.088762
1054,-54.566262,10.559243,6.225681,0.007691,-0.119997,0.955581
1055,-45.410849,6.958114,-4.821851,-0.053223,-0.101320,1.016739
1056,-44.861524,2.075227,-15.014878,-0.035645,-0.198245,1.059220
1057,-48.401617,10.131991,-30.212863,0.038819,-0.175174,0.934463
1058,-54.077974,5.859464,-41.931792,0.126711,-0.338140,1.030900
1059,-26.855879,0.000000,-23.987182,0.207279,-0.448615,1.183124
1060,-15.075914,5.859464,-2.075227,0.151492,-0.174441,1.085588
1061,-18.432898,8.789197,-0.671397,0.083864,0.053468,1.053849
1062,-62.256809,22.949569,-23.682002,0.064576,0.188724,0.959487
1063,-113.344015,27.466239,-31.616693,0.034668,0.308843,0.937270
1064,-183.047227,27.710384,-39.124132,-0.109377,0.687022,0.623667
1065,-210.635538,-26.062409,-29.297322,-0.475837,0.551888,1.200092
1066,-354.619669,-42.114900,-48.401617,0.091798,1.498436,1.769802
1067,-609.933623,-92.652781,-93.751431,-0.824964,0.257816,1.164080
1068,-827.832456,-208.682383,40.711070,-0.589242,0.167849,1.614771
1069,-966.323339,-293.949798,94.117647,-0.166384,-0.072511,1.224018
1070,-1227.740902,-288.700694,195.193408,1.039933,-1.677516,1.999969
1071,-563.179980,-103.395132,200.320439,-0.917494,-0.092409,1.999969
1072,316.044862,-4.638743,-87.281605,-0.290532,0.982315,1.999969
1073,455.146105,35.217823,-71.107042,-0.828382,1.345235,1.999969
1074,177.553979,19.836728,-89.539940,-0.729992,1.258198,0.665660
1075,10.193027,-30.579080,22.522316,-0.739147,0.456794,-0.349615
1076,-63.233387,-64.881361,51.697566,-0.337652,0.485237,0.300053
1077,13.672084,-35.645075,22.278172,-0.309209,0.255619,0.741711
1078,106.813153,-4.333562,7.141222,-0.142824,0.503304,0.716808
1079,86.610208,4.577707,5.371176,-0.097536,0.584726,0.784436
1080,75.318532,2.502480,4.394598,-0.112551,0.453742,1.088518
1081,124.391547,5.920500,-2.197299,-0.089601,0.448127,1.214496
1082,157.595178,7.690547,-7.446403,-0.061891,0.505867,1.233051
1083,168.581674,10.376135,-10.498207,-0.038941,0.451423,1.375387
1084,199.832151,20.019837,-15.991455,-0.028809,0.367437,1.411521
1085,231.448844,32.471199,-21.972992,-0.012451,0.313237,1.335958
1086,247.745480,42.114900,-25.024796,0.002930,0.224735,1.268330
1087,263.797971,49.011978,-27.527276,0.031006,0.121340,1.177630
1088,279.545281,53.101396,-29.114214,0.076417,0.074586,1.149432
1089,286.930648,52.185855,-30.579080,0.136477,0.042847,1.191913
1090,293.278401,48.340581,-33.020523,0.205692,0.032349,1.335225
1091,302.922103,46.387427,-38.452735,0.278080,-0.010498,1.427878
1092,309.941253,52.552071,-47.608148,0.310430,-0.153445,1.277485
1093,304.325933,70.862898,-57.495995,0.281987,-0.349371,1.102678
1094,289.127947,91.798276,-61.951629,0.238041,-0.472786,1.052018
1095,271.854734,105.287251,-64.393072,0.336797,-0.437629,0.996231
1096,254.032197,110.170138,-69.886320,0.378424,-0.333013,1.121233
1097,226.871138,108.705272,-72.327764,0.272343,-0.285771,1.733791
1098,208.560311,107.179370,-67.933165,0.126345,-0.354498,1.999969
1099,224.368658,104.859998,-61.646448,0.013062,-0.509773,1.999969
1100,255.130846,112.794690,-53.894865,-0.003662,-0.768688,1.999969
1101,260.929274,124.940871,-42.603189,-0.022827,-0.880262,1.999969
1102,248.844129,123.781186,-28.015564,-0.136965,-0.958877,1.999969
1103,251.895933,115.114061,-8.239872,-0.249271,-1.076310,1.999969
1104,280.766003,105.775540,13.855192,-0.145998,-1.212055,1.999969
1105,309.636072,106.630045,31.006332,0.332280,-1.184100,1.999969
1106,297.367819,100.770581,37.781338,0.506233,-1.277119,1.696925
1107,280.460822,81.910430,42.908370,0.560555,-1.413596,1.560327
1108,264.469368,60.303655,41.321431,0.407111,-1.670924,1.567407
1109,244.998856,44.983597,45.654994,0.316167,-2.000031,1.372580
1110,214.297704,37.598230,45.654994,0.491829,-2.000031,0.970474
1111,176.882582,38.879988,29.358358,0.988540,-2.000031,0.496345
1112,129.213397,62.928206,-17.334249,1.380636,-2.000031,-0.136965
1113,87.403677,97.413596,-56.702525,1.105241,-2.000031,-0.748791
1114,13.977264,79.102770,-53.528649,0.476814,-2.000031,-0.656016
1115,-59.571221,0.610361,-19.531548,0.059327,-2.000031,0.264897
1116,-118.471046,-95.155261,2.868696,-0.107546,-2.000031,-1.442527
1117,-280.766003,-200.137331,53.223468,0.816297,-0.942885,-0.016724
1118,-168.276493,-115.358206,17.883574,0.498421,-0.187869,1.898222
1119,-117.799649,-20.325017,-8.239872,-0.522713,1.253559,1.832914
1120,-232.669566,-71.595331,25.696193,-0.475471,0.404913,-0.306523
1121,-352.178225,-95.094224,52.857252,-0.092897,-0.648447,0.248051
1122,-366.216526,-65.186542,70.313573,0.488777,-0.658579,1.999969
1123,-300.480659,-27.832456,60.547799,1.347066,-0.489754,1.999969
1124,-180.239567,8.972305,14.282444,0.884779,-0.320806,1.999969
1125,-155.336843,-23.498894,8.484016,-0.606332,-0.572763,1.999969
1126,-72.266728,-36.316472,25.452049,-1.135637,-0.597787,1.238300
1127,-60.120546,-85.633631,34.973678,0.588876,0.273198,1.712306
1128,-63.538567,-62.378882,24.719615,1.123796,0.148928,1.882475
1129,-38.208591,-15.381094,8.484016,-0.304204,-0.024537,1.393210
1130,-39.551385,-37.903410,14.404517,-0.306401,0.031495,0.948379
1131,-39.856565,-42.725261,4.394598,0.490364,0.134157,1.467185
1132,-42.969406,-11.535821,1.770047,0.179202,-0.051026,1.287984
1133,-28.076600,-2.868696,3.234913,-0.139651,-0.030152,1.134661
1134,-23.865110,-5.615320,3.784237,0.135622,0.006470,1.167498
1135,-18.249790,5.188067,0.488289,0.086305,-0.076051,1.028702
1136,-10.620279,5.004959,3.051804,-0.088380,0.026246,1.023087
1137,-12.817578,2.685588,1.586938,0.061280,-0.012940,0.950332
1138,-12.451362,4.394598,3.906310,-0.013916,0.044068,0.981216
1139,-16.906996,3.662165,4.699779,-0.031739,0.050538,1.012345
1140,-16.235599,4.028382,3.601129,-0.011353,0.034913,1.011856
1141,-19.409476,4.638743,4.760815,0.017334,0.033204,1.030533
1142,-17.578393,6.652934,4.089418,0.003662,0.010132,1.027848
1143,-15.991455,7.873655,3.906310,-0.001221,0.020630,1.009293
1144,-16.357671,8.972305,4.699779,0.000366,-0.008301,1.047501
1145,-12.756542,10.009918,5.065995,-0.013794,-0.007202,1.028946
1146,-9.704738,9.338521,4.699779,-0.054078,0.004395,0.975357
1147,-11.535821,6.225681,4.333562,-0.052125,0.028077,0.953506
1148,-12.939651,3.662165,3.234913,-0.036500,0.038575,0.968276
1149,-17.456321,1.770047,2.563516,-0.062013,0.020386,0.946792
1150,-17.151141,-0.854505,1.770047,-0.046632,0.013794,0.952407
1151,-15.442130,-1.159686,-1.281758,-0.043214,-0.009888,0.821912
1152,-18.127718,-3.723201,0.732433,-0.048585,0.066407,1.028702
1153,-25.207904,-5.004959,1.464866,-0.032227,-0.015869,0.985000
1154,-22.156100,-4.882887,1.342794,-0.034302,-0.027710,1.026139
1155,-20.386053,-5.188067,1.709010,-0.031739,-0.022217,0.999039
1156,-21.057450,-5.920500,2.014191,-0.039429,-0.031617,1.029435
1157,-14.221408,-6.713970,0.366217,-0.080690,0.061036,0.964004
1158,-16.296635,-8.056764,0.366217,-0.016480,0.004761,0.995254
1159,-22.095064,-9.582666,0.000000,-0.034546,-0.028931,1.042008
1160,-16.601816,-9.033341,-1.098650,-0.008667,-0.028565,0.987808
1161,-18.921187,-8.972305,-0.854505,-0.014282,-0.017578,1.011490
1162,-19.348440,-8.728161,-0.366217,-0.048463,0.009033,1.094133
1163,-14.587625,-9.521630,1.037613,0.064088,0.014893,0.882338
1164,-19.470512,-8.667124,0.549325,0.012329,-0.084108,0.987076
1165,-18.310826,-7.141222,0.793469,0.002319,-0.016846,1.056291
1166,-19.043259,-5.859464,1.342794,0.006592,-0.039063,0.995743
1167,-25.207904,-5.065995,2.197299,0.005859,-0.041016,0.937514
1168,-28.747997,-4.882887,2.136263,-0.008789,-0.019776,1.003433
1169,-31.311513,-5.371176,2.197299,-0.018799,-0.028809,0.982071
1170,-32.654307,-6.713970,1.647974,-0.005249,-0.020386,0.979995
1171,-36.194400,-8.484016,0.488289,-0.037598,0.021363,0.964126
1172,-46.021210,-9.216449,0.915541,-0.032837,-0.027832,0.935195
1173,-50.720989,-10.559243,1.098650,-0.040406,-0.084718,0.950820
1174,-48.401617,-9.338521,2.014191,0.029664,-0.065187,1.001846
1175,-56.763561,-7.080186,5.432212,0.027222,-0.128420,1.037247
1176,-52.552071,-4.089418,8.056764,0.044556,-0.171756,0.964614
1177,-45.960174,-2.929732,8.606088,-0.023316,-0.107424,1.037858
1178,-46.082246,-4.150454,7.263294,0.011597,-0.124758,1.147601
1179,-42.786297,-1.953155,0.122072,-0.058595,-0.063722,1.019913
1180,-34.729534,-3.540093,-0.793469,-0.079591,-0.082399,0.982803
1181,-38.635843,-6.591897,-9.094377,-0.044312,-0.139773,0.975601
1182,-46.753643,-11.108568,-22.034028,-0.041505,-0.108278,0.980728
1183,-71.229114,-3.967346,-29.785611,0.004150,-0.029175,1.072648
1184,-80.567636,3.418021,-44.678416,0.030518,-0.282109,1.116472
1185,-51.453422,-5.920500,-27.710384,0.115969,-0.463752,1.108293
1186,-23.010605,-11.779965,-2.258335,0.017945,-0.122438,0.949111
1187,-42.298009,-8.361944,-10.498207,0.003418,0.002441,0.987320
1188,-69.092851,-5.249104,-19.165332,0.014160,0.108278,0.937392
1189,-98.939498,-7.324331,-18.677043,0.086061,0.063966,0.961318
1190,-124.208438,-15.503166,-4.577707,-0.083986,0.441535,0.749645
1191,-167.360952,-25.268940,-20.874342,0.088258,0.382818,0.723766
1192,-250.919356,-32.043946,-49.561303,0.049928,0.969741,1.583764
1193,-578.011749,-1.525902,-44.983597,0.097047,1.660182,1.999969
1194,-841.809720,-18.127718,-10.315099,-0.545785,0.125124,1.870268
1195,-913.649195,-40.222782,77.821012,0.170291,0.210697,1.151873
1196,-1027.420462,-53.467613,67.689021,1.043107,-2.000031,1.999969
1197,-927.199207,-32.532235,174.807355,-1.623804,-0.543465,1.999969
1198,22.949569,-60.242618,-96.925307,-0.656138,-1.061295,1.999969
1199,394.171054,-16.418708,-68.543526,-0.762219,0.881727,1.999969
1200,186.587320,-26.672770,-65.918975,-0.361944,0.916762,1.009415
1201,22.095064,-62.500954,43.823911,-0.795300,0.731090,0.373053
1202,-56.763561,-102.235447,65.125505,-0.421271,0.461311,0.521004
1203,55.115587,-73.853666,47.547112,-0.313481,0.245975,0.570809
1204,105.714504,-56.519417,32.349126,-0.233158,0.483772,0.519173
1205,58.533608,-48.767834,38.513771,-0.174807,0.469245,0.845838
1206,79.102770,-38.086519,34.058137,-0.175906,0.406378,1.199603
1207,130.922408,-30.151827,26.306554,-0.147463,0.507332,1.248432
1208,150.209812,-32.532235,23.132677,-0.109255,0.492561,1.208026
1209,174.563211,-30.457008,17.334249,-0.055055,0.423590,1.119646
1210,201.297017,-19.714656,7.507439,-0.005005,0.373053,0.976944
1211,210.269322,-7.995727,-1.220722,0.006348,0.316411,0.994522
1212,221.438926,1.159686,-8.117800,0.009033,0.236454,1.152239
1213,243.839170,5.249104,-14.099336,0.003052,0.179934,1.247211
1214,266.239414,3.540093,-19.043259,0.011109,0.108888,1.235859
1215,284.184024,1.709010,-23.376822,0.033936,0.055787,1.196551
1216,297.001602,3.784237,-28.564889,0.066896,0.020020,1.209979
1217,305.729763,9.704738,-33.936065,0.085328,-0.014893,1.372457
1218,313.786526,17.883574,-40.405890,0.077150,-0.140383,1.322286
1219,317.692836,29.114214,-47.486076,0.052491,-0.389899,0.986831
1220,307.988098,47.730220,-51.209277,0.080690,-0.527718,0.718517
1221,278.873884,56.275273,-52.674144,0.121706,-0.505135,0.664683
1222,253.482872,61.036088,-59.266041,0.294926,-0.367193,1.042863
1223,228.641184,64.820325,-67.872129,0.232792,-0.250980,1.704128
1224,215.762570,71.534295,-71.229114,0.080568,-0.319585,1.999969
1225,238.223850,76.661326,-70.801862,-0.154910,-0.503548,1.999969
1226,269.352255,83.070115,-64.576181,-0.290043,-0.748791,1.999969
1227,273.624781,86.915389,-49.317159,-0.347051,-0.814099,1.999969
1228,267.460136,76.295109,-30.212863,-0.335088,-0.872938,1.999969
1229,283.268483,64.271000,-15.014878,-0.212406,-0.930312,1.999969
1230,323.308156,66.468299,-11.718929,-0.119875,-1.088884,1.999969
1231,328.679332,87.830930,-13.794156,0.002930,-1.095109,1.307515
1232,262.333104,99.244678,-7.263294,0.201907,-1.004776,1.716701
1233,244.571603,99.488823,-4.882887,0.361456,-1.041886,1.999969
1234,270.878157,93.568322,-10.009918,0.432990,-1.193256,1.999969
1235,273.685817,87.830930,-11.108568,0.430060,-1.438010,1.562402
1236,246.158541,77.576867,-7.995727,0.409918,-1.780911,1.035050
1237,205.813687,68.543526,-6.530861,0.543954,-2.000031,0.764782
1238,149.233234,69.764248,-15.808347,0.845716,-2.000031,0.802625
1239,94.056611,92.103456,-41.321431,0.978775,-2.000031,0.825940
1240,85.633631,130.983444,-68.787671,0.701305,-2.000031,0.215579
1241,89.539940,128.297856,-65.735866,0.270268,-2.000031,-0.723766
1242,2.929732,56.092164,-33.325704,-0.543954,-2.000031,-2.000031
1243,-162.355993,-130.006867,40.833143,-0.125490,-2.000031,-1.820951
1244,-275.089647,-268.619821,81.422141,0.890394,-2.000031,-0.032349
1245,-170.107576,-158.266575,55.359731,0.450446,-0.110842,1.999969
1246,-141.237507,-62.378882,29.663539,-0.429328,0.948623,1.999969
1247,-191.897459,-102.662699,60.914015,-0.302007,0.868055,1.009537
1248,-300.297551,-134.645609,81.666285,0.754406,-0.274174,0.353399
1249,-321.232929,-84.718090,76.173037,1.048112,-0.326787,1.735378
1250,-292.423896,-73.487449,55.542840,1.465599,-0.188968,1.999969
1251,-203.250172,-20.447089,18.677043,1.166644,-0.320928,1.999969
1252,-130.495155,9.887846,-10.742351,0.165530,-0.074952,1.532128
1253,-156.679637,5.065995,8.361944,-1.344991,-0.061524,1.994659
1254,-160.341802,-66.285191,49.134051,-1.228290,-0.615488,1.638453
1255,-88.502327,-116.517891,32.959487,1.013809,0.053956,1.999969
1256,-58.838788,-63.721675,10.864424,1.447776,-0.027344,1.889067
1257,-33.264668,-3.723201,-0.915541,-0.460456,0.089723,1.072526
1258,-64.515145,-42.664225,10.925460,-0.406622,-0.046021,1.029191
1259,-32.837415,-48.645762,1.342794,0.578378,0.216800,1.563745
1260,-39.185168,-13.488975,-3.723201,0.142092,-0.025513,1.061295
1261,-31.555657,-10.803388,-0.732433,-0.157229,-0.054444,1.149798
1262,-15.869383,-17.761501,-3.051804,0.122927,0.041138,0.995743
1263,-24.963760,-10.254063,-1.953155,0.129152,-0.014038,1.127459
1264,-18.554971,-3.295949,0.000000,0.028321,-0.023560,1.066911
1265,-13.427939,1.159686,0.061036,0.129274,0.047486,1.013443
1266,-21.972992,7.751583,2.075227,0.040894,-0.001099,1.047501
1267,-20.202945,8.422980,3.662165,0.048585,-0.027588,1.066545
1268,-16.113527,10.864424,4.882887,0.090944,0.081788,1.060563
1269,-17.639429,14.099336,6.591897,-0.000122,-0.006958,1.011490
1270,-15.442130,12.695506,5.798428,0.019165,0.003662,0.984878
1271,-18.677043,11.352712,5.798428,0.011475,-0.010132,1.009049
1272,-17.395285,8.789197,4.882887,-0.025757,-0.018433,1.006607
1273,-15.136950,6.408789,3.784237,0.003174,-0.022827,1.005020
1274,-13.305867,5.188067,3.356985,-0.010010,-0.030518,1.007462
1275,-11.108568,4.028382,2.746624,0.008911,-0.019776,1.002457
1276,-11.535821,3.173877,2.441444,0.008667,-0.029541,0.999283
1277,-10.864424,2.624552,2.319371,0.013428,-0.035645,1.009171
1278,-10.864424,1.953155,2.136263,0.013794,-0.033082,0.982071
1279,-10.131991,1.281758,2.014191,0.001831,-0.032837,1.017105
1280,-7.873655,1.281758,1.342794,0.013184,-0.040528,1.016007
1281,-6.652934,0.854505,1.342794,0.016114,-0.037354,1.021012
1282,-4.821851,0.915541,1.037613,-0.002930,-0.037964,0.995987
1283,-4.516670,-0.244144,1.037613,-0.004028,-0.025025,0.970596
1284,-7.446403,-1.953155,1.037613,-0.006226,-0.033570,0.939345
1285,-8.239872,-3.723201,0.854505,-0.008911,-0.023926,0.940688
1286,-12.268254,-6.164645,0.549325,0.003418,-0.071046,0.949966
1287,-12.573434,-7.385367,0.671397,0.017212,-0.049195,1.041886
1288,-11.474784,-6.775006,0.793469,0.007202,-0.025269,1.031144
1289,-12.085145,-6.958114,0.732433,0.025391,-0.035767,1.024186
1290,-11.108568,-6.225681,0.366217,0.030518,-0.062013,0.999283
1291,-11.535821,-5.615320,0.061036,0.028443,-0.052857,0.986465
1292,-13.733120,-5.676356,0.183108,0.018921,-0.035157,0.990738
1293,-16.723888,-5.432212,0.488289,0.022095,-0.026368,0.981216
1294,-21.301595,-5.065995,1.037613,0.015747,-0.035401,0.985367
1295,-22.095064,-5.065995,1.220722,0.010742,-0.026368,0.958145
1296,-25.940337,-5.737392,0.793469,0.002564,-0.020996,0.983291
1297,-31.128405,-6.958114,0.854505,0.023804,-0.041749,1.010025
1298,-31.372549,-5.371176,0.488289,0.006226,-0.045899,0.995254
1299,-32.043946,-5.920500,-1.159686,0.019776,-0.068971,1.009659
1300,-33.508812,-5.615320,-1.464866,0.033570,-0.079713,1.029068
1301,-30.395972,-5.065995,-2.563516,0.033936,-0.068605,0.976699
1302,-30.579080,-4.699779,-2.624552,-0.010986,-0.050538,0.967910
1303,-36.011292,-6.408789,2.380407,0.038697,-0.048585,1.041398
1304,-41.138323,-3.479057,5.493248,0.033448,-0.135134,1.022354
1305,-39.002060,1.586938,7.507439,0.068116,-0.124147,0.990738
1306,-37.903410,4.821851,8.178836,0.028687,-0.092287,1.033219
1307,-41.870756,5.737392,7.934691,0.025025,-0.115358,1.005020
1308,-42.298009,5.004959,7.263294,-0.026978,-0.036744,1.016739
1309,-43.457694,3.967346,-2.136263,-0.027832,-0.027955,0.980728
1310,-46.814679,2.197299,-8.178836,-0.037232,-0.151736,0.938003
1311,-46.448463,-2.929732,-11.963073,-0.055421,-0.147097,1.022110
1312,-64.759289,-1.464866,-32.104982,-0.036133,-0.007324,0.999527
1313,-80.933852,3.723201,-46.326390,0.084840,-0.385260,1.095964
1314,-48.401617,-1.770047,-21.911955,0.125124,-0.428962,1.126116
1315,-20.874342,-9.277485,-6.652934,0.018311,-0.005859,0.949477
1316,-53.223468,-3.295949,-20.752270,0.092897,0.239872,0.957046
1317,-110.292210,3.295949,-33.203632,0.135256,0.080934,1.015152
1318,-122.072175,6.775006,-12.573434,-0.019532,0.351690,0.571054
1319,-177.370871,-10.009918,-36.926833,-0.125978,0.417243,0.545052
1320,-275.516899,-27.588312,-32.837415,0.025269,1.236591,1.182513
1321,-496.772717,-21.301595,-63.233387,0.063844,0.498421,1.588159
1322,-684.580758,-96.253910,-17.700465,-0.553719,-0.095705,1.165179
1323,-823.193713,-192.385748,56.214237,-0.102296,-0.007446,1.060319
1324,-904.982071,-217.471580,79.896239,0.425422,-0.391119,1.096574
1325,-1155.901427,-264.042115,171.389334,-0.257084,-0.851331,1.999969
1326,-417.425803,-123.292897,71.412222,-0.750134,-0.563851,1.999969
1327,297.795071,-26.184482,-91.432059,0.039185,1.211444,1.999969
1328,329.777981,46.997787,-110.780499,-0.164553,1.571801,1.973541
1329,134.035248,57.862211,-103.822385,-0.687755,0.625254,0.938369
1330,3.051804,6.713970,-21.301595,-0.670787,0.352178,0.034180
1331,-8.239872,-3.051804,3.234913,-0.514900,0.156374,0.065064
1332,75.318532,7.263294,-6.347753,-0.511238,0.017456,0.167605
1333,90.760662,7.385367,4.577707,-0.399664,0.293095,0.211063
1334,50.293736,1.586938,19.592584,-0.365484,0.255131,0.537362
1335,69.581140,3.540093,27.283131,-0.326177,0.234012,0.850111
1336,108.155947,7.812619,30.151827,-0.250248,0.344488,0.994034
1337,120.485237,7.629511,33.813993,-0.153811,0.390265,1.195087
1338,142.763409,11.841001,32.715343,-0.057008,0.382330,1.503929
1339,180.727855,21.850919,26.489662,0.007813,0.349004,1.595361
1340,216.189822,32.654307,18.554971,0.053712,0.281498,1.547021
1341,242.618448,44.251164,11.596857,0.072755,0.152224,1.423117
1342,263.920043,53.040360,6.347753,0.042603,0.042359,1.353048
1343,280.888075,53.955901,4.577707,0.037964,-0.066651,1.337911
1344,298.893721,48.462654,4.699779,0.072389,-0.149172,1.224872
1345,313.054093,37.476158,2.868696,0.176761,-0.156374,1.162005
1346,317.021439,25.574121,-1.892119,0.289433,-0.158816,1.198871
1347,320.256352,22.705425,-13.244831,0.382208,-0.232303,1.096574
1348,314.213779,36.377508,-31.799802,0.457160,-0.428473,0.690562
1349,289.555200,65.369650,-50.354772,0.459236,-0.532113,0.609018
1350,250.125887,77.759976,-59.937438,0.338018,-0.471565,0.839246
1351,229.190509,71.229114,-69.886320,0.335088,-0.412482,1.188495
1352,226.077668,64.881361,-79.041733,0.240482,-0.269780,1.774929
1353,208.499275,66.956588,-81.422141,0.105959,-0.385504,1.999969
1354,226.260777,80.506600,-79.835203,-0.016114,-0.602670,1.999969
1355,264.835584,93.507286,-79.835203,-0.097292,-0.826062,1.999969
1356,261.295491,106.813153,-70.679789,-0.156985,-0.907362,1.941192
1357,234.744793,105.592432,-53.833829,-0.197147,-0.957656,1.999969
1358,242.252232,96.620127,-38.147555,-0.129885,-1.092668,1.999969
1359,274.601358,102.235447,-28.747997,0.049317,-1.079973,1.999969
1360,264.469368,112.733654,-20.019837,0.171389,-1.037858,1.901152
1361,247.257191,111.207752,-11.963073,0.211429,-1.119768,1.829496
1362,249.027237,104.554818,-7.324331,0.240116,-1.193622,1.695460
1363,234.073396,90.760662,-1.281758,0.227420,-1.322896,1.612940
1364,223.025864,72.327764,5.432212,0.205814,-1.543481,1.504906
1365,215.152209,56.092164,6.713970,0.265019,-1.808011,1.292622
1366,194.277867,51.636530,3.479057,0.486946,-2.000031,1.078630
1367,163.820859,62.317845,-9.277485,0.721324,-2.000031,0.806531
1368,130.739300,89.539940,-29.907683,0.749889,-2.000031,0.344610
1369,104.737926,112.001221,-38.574807,0.495613,-2.000031,-0.294682
1370,54.077974,84.718090,-23.620966,0.179934,-2.000031,-0.664317
1371,-17.578393,18.371862,8.606088,-0.380743,-2.000031,-2.000031
1372,-151.857786,-145.632105,71.351186,-0.035035,-2.000031,-1.357565
1373,-237.247272,-250.308995,96.864271,0.871839,-1.746853,-0.094850
1374,-133.485924,-155.886168,64.515145,0.708629,0.180667,1.999969
1375,-131.654841,-76.844434,44.068055,0.060304,1.029191,1.926055
1376,-204.470893,-108.461128,70.740826,0.455329,0.826673,0.404547
1377,-297.001602,-115.785458,59.327077,1.033463,-0.284550,0.221317
1378,-310.246433,-70.435645,47.913329,0.830213,-0.287358,1.663844
1379,-291.081102,-63.721675,31.372549,1.124407,-0.192508,1.999969
1380,-218.509194,6.225681,5.676356,0.351446,-0.569711,1.999969
1381,-128.419928,1.159686,11.291676,-1.004532,-0.155520,1.999969
1382,-134.950790,-52.796216,38.025483,-0.969986,-0.607431,1.859403
1383,-58.350500,-98.939498,29.968719,0.602182,-0.060792,1.999969
1384,-44.373236,-63.782712,16.540780,1.442527,0.270268,1.907500
1385,-55.176623,-1.464866,10.620279,-0.053956,0.040284,0.961440
1386,-72.693980,-20.080873,16.662852,-0.611948,-0.067506,1.018814
1387,-49.988556,-47.180896,7.812619,0.205081,0.024781,1.160540
1388,-46.082246,-35.584039,0.671397,0.292485,0.074830,1.303609
1389,-58.167391,-28.320745,4.028382,-0.059327,-0.190311,1.209003
1390,-11.841001,-33.325704,-0.976577,-0.019898,-0.026001,1.081559
1391,-20.508125,-33.264668,0.549325,0.130251,0.065553,0.948623
1392,-39.002060,-29.602502,1.342794,0.003540,-0.110597,1.177142
1393,-13.061723,-26.855879,0.061036,0.068727,-0.071656,1.123308
1394,-8.667124,-22.827497,0.000000,0.111330,0.032715,1.027237
1395,-17.151141,-18.982223,1.403830,0.067018,-0.027100,1.054093
1396,-6.591897,-14.953841,1.159686,0.082277,0.026246,0.993790
1397,-15.197986,-12.085145,2.075227,0.071046,0.026978,0.994156
1398,-20.813306,-9.582666,2.258335,0.069337,-0.052125,1.055192
1399,-10.620279,-6.897078,2.380407,0.079347,-0.007080,1.024308
1400,-14.953841,-5.554284,2.990768,0.069337,0.034302,1.027970
1401,-14.465553,-5.615320,2.746624,0.009155,-0.019043,0.958145
1402,-15.381094,-7.812619,2.014191,0.032105,-0.037720,1.028214
1403,-14.526589,-7.080186,1.709010,0.038575,-0.033448,1.009781
1404,-13.977264,-6.591897,1.098650,0.057252,-0.028687,1.022110
1405,-13.733120,-5.615320,1.220722,0.065187,-0.042481,0.982071
1406,-13.916228,-4.821851,1.403830,0.038819,0.000610,0.981460
1407,-17.151141,-5.249104,0.793469,0.002075,0.119142,0.933974
1408,-24.719615,-5.920500,0.976577,0.046387,-0.068727,0.932143
1409,-19.592584,-4.882887,0.244144,0.065919,-0.042725,1.018570
1410,-20.996414,-6.408789,-0.366217,0.062623,-0.044678,1.006607
1411,-19.653620,-5.249104,-0.488289,0.063722,-0.062623,1.035050
1412,-16.601816,-5.188067,-0.549325,0.047242,-0.072145,1.026017
1413,-13.733120,-4.821851,-0.427253,0.062623,-0.060670,1.020279
1414,-13.000687,-4.333562,-0.183108,0.057618,-0.076295,1.023575
1415,-11.230640,-4.394598,0.000000,0.063111,-0.074952,1.018814
1416,-8.606088,-4.577707,0.000000,0.049683,-0.058839,0.986587
1417,-9.643702,-5.188067,-0.488289,0.059327,-0.059327,0.972427
1418,-11.169604,-5.310140,-0.488289,0.064820,-0.064820,1.002945
1419,-10.559243,-4.516670,-0.366217,0.078614,-0.062623,0.995254
1420,-13.000687,-3.356985,0.000000,0.097536,-0.060914,1.050187
1421,-13.244831,-1.037613,0.854505,0.059937,-0.117556,1.000870
1422,-8.361944,0.244144,0.488289,0.073732,-0.075319,1.013443
1423,-11.047532,0.854505,0.549325,0.064332,-0.085451,1.031510
1424,-7.568475,1.098650,0.549325,0.055299,-0.091554,0.988174
1425,-7.873655,0.854505,0.366217,0.048096,-0.066651,0.965347
1426,-10.864424,-0.549325,-0.366217,0.046754,-0.061036,0.972793
1427,-12.024109,-1.464866,-1.770047,0.051392,-0.053346,0.988663
1428,-17.334249,-1.220722,-2.136263,0.089723,0.001221,1.037003
1429,-24.109255,-1.037613,-4.943923,0.048219,-0.106447,1.069108
1430,-12.878614,-1.709010,-4.211490,0.072389,-0.085084,0.966812
1431,-16.601816,-1.159686,-5.676356,0.080812,-0.049195,0.998428
1432,-26.550698,1.342794,-4.943923,0.081910,-0.094118,1.017227
1433,-23.498894,2.990768,-2.197299,0.091798,-0.142702,1.036881
1434,-18.860151,5.004959,0.671397,0.070924,-0.138308,1.021500
1435,-17.212177,6.042573,1.831083,0.061769,-0.120485,1.025162
1436,-15.442130,6.408789,2.014191,0.068482,-0.109987,1.025772
1437,-15.136950,7.202258,1.037613,0.063844,-0.092164,1.008682
1438,-16.113527,7.995727,0.305180,0.045777,-0.069581,0.994034
1439,-19.958801,8.545052,-0.488289,0.052247,-0.065187,0.981582
1440,-19.897765,9.338521,0.000000,0.014527,-0.005005,0.916518
1441,-36.072328,7.873655,-2.563516,0.048463,0.043702,0.959976
1442,-52.674144,9.338521,-4.699779,0.030152,-0.050538,0.995987
1443,-52.735180,10.009918,-7.324331,0.033814,-0.092897,0.987320
1444,-56.336309,11.902037,-9.765774,0.080568,-0.076051,0.919814
1445,-62.928206,10.986496,-15.136950,0.039551,-0.122560,0.976211
1446,-70.679789,12.451362,-25.146868,-0.037598,-0.164553,0.974502
1447,-73.304341,9.887846,-36.804761,0.010498,-0.235721,0.945083
1448,-62.073701,8.117800,-38.025483,0.161013,-0.257572,0.904799
1449,-52.368963,9.521630,-25.940337,0.307500,-0.264897,1.070939
1450,-43.518730,16.174563,-11.657893,0.098024,0.072145,0.899550
1451,-80.262455,19.653620,-12.817578,-0.066407,0.218875,0.788464
1452,-136.049439,10.315099,-7.934691,0.000244,0.000855,0.721324
1453,-161.318380,-9.704738,5.493248,-0.238407,0.312627,1.064836
1454,-214.419776,-6.591897,-14.953841,0.087037,0.134401,1.045548
1455,-315.007248,-27.893492,-4.882887,-0.312261,-0.182742,1.042618
1456,-370.672160,-81.849393,26.672770,-0.340581,-0.275395,1.136004
1457,-398.748760,-118.959335,17.883574,0.110353,-0.495735,1.012100
1458,-397.711147,-127.443351,22.888533,0.104616,-0.404303,0.884169
1459,-410.833906,-130.861372,23.743038,0.184939,-0.330816,1.048844
1460,-408.514534,-115.114061,26.367590,0.425177,-0.061402,1.911650
1461,-364.995804,-61.768521,38.086519,-0.118654,-0.087160,1.999969
1462,-246.158541,-27.283131,3.906310,-0.193729,-0.024903,1.999969
1463,52.124819,43.030442,-43.884947,-0.246586,0.476814,1.999969
1464,134.462501,52.552071,-52.918288,-0.327153,0.548104,1.701198
1465,89.784085,26.916915,-21.606775,-0.437385,0.304936,1.046769
1466,103.761349,17.578393,-8.606088,-0.386847,-0.002930,0.674937
1467,146.425574,27.588312,-1.770047,-0.294560,0.066651,0.501595
1468,130.983444,31.921874,7.263294,-0.236454,0.079225,0.572641
1469,132.204166,38.330663,12.512398,-0.193973,0.031495,0.791028
1470,157.595178,46.692607,12.634470,-0.108766,0.061769,0.911391
1471,169.863432,50.843061,12.634470,-0.021973,0.076539,0.986343
1472,186.404211,54.139010,9.277485,0.050660,0.051514,1.052384
1473,207.034409,56.153201,4.760815,0.097780,0.044312,1.090593
1474,223.208972,53.345541,-0.122072,0.120851,0.029541,1.099870
1475,238.895247,50.537881,-5.859464,0.159792,-0.044923,1.015274
1476,250.736248,48.767834,-11.902037,0.146487,-0.120119,0.885512
1477,253.910124,48.767834,-15.747311,0.035279,-0.201297,0.812634
1478,248.783093,44.739452,-12.329290,-0.215213,-0.294438,0.951186
1479,243.778134,35.095750,1.403830,-0.467414,-0.438117,1.221942
1480,250.064851,25.879301,21.789883,-0.469001,-0.568246,1.393576
1481,263.431754,33.447776,38.147555,-0.266117,-0.617075,1.505272
1482,260.502022,53.955901,49.317159,-0.102419,-0.720958,1.463157
1483,252.872511,76.234073,56.031128,0.062135,-0.872206,1.467308
1484,242.740520,92.591745,59.388113,0.196048,-1.011978,1.464622
1485,230.777447,99.305715,60.242618,0.312383,-1.150652,1.408347
1486,218.142977,97.962921,59.876402,0.341070,-1.330098,1.254047
1487,198.733501,87.342641,59.205005,0.368292,-1.459129,1.046891
1488,173.464561,69.764248,57.862211,0.361700,-1.524804,0.798840
1489,144.594492,43.945983,53.955901,0.342412,-1.537133,0.586435
1490,114.686809,17.090105,46.082246,0.310918,-1.510643,0.341070
1491,78.797589,2.380407,34.546426,0.182498,-1.743069,-0.189700
1492,-28.992142,-83.680476,26.062409,0.094118,-1.953643,-1.271748
1493,-122.804608,-127.565423,30.273899,0.001343,-2.000031,-0.939101
1494,-280.094606,-160.158694,80.689708,-0.606332,-1.213153,1.999969
1495,-590.646220,-79.102770,-43.213550,1.999969,-2.000031,1.999969
1496,268.558785,21.667811,62.134737,0.085084,-0.343023,0.921279
1497,577.950713,73.060197,-133.974212,0.078859,0.673594,-0.596323
1498,124.513619,40.466926,-40.772107,-0.459113,1.310811,-1.007462
1499,-215.274281,-37.903410,51.331350,-0.015259,-0.152102,-0.324712
1500,-302.616922,-58.533608,79.774166,0.284550,-0.566049,1.349508
1501,-62.623026,-2.075227,-2.929732,-0.051026,-0.764660,1.999969
1502,72.877089,3.906310,-18.371862,-0.105715,0.061524,0.562875
1503,-41.565576,-18.921187,3.479057,0.096681,0.212772,1.025772
1504,-42.542153,-7.812619,1.892119,0.067140,-0.111940,1.130510
1505,-11.718929,-4.150454,-0.854505,-0.107668,-0.020264,1.010880
1506,-21.057450,-10.620279,-1.464866,0.036988,-0.037842,1.105241
1507,-8.728161,-7.080186,-2.990768,-0.001099,-0.031617,1.024063
1508,-9.338521,-7.995727,-2.624552,0.002564,0.003906,1.022599
1509,-9.582666,-6.225681,-1.464866,0.055665,-0.046998,1.075456
1510,-2.868696,-2.197299,-0.488289,-0.007202,-0.019165,1.005020
1511,-4.272526,-2.380407,0.488289,0.001587,0.016846,0.952773
1512,-9.887846,-3.356985,1.159686,0.000366,0.005615,0.964004
1513,-11.169604,-4.455634,1.403830,0.002808,0.001099,0.956435
1514,-13.794156,-5.188067,1.220722,0.012207,-0.008301,0.991836
1515,-15.503166,-5.310140,1.342794,0.020264,-0.033936,1.058976
1516,-9.277485,-3.845274,0.732433,0.019043,-0.032593,1.032242
1517,-8.606088,-3.479057,0.427253,0.017578,-0.019776,1.026749
1518,-8.056764,-2.807660,0.305180,0.012696,-0.030884,1.038590
1519,-5.493248,-2.258335,0.000000,0.018677,-0.042359,1.018082
1520,-2.990768,-1.586938,0.000000,0.012573,-0.021118,0.990860
1521,-4.272526,-1.770047,0.183108,0.009400,0.002441,0.974746
1522,-8.117800,-2.502480,0.305180,0.001343,-0.006836,0.957900
1523,-11.169604,-3.356985,0.366217,0.013916,-0.024170,0.988296
1524,-11.413748,-3.295949,0.244144,0.009277,-0.041016,1.028946
1525,-9.094377,-3.112840,0.000000,0.018311,-0.050294,1.023209
1526,-6.897078,-2.685588,-0.305180,0.024781,-0.049439,1.029679
1527,-4.821851,-2.136263,-0.488289,0.015381,-0.044068,1.028702
1528,-3.601129,-1.892119,-0.549325,0.022827,-0.042969,1.020645
1529,-1.464866,-1.220722,-0.427253,0.020508,-0.044190,1.027115
1530,-0.793469,-0.915541,-0.183108,0.017212,-0.051514,1.018448
1531,0.732433,-0.549325,0.122072,0.015747,-0.031495,0.994034
1532,-1.098650,-0.976577,0.427253,0.011353,-0.021241,0.961196
1533,-3.845274,-1.831083,0.793469,0.007446,-0.012818,0.960708
1534,-8.056764,-2.807660,0.915541,0.013672,-0.020874,0.986587
1535,-8.606088,-3.173877,0.854505,0.022583,-0.043946,1.014664
1536,-6.591897,-2.685588,0.671397,0.025025,-0.038575,1.014542
1537,-6.286717,-2.685588,0.488289,0.026123,-0.044556,1.015640
1538,-4.699779,-2.136263,0.305180,0.021973,-0.048707,1.017838
1539,-3.479057,-1.892119,0.061036,0.024292,-0.046998,1.017594
1540,-2.258335,-1.403830,0.000000,0.017945,-0.046754,1.016251
1541,-0.732433,-1.159686,-0.305180,0.019532,-0.045655,1.013931
1542,-0.061036,-1.098650,-0.488289,0.016236,-0.045533,1.002457
1543,0.244144,-1.281758,-0.488289,0.010498,-0.038819,0.992203
1544,-0.366217,-1.525902,-0.488289,0.020752,-0.034424,0.996475
1545,-1.342794,-1.525902,-0.488289,0.017578,-0.043214,1.001724
1546,-1.159686,-1.464866,-0.244144,0.028443,-0.040162,0.998062
1547,-2.014191,-1.098650,-0.122072,0.028077,-0.045777,1.007706
1548,-1.403830,-0.549325,0.000000,0.027832,-0.050050,1.027604
1549,0.061036,0.000000,0.000000,0.023316,-0.043336,1.014420
1550,0.183108,0.244144,-0.122072,0.020874,-0.044678,1.009537
1551,1.098650,0.305180,-0.549325,0.014527,-0.020752,1.013321
1552,1.159686,0.305180,-0.671397,0.032959,-0.063355,1.012222
1553,2.685588,1.037613,-0.610361,0.018677,-0.044068,1.007462
1554,2.685588,1.159686,-0.488289,0.013794,-0.035401,1.005509
1555,2.075227,1.037613,-0.671397,0.023804,-0.042969,1.008072
1556,2.990768,1.342794,-0.610361,0.027222,-0.040772,1.012711
1557,3.112840,1.770047,-0.549325,0.024781,-0.048707,1.017716
1558,4.333562,2.319371,-0.671397,0.032593,-0.047608,1.023819
1559,4.821851,3.112840,-0.610361,0.034058,-0.040406,1.007584
1560,5.371176,4.089418,-0.366217,0.029297,-0.047486,1.023331
1561,7.141222,5.004959,-0.183108,0.025391,-0.043702,1.016251
1562,7.812619,5.554284,0.000000,0.023316,-0.039429,1.006485
1563,8.606088,5.615320,-0.122072,0.016480,-0.037232,1.011978
1564,9.399557,5.615320,-0.366217,0.010742,-0.029419,0.998672
1565,9.277485,5.371176,-0.549325,0.001953,-0.012451,0.979629
1566,5.920500,4.150454,-0.610361,0.005737,-0.033936,0.999405
1567,7.141222,4.089418,-0.488289,0.028565,-0.056031,1.041276
1568,11.413748,5.371176,0.000000,0.022095,-0.039796,0.996597
1569,10.864424,4.882887,0.488289,-0.011597,-0.000610,0.920668
1570,5.432212,2.929732,0.793469,0.004883,0.022583,0.928847
1571,-1.098650,1.647974,0.854505,-0.001953,-0.005982,0.965347
1572,-2.441444,0.793469,0.549325,0.012085,-0.032837,1.015152
1573,0.305180,1.403830,0.732433,0.015015,-0.037354,1.023087
1574,1.770047,2.014191,0.915541,0.016724,-0.038087,1.030900
1575,4.577707,2.746624,1.098650,0.011597,-0.033326,1.013443
1576,4.821851,2.807660,1.342794,0.005005,-0.018067,0.996109
1577,4.760815,2.136263,0.976577,-0.004395,0.004883,0.967300
1578,1.159686,0.976577,0.671397,-0.005005,-0.013916,0.982315
1579,2.075227,-0.915541,0.366217,-0.016358,-0.026368,0.973648
1580,3.173877,-3.784237,-0.244144,-0.007446,-0.007324,0.972061
1581,0.671397,-5.065995,0.000000,0.020630,-0.015991,0.982193
1582,0.366217,-4.638743,0.061036,-0.007446,-0.029664,0.983291
1583,-0.976577,-4.577707,0.366217,0.044678,-0.007202,0.992081
1584,-2.441444,-2.014191,0.793469,0.027588,-0.014282,0.986099
1585,-3.906310,-1.403830,1.342794,-0.007568,-0.005615,0.981582
1586,-4.638743,-2.929732,0.732433,0.003906,-0.016968,1.002579
1587,-3.295949,-4.150454,0.244144,0.011109,-0.026246,0.990494
1588,1.281758,-4.943923,-1.403830,-0.017945,0.062623,0.880995
1589,-15.869383,-10.315099,-1.953155,-0.011353,-0.011719,0.987686
1590,-8.728161,-11.474784,-3.295949,0.029664,-0.056519,1.059831
1591,-5.249104,-9.338521,-3.418021,0.083986,-0.049195,1.071916
1592,-4.211490,-4.394598,-1.586938,0.092287,-0.070924,1.095842
1593,2.746624,2.746624,0.122072,0.094484,-0.041382,1.074113
1594,1.586938,8.606088,2.075227,0.035157,-0.040284,1.036637
1595,7.507439,8.606088,1.220722,-0.049805,0.027100,0.891371
1596,-4.455634,1.709010,0.122072,-0.032349,0.008667,0.952529
1597,-2.868696,-1.770047,-1.281758,-0.011841,-0.021729,0.994034
1598,-3.173877,-3.540093,-1.709010,0.002930,-0.028199,0.992325
1599,-2.990768,-4.943923,-1.892119,-0.002197,-0.056275,1.030533
1600,3.723201,-6.103609,-3.112840,0.047486,-0.056641,1.071794
1601,8.545052,-4.638743,-3.845274,0.014038,-0.034180,0.996841
1602,8.300908,-3.601129,-2.746624,0.058228,0.026368,0.966812
1603,0.000000,-0.915541,-0.915541,0.048463,0.046632,0.920180
1604,-10.070954,0.793469,0.305180,0.043580,-0.000122,0.971939
1605,-11.657893,3.295949,1.403830,0.032593,-0.034668,1.024796
1606,-8.117800,3.845274,1.342794,-0.005615,-0.013916,0.977920
1607,-13.000687,1.037613,1.342794,0.018555,-0.066896,1.044938
1608,-3.356985,1.037613,0.366217,0.008911,-0.049073,1.019059
1609,-1.403830,-0.244144,-0.366217,0.007568,-0.006104,0.985367
1610,-6.530861,-1.403830,-0.183108,0.017090,-0.052369,1.039445
1611,2.014191,0.000000,-0.549325,0.009644,-0.003052,0.984512
1612,-6.225681,-1.770047,-0.305180,0.010498,-0.042847,1.015640
1613,-0.122072,-1.525902,-0.610361,0.013428,-0.036378,1.007218
1614,-1.159686,-2.075227,-0.793469,0.020264,-0.017578,0.986343
1615,-3.112840,-1.770047,-0.427253,0.033082,-0.041138,1.024308
1616,0.122072,-0.610361,-0.244144,0.023194,-0.018921,0.991104
1617,-3.234913,-0.610361,0.000000,0.033448,-0.040406,1.020523
1618,0.366217,0.671397,-0.244144,0.017700,-0.029786,0.993668
1619,-1.525902,0.305180,-0.305180,0.027466,-0.029541,0.998917
1620,-0.915541,0.671397,-0.183108,0.031739,-0.054200,1.050187
1621,3.906310,2.258335,0.000000,0.022950,-0.029053,1.010758
1622,2.441444,1.709010,-0.244144,-0.003052,-0.037354,1.005020
1623,5.432212,0.732433,-0.915541,0.018555,-0.031739,1.004166
1624,4.577707,0.244144,-1.037613,0.025025,-0.035401,1.017350
1625,6.713970,0.915541,-1.098650,0.024903,-0.036378,1.014908
1626,7.141222,1.647974,-0.549325,0.022095,-0.021607,0.981216
1627,6.469825,2.258335,-0.122072,0.029908,0.021118,0.948379
1628,-1.159686,2.136263,0.671397,0.012207,0.009522,0.958755
1629,-5.798428,2.258335,0.488289,0.016114,-0.010498,0.975235
1630,-7.080186,2.258335,0.000000,0.025757,-0.037964,1.027237
1631,-3.356985,3.540093,-1.892119,0.017456,-0.045167,1.010391
1632,0.366217,3.418021,-4.028382,0.030396,-0.049561,1.014298
1633,2.685588,2.868696,-3.906310,-0.010498,-0.011963,1.000748
1634,-6.042573,-0.915541,0.000000,-0.000977,-0.047730,0.993179
1635,4.150454,-1.464866,-1.220722,0.004517,-0.016114,0.985855
1636,-2.746624,-2.990768,-0.854505,0.018799,-0.019654,1.015396
1637,-0.610361,-2.319371,-1.037613,0.020142,-0.033936,1.013443
1638,0.732433,-1.342794,-1.037613,0.026490,-0.025391,0.998184
1639,-0.061036,-1.037613,-1.403830,0.020386,-0.013306,0.994400
1640,0.061036,-1.342794,-2.136263,0.011963,-0.025635,0.999771
1641,-0.183108,-2.014191,-1.037613,0.012818,-0.013672,0.995254
1642,-2.563516,-2.258335,0.000000,0.030396,-0.012940,0.995865
1643,-5.920500,-1.770047,0.244144,0.029541,-0.028687,1.009415
1644,-4.516670,-0.793469,0.061036,0.025513,-0.025757,1.016129
1645,-4.516670,-0.061036,0.061036,0.021241,-0.019654,0.999161
1646,-2.624552,0.000000,0.305180,0.037110,-0.031617,1.021378
1647,-1.892119,1.281758,0.000000,0.020752,-0.015137,0.990372
1648,-5.310140,0.488289,-0.122072,0.004395,-0.033570,0.995010
1649,-3.540093,-0.488289,-0.488289,0.014527,-0.031373,0.995010
1650,-4.943923,-1.098650,0.000000,0.021485,-0.036866,1.008438
1651,-3.112840,-1.403830,0.366217,-0.008911,-0.043946,1.005386
1652,-2.624552,-1.403830,0.671397,0.019898,0.003174,0.987198
1653,-5.188067,-1.831083,0.488289,0.010986,-0.022950,0.983413
1654,-5.737392,-2.136263,0.122072,0.015625,-0.030518,0.987320
1655,-5.004959,-2.075227,0.000000,0.023926,-0.038453,1.011490
1656,-3.051804,-1.586938,-0.122072,0.014282,-0.052857,1.033097
1657,10.803388,-0.366217,-0.854505,0.029908,-0.041871,1.014542
1658,3.173877,-1.159686,0.244144,0.015503,-0.019532,0.975113
1659,4.028382,-1.037613,0.244144,0.013306,-0.051881,1.035050
1660,8.545052,-0.976577,1.159686,0.028809,-0.021363,1.009659
1661,4.150454,-1.586938,1.831083,0.017945,-0.027344,0.993179
1662,4.516670,-2.136263,2.685588,0.023438,-0.036011,0.989883
1663,4.638743,-2.075227,2.075227,0.028077,-0.025391,1.000015
1664,3.723201,-1.647974,1.770047,0.025513,-0.025635,0.997818
1665,2.624552,-1.586938,2.014191,0.024170,-0.008667,0.989883
1666,-0.549325,-1.770047,1.403830,0.024659,-0.013428,0.988174
1667,-0.610361,-1.342794,0.549325,0.038087,-0.031006,1.012345
1668,-0.488289,-0.549325,0.061036,0.034668,-0.014771,1.004410
1669,-1.953155,0.061036,-0.183108,0.029419,-0.030396,1.015885
1670,-1.647974,0.427253,-0.305180,0.035889,-0.030518,1.015885
1671,-0.671397,1.281758,-0.305180,0.024659,-0.034913,1.001602
1672,0.549325,1.342794,-0.244144,0.026368,-0.022461,1.001480
1673,0.488289,1.159686,-0.488289,0.015137,-0.022827,0.987442
1674,-1.770047,0.366217,-0.610361,0.026123,-0.028809,1.002945
1675,-0.183108,0.610361,-0.915541,0.021118,-0.025635,1.005875
1676,-0.305180,0.427253,-0.549325,0.023926,-0.026734,1.000504
1677,0.793469,0.427253,-0.366217,0.019409,-0.025269,0.994522
1678,1.586938,0.244144,-0.183108,0.016724,-0.027466,0.984756
1679,0.244144,-0.427253,0.244144,0.028443,-0.022339,0.994156
1680,0.793469,-0.305180,0.366217,0.020996,-0.022705,0.999161
1681,-0.061036,-0.427253,0.366217,0.025147,-0.016602,0.994156
1682,-1.098650,-0.610361,0.488289,0.018799,-0.021363,1.001602
1683,-1.586938,-0.671397,0.488289,0.035767,-0.028199,1.006241
1684,-1.464866,-0.061036,0.061036,0.031128,-0.020752,1.007095
1685,-1.586938,0.610361,-0.183108,0.030274,-0.023560,1.008316
1686,-2.258335,0.610361,-0.244144,0.021363,-0.029541,1.006485
1687,-1.953155,0.610361,-0.305180,0.024414,-0.026490,1.000748
1688,-2.502480,0.427253,-0.610361,0.016114,-0.024537,0.993423
1689,-2.441444,0.366217,-1.037613,0.025635,-0.032471,0.998672
1690,-2.319371,0.671397,-1.159686,0.029419,-0.021118,0.992813
1691,-3.784237,0.854505,-1.098650,0.024170,-0.016968,0.982681
1692,-5.920500,0.915541,-1.037613,0.022705,-0.014771,0.998306
1693,-10.009918,0.793469,-0.976577,0.024781,-0.032715,1.001602
1694,-9.155413,1.037613,-0.915541,0.024414,-0.034058,1.005631
1695,-7.568475,1.037613,-1.037613,0.023682,-0.039918,1.007340
1696,-6.164645,0.976577,-0.793469,0.021973,-0.042481,1.005386
1697,-4.455634,1.281758,-0.732433,0.018433,-0.036378,1.001602
1698,-4.455634,1.037613,-0.366217,0.018555,-0.034424,1.003922
1699,-4.028382,0.976577,-0.305180,0.024170,-0.039063,1.006973
1700,-1.525902,0.732433,-0.671397,0.023560,-0.041749,1.005997
1701,5.065995,2.075227,-2.380407,-0.003418,-0.053590,0.896986
1702,-3.845274,-0.244144,-0.488289,0.033204,-0.034668,0.982925
1703,1.831083,1.220722,-0.427253,0.015503,-0.045411,1.013687
1704,4.577707,1.037613,-0.244144,0.021729,-0.014771,0.995254
1705,-0.061036,0.366217,-0.305180,0.020630,-0.032105,1.004166
1706,0.305180,0.549325,-0.244144,0.025391,-0.029297,1.005020
1707,-0.366217,0.610361,-0.244144,0.021607,-0.034302,1.003799
1708,-1.647974,0.183108,-0.183108,0.018921,-0.037720,1.000870
1709,-1.037613,0.061036,-0.122072,0.016968,-0.039307,1.008072
1710,-0.366217,0.000000,-0.427253,0.020386,-0.027344,1.004410
1711,-1.770047,-0.183108,-0.366217,0.018189,-0.037964,1.001114
1712,-1.647974,-0.183108,-0.366217,0.020996,-0.038697,1.003922
1713,-1.525902,-0.305180,-0.305180,0.026246,-0.038331,1.001114
1714,0.793469,0.122072,-0.854505,0.022217,-0.034302,0.995254
1715,0.366217,-0.793469,0.061036,0.049317,-0.041627,1.002579
1716,1.342794,0.183108,0.000000,0.005493,-0.032227,1.005509
1717,0.793469,-1.098650,0.671397,0.030640,-0.035157,1.001114
1718,0.244144,-0.427253,0.549325,0.006104,-0.028077,0.997330
1719,0.427253,-0.671397,0.427253,0.032593,-0.033936,0.990127
1720,0.732433,0.061036,0.244144,0.008057,-0.025879,1.000381
1721,0.793469,0.000000,0.000000,0.024414,-0.039307,1.000870
1722,1.342794,0.122072,-0.305180,0.024292,-0.033814,1.003677
1723,0.671397,0.183108,-0.366217,0.022461,-0.033082,0.996353
1724,-0.976577,-0.244144,-0.122072,0.026978,-0.030030,1.008927
