Packet number,Gyroscope X (deg/s),Gyroscope Y (deg/s),Gyroscope Z (deg/s),Accelerometer X (g),Accelerometer Y (g),Accelerometer Z (g)
0,-0.122072,-0.061036,0.000000,-0.006836,0.001465,1.000015
1,-0.061036,-0.122072,0.000000,0.002075,-0.002075,0.997208
2,-0.061036,-0.183108,0.000000,-0.002686,-0.001465,1.004532
3,-0.061036,-0.305180,-0.122072,0.001343,-0.004761,0.998917
4,0.000000,-0.244144,0.000000,-0.000610,-0.004761,0.998306
5,0.000000,-0.305180,-0.122072,-0.002197,0.001099,0.993301
6,-0.610361,-0.366217,-0.122072,-0.000244,-0.005493,1.000626
7,-0.366217,-0.488289,-0.122072,0.004883,-0.001831,0.998184
8,-1.098650,-0.366217,0.000000,-0.003296,-0.000244,0.993912
9,-0.915541,-0.488289,0.061036,0.000977,-0.005982,1.011246
10,-0.366217,-0.183108,0.000000,-0.001709,-0.001831,1.004776
11,-0.671397,-0.244144,0.000000,0.003052,-0.008789,0.994278
12,-0.122072,-0.366217,-0.183108,-0.000732,-0.006714,0.999771
13,-0.366217,-0.183108,0.000000,-0.004517,-0.006592,0.998062
14,-0.061036,-0.183108,0.000000,0.002075,-0.003662,1.005631
15,-0.305180,-0.366217,-0.122072,0.000366,-0.000610,0.995132
16,-0.122072,-0.305180,-0.122072,-0.001953,-0.006714,0.999405
17,0.000000,-0.183108,-0.183108,-0.001953,-0.005005,0.999527
18,-0.244144,-0.244144,-0.122072,-0.001831,-0.007324,1.007584
19,0.000000,-0.122072,0.000000,0.001587,-0.007568,1.003677
20,-0.305180,-0.183108,-0.122072,0.001587,-0.006714,1.007340
21,-0.183108,-0.305180,0.000000,0.004761,-0.002808,0.996231
22,-0.427253,-0.244144,-0.122072,-0.000732,0.000732,0.995743
23,-0.610361,-0.183108,-0.122072,0.004028,-0.005737,1.005509
24,-0.366217,-0.183108,-0.183108,-0.003296,-0.003662,1.002823
25,-0.305180,-0.183108,-0.122072,-0.003906,-0.005371,1.002335
26,-0.366217,-0.305180,-0.122072,0.001343,-0.002808,1.001846
27,-0.488289,-0.305180,-0.122072,-0.001099,-0.007202,1.003799
28,0.061036,-0.183108,-0.122072,-0.003174,-0.000732,1.010758
29,-0.122072,-0.305180,-0.122072,0.002075,-0.003662,1.000626
30,0.000000,-0.244144,0.000000,-0.001587,-0.002319,1.001968
31,-0.061036,-0.305180,-0.183108,-0.003906,0.001587,0.997208
32,-0.488289,-0.366217,-0.122072,-0.000488,-0.001831,1.002579
33,-0.122072,-0.366217,-0.244144,-0.003906,-0.002564,0.994156
34,-0.305180,-0.366217,-0.122072,-0.002441,-0.002686,0.989395
35,-0.427253,-0.366217,-0.122072,0.002075,-0.005249,0.994522
36,-0.854505,-0.305180,-0.183108,-0.000732,-0.002808,0.999405
37,-0.549325,-0.366217,-0.122072,0.002686,-0.001343,0.997208
38,-0.915541,-0.244144,0.000000,-0.001587,-0.011353,0.997330
39,-0.488289,-0.305180,-0.122072,0.006348,-0.002564,1.005875
40,-0.549325,-0.183108,0.000000,0.002441,-0.005249,1.006729
41,-0.427253,-0.183108,0.000000,0.005005,-0.005737,1.008316
42,0.000000,0.000000,-0.122072,-0.000977,-0.003052,1.003922
43,-0.122072,-0.183108,0.000000,0.005982,-0.004150,0.998550
44,0.000000,-0.122072,0.000000,0.001465,-0.008179,1.005264
45,-0.183108,-0.061036,-0.183108,0.000732,-0.003906,0.999405
46,-0.061036,-0.122072,-0.122072,-0.003174,-0.007324,1.002945
47,-0.061036,-0.122072,-0.122072,-0.002686,0.001831,0.997574
48,-0.061036,-0.122072,0.000000,-0.001587,-0.008057,0.995010
49,-0.244144,-0.244144,-0.183108,-0.003906,-0.002686,0.997818
50,-0.305180,-0.183108,-0.122072,0.003174,-0.005615,1.000626
51,-0.305180,-0.244144,-0.122072,-0.000610,-0.002930,1.000015
52,-0.549325,-0.244144,-0.122072,0.006226,-0.007080,1.004654
53,-0.183108,-0.183108,-0.183108,-0.001831,-0.004517,1.001602
54,-0.427253,-0.183108,-0.122072,-0.003052,-0.003906,1.002701
55,-0.122072,-0.061036,0.000000,-0.000122,-0.006104,1.000015
56,0.000000,0.000000,-0.122072,-0.002441,-0.008057,0.994644
57,-0.122072,-0.183108,-0.122072,-0.004883,-0.005371,1.003067
58,0.122072,-0.122072,-0.183108,-0.003540,-0.002441,1.003799
59,-0.122072,-0.244144,-0.122072,-0.000977,-0.002075,1.003922
60,0.244144,-0.122072,-0.244144,0.001343,-0.002686,0.995743
61,-0.061036,-0.183108,-0.122072,0.002441,-0.003906,1.006973
62,0.183108,-0.122072,-0.122072,0.001221,-0.004883,1.003433
63,0.000000,-0.183108,0.000000,0.001099,-0.002686,0.995621
64,-0.061036,-0.122072,-0.244144,-0.002319,0.001221,0.998672
65,-0.427253,-0.244144,0.000000,-0.000488,-0.004273,0.995987
66,-0.061036,-0.122072,0.000000,0.000122,0.001099,0.997574
67,-0.183108,-0.244144,0.000000,0.000000,-0.002441,0.990494
68,-0.244144,-0.305180,0.000000,-0.008179,-0.004761,1.008072
69,0.000000,-0.122072,-0.122072,0.003052,-0.005737,1.004532
70,-0.122072,-0.244144,0.000000,-0.004150,0.001465,1.003922
71,-0.122072,-0.305180,-0.122072,-0.001465,0.001343,1.007340
72,-0.122072,-0.305180,-0.122072,-0.002197,-0.003906,1.002213
73,-0.122072,-0.427253,-0.122072,-0.000488,0.000732,0.996475
74,-0.305180,-0.610361,0.000000,0.000488,-0.002441,1.002213
75,0.122072,-0.366217,-0.122072,0.002564,-0.004150,0.999771
76,0.061036,-0.427253,-0.122072,0.003662,-0.002441,0.999649
77,0.000000,-0.305180,-0.122072,0.000122,-0.000732,1.000626
78,-0.061036,-0.244144,0.000000,0.002686,-0.004273,1.006485
79,0.305180,0.000000,0.061036,-0.000244,-0.000732,0.992447
80,-0.183108,-0.061036,0.183108,0.002808,-0.004883,1.002579
81,0.244144,0.061036,0.183108,-0.003418,-0.009277,1.002945
82,0.183108,-0.244144,0.122072,0.002319,-0.003418,1.000259
83,0.366217,-0.183108,0.000000,-0.007568,-0.006104,0.999649
84,0.671397,-0.488289,0.000000,0.000610,-0.005737,1.006973
85,0.854505,-0.549325,-0.183108,0.004639,-0.002075,1.026993
86,3.723201,0.061036,-0.366217,-0.002564,-0.000732,0.983169
87,1.037613,-0.488289,0.000000,0.013794,-0.020630,1.017716
88,4.455634,0.549325,-0.122072,-0.005615,-0.002197,1.008682
89,3.234913,0.366217,0.183108,0.014771,-0.000855,1.003922
90,4.272526,0.671397,0.183108,-0.006958,0.002075,1.007095
91,4.089418,0.488289,0.244144,-0.003418,0.002441,0.998184
92,4.455634,0.305180,0.122072,-0.002808,0.009277,0.999649
93,4.089418,0.183108,0.244144,-0.011597,-0.010254,0.987930
94,5.615320,-0.671397,0.000000,0.028077,0.022950,0.994278
95,2.868696,0.000000,0.000000,-0.017823,0.003540,0.981460
96,2.746624,-1.098650,0.244144,-0.006470,0.001587,1.006607
97,4.516670,-0.854505,0.000000,-0.008911,0.019043,0.980117
98,2.014191,-1.220722,0.000000,-0.003052,0.006836,0.982559
99,2.136263,-1.403830,0.000000,0.000122,0.003418,0.997574
100,2.441444,-1.464866,0.000000,0.006348,0.015381,1.000504
101,1.953155,-1.281758,0.000000,0.006836,0.018677,0.997696
102,0.610361,-1.342794,0.000000,-0.012940,0.003296,1.002213
103,1.953155,-0.976577,-0.183108,0.011719,0.004883,1.019669
104,2.136263,-0.244144,0.000000,-0.009400,0.011231,1.008194
105,2.380407,-0.183108,-0.244144,0.015869,0.005737,1.013809
106,2.746624,0.732433,-0.305180,-0.003174,0.012940,1.023697
107,3.784237,0.671397,0.000000,-0.004517,0.005615,0.985489
108,3.662165,0.183108,0.122072,-0.003174,0.015137,1.002579
109,3.479057,0.122072,0.061036,-0.006348,0.018433,0.986465
110,2.197299,-0.366217,0.183108,0.000122,0.011841,0.985855
111,2.380407,-0.610361,0.122072,0.002686,0.017090,0.985977
112,1.953155,-0.610361,0.122072,-0.002197,0.022095,0.984756
113,1.037613,-1.037613,0.183108,-0.004028,0.017700,0.991104
114,1.281758,-1.159686,0.000000,0.002319,0.016480,0.986831
115,0.488289,-1.098650,0.183108,0.006470,0.015625,1.000381
116,0.976577,-0.671397,0.244144,0.002441,0.008301,1.000748
117,0.732433,-0.488289,0.366217,-0.001587,0.012818,0.988296
118,1.098650,-0.854505,0.671397,-0.008789,0.013672,1.000259
119,1.464866,-1.464866,0.671397,-0.007813,0.020752,0.980850
120,0.488289,-2.075227,0.854505,0.004028,0.024903,0.997940
121,0.793469,-1.586938,0.671397,-0.011353,0.027344,1.000748
122,1.403830,-2.502480,0.793469,-0.007813,0.016236,0.983291
123,1.770047,-2.990768,0.671397,0.005493,0.012085,1.007340
124,2.319371,-2.746624,0.427253,-0.000732,0.007446,1.010147
125,3.601129,-2.990768,0.244144,0.006958,0.017334,1.002213
126,3.845274,-2.746624,0.427253,0.016358,0.025025,1.006973
127,4.028382,-1.403830,0.366217,0.018433,0.004517,1.006973
128,4.699779,-0.549325,0.549325,0.010010,0.008789,1.028214
129,6.897078,0.427253,0.732433,0.013794,0.018799,1.017227
130,6.897078,1.403830,0.854505,0.014771,0.015991,1.012222
131,7.385367,2.136263,0.915541,0.001099,0.022217,0.990860
132,7.019150,1.770047,0.976577,0.000000,0.032105,1.002579
133,6.897078,1.403830,0.671397,0.004517,0.038941,0.981949
134,5.249104,1.098650,0.366217,0.005005,0.039185,0.988540
135,5.249104,1.342794,0.244144,-0.000244,0.043580,0.975845
136,3.356985,0.732433,0.183108,-0.003052,0.040528,0.971084
137,2.441444,0.122072,0.061036,-0.008301,0.036011,0.987930
138,2.197299,-1.037613,-0.122072,-0.014527,0.036011,0.983291
139,1.281758,-2.258335,-0.244144,-0.000610,0.032959,0.989517
140,1.647974,-2.502480,-0.488289,0.005982,0.027832,1.000137
141,1.953155,-2.197299,-0.488289,0.015747,0.021729,1.011734
142,3.295949,-1.342794,-0.366217,0.009400,0.034668,0.997818
143,2.380407,-1.159686,-0.366217,0.010132,0.013916,1.008316
144,3.051804,0.000000,-0.427253,0.011719,0.023316,0.980606
145,2.197299,0.305180,-0.183108,0.009400,0.029786,0.970474
146,1.403830,0.366217,0.000000,0.007691,0.041260,0.980362
147,0.000000,0.671397,0.000000,0.011353,0.044678,0.986954
148,-1.281758,0.610361,0.000000,0.005615,0.033082,1.000870
149,-0.793469,0.488289,-0.244144,0.004150,0.031006,0.994156
150,-0.610361,0.366217,0.000000,0.009400,0.022461,1.025040
151,0.976577,1.098650,-0.122072,0.003052,0.031128,1.002579
152,1.098650,0.854505,0.000000,-0.000610,0.038087,0.978408
153,0.244144,0.671397,0.000000,0.003174,0.026001,0.997208
154,1.220722,0.671397,0.000000,0.007813,0.035035,0.990372
155,0.793469,0.671397,0.000000,0.004883,0.038331,0.988418
156,0.366217,0.549325,-0.122072,0.003052,0.040772,0.987808
157,0.549325,0.305180,-0.122072,-0.003296,0.035523,0.982437
158,-0.549325,-0.183108,-0.183108,0.000855,0.034791,0.992569
159,0.122072,-0.244144,-0.183108,-0.001465,0.029786,1.001114
160,-0.061036,-0.549325,-0.183108,-0.002441,0.034913,0.977920
161,-0.122072,-0.732433,-0.305180,-0.005493,0.061646,0.947280
162,-3.784237,-2.014191,-0.183108,-0.001709,0.044556,0.978653
163,-3.967346,-2.258335,-0.610361,0.006592,0.037110,0.994278
164,-3.906310,-2.075227,-0.610361,0.005127,0.034424,0.995132
165,-4.272526,-2.075227,-0.610361,0.008301,0.020264,1.001358
166,-2.380407,-1.647974,-0.610361,0.018433,0.026612,0.998795
167,-2.868696,-1.403830,-0.732433,0.010376,0.034913,0.992081
168,-3.418021,-1.281758,-0.732433,-0.004028,0.025757,0.988418
169,-2.929732,-2.014191,-0.915541,0.005371,0.042847,0.969253
170,-5.371176,-2.075227,-0.976577,0.006592,0.032959,0.987930
171,-5.065995,-1.953155,-1.159686,0.013916,0.029908,0.989517
172,-5.432212,-1.220722,-1.220722,0.018921,0.036133,0.989639
173,-6.836042,-0.976577,-0.915541,0.014282,0.021363,0.985733
174,-5.676356,-0.427253,-1.098650,0.019776,0.045899,0.971328
175,-9.277485,0.244144,-0.854505,0.012085,0.025513,0.978286
176,-8.545052,0.305180,-0.732433,0.015015,0.031617,0.976333
177,-11.596857,0.610361,-0.305180,0.007691,0.018433,0.994766
178,-10.070954,0.305180,-0.183108,-0.000732,0.021118,0.990249
179,-10.742351,-0.183108,-0.122072,-0.008301,0.025513,0.980972
180,-12.390326,-0.793469,0.061036,0.002564,0.025025,0.986343
181,-12.329290,-0.793469,0.122072,-0.011841,0.017823,0.965713
182,-13.977264,-1.953155,0.854505,0.008789,0.016968,0.985733
183,-15.625238,-1.464866,1.220722,-0.001099,0.022461,0.970596
184,-19.165332,-2.258335,2.136263,-0.003662,0.012329,0.979507
185,-19.348440,-2.624552,2.136263,0.000366,-0.007935,0.986954
186,-18.738079,-2.746624,2.502480,0.000122,0.004517,0.999527
187,-20.935378,-2.990768,2.807660,-0.013428,-0.002808,0.993301
188,-20.508125,-4.028382,2.746624,-0.017945,-0.017578,1.010269
189,-18.921187,-5.127031,2.014191,0.010254,-0.020752,0.983291
190,-20.325017,-5.859464,2.075227,0.013672,0.003906,1.026261
191,-19.714656,-5.981537,2.563516,0.013428,0.002930,1.018570
192,-18.921187,-6.225681,2.685588,0.007935,-0.013550,0.998672
193,-21.789883,-6.836042,3.479057,-0.019532,0.003906,0.991836
194,-19.470512,-7.263294,3.234913,0.046021,0.003906,0.980728
195,-21.911955,-5.493248,2.868696,0.028199,0.084718,0.909438
196,-32.349126,-3.112840,1.342794,0.061036,0.100099,0.871107
197,-47.974365,-4.028382,1.525902,-0.020142,0.039063,0.948867
198,-53.223468,-3.295949,0.671397,0.054566,-0.019409,1.026505
199,-52.246891,0.183108,0.976577,-0.005982,-0.033692,1.047623
200,-48.523690,2.197299,2.990768,0.060304,-0.070558,0.960830
201,-51.148241,2.319371,-1.525902,-0.038819,-0.026734,1.002945
202,-63.477531,-2.624552,-3.662165,-0.011719,-0.078981,1.047135
203,-71.900511,-4.211490,-8.117800,-0.024781,-0.091188,1.015640
204,-70.862898,-5.310140,-3.234913,0.028199,-0.130861,1.036637
205,-70.557717,-5.371176,-4.211490,0.045411,-0.107668,1.022843
206,-69.764248,-3.784237,-5.493248,0.021485,-0.042115,0.989395
207,-81.544213,-3.295949,-4.455634,0.032105,0.005982,0.952285
208,-97.535668,-0.061036,-3.234913,-0.025269,0.140017,1.105241
209,-87.891966,3.479057,2.014191,-0.010010,0.606455,0.833265
210,-154.055085,2.380407,-6.530861,0.064576,0.010986,0.880507
211,-194.094759,7.446403,16.418708,0.037720,-0.041260,0.875135
212,-212.161440,-6.469825,-8.300908,0.002319,0.418952,0.827039
213,-326.298924,-8.606088,0.000000,0.174807,0.290043,1.378195
214,-403.631647,5.493248,-14.038300,-0.041016,0.057862,1.633204
215,-479.743648,-0.915541,-24.414435,0.057130,0.033204,1.297383
216,-535.530633,19.287404,-9.460594,0.203372,-0.198611,1.480980
217,-553.109026,37.781338,18.738079,0.121706,-1.639429,1.999969
218,-502.021820,44.068055,76.417182,-1.534569,0.023072,1.999969
219,-33.508812,5.981537,-17.883574,-0.410895,-0.224491,1.999969
220,155.336843,40.527962,-33.936065,-0.038331,0.515633,1.332174
221,-6.591897,-4.150454,10.193027,-0.113039,0.651499,0.908217
222,-68.238346,-52.674144,26.733806,0.325811,0.233768,0.792493
223,41.748684,-39.612421,-10.376135,0.434943,0.382086,0.595468
224,20.447089,-35.461967,-32.349126,0.477668,0.580453,0.500984
225,-15.503166,-16.723888,-49.622339,0.276127,0.377447,0.845106
226,26.550698,5.920500,-67.750057,0.064210,0.406134,0.894423
227,32.654307,9.582666,-70.923934,-0.160037,0.402350,0.882582
228,43.640803,1.892119,-63.660639,-0.301640,0.317144,1.031998
229,74.464027,-3.540093,-53.650721,-0.374029,0.320928,1.077287
230,90.516518,-5.676356,-40.100710,-0.388800,0.306401,1.157977
231,110.536355,0.244144,-27.161059,-0.394049,0.253910,1.181903
232,133.119707,7.812619,-14.892805,-0.372808,0.227298,1.150042
233,148.622873,12.085145,-2.685588,-0.319829,0.184085,1.045426
234,164.248112,12.085145,7.263294,-0.233646,0.159792,0.995987
235,175.295644,9.948882,14.892805,-0.158694,0.152468,1.027237
236,188.235294,7.019150,18.554971,-0.063600,0.133669,1.047745
237,199.649043,6.469825,18.249790,0.006470,0.144167,1.116472
238,209.048600,10.742351,15.320058,0.071901,0.118410,1.137346
239,218.387121,16.662852,10.254063,0.086549,0.086305,1.198383
240,225.467308,20.080873,6.042573,0.084962,0.051881,1.194720
241,232.913710,19.775692,1.586938,0.095094,0.006104,1.235981
242,237.857633,17.883574,-2.624552,0.137209,-0.058961,1.150286
243,237.369345,17.090105,-9.338521,0.172366,-0.114504,1.088518
244,228.885328,21.545739,-17.761501,0.222293,-0.164065,1.101701
245,218.448157,32.410163,-26.428626,0.222660,-0.152102,1.221210
246,208.499275,40.222782,-35.645075,0.189578,-0.147097,1.345602
247,200.808728,47.364004,-44.373236,0.136233,-0.132448,1.579248
248,193.301289,54.932479,-49.866484,0.055299,-0.184817,1.889189
249,197.146563,59.449149,-51.880674,-0.058473,-0.318120,1.999969
250,207.217517,60.364691,-50.537881,-0.115602,-0.460945,1.881621
251,207.644770,61.463340,-47.241932,-0.151614,-0.568856,1.701442
252,199.038682,62.806134,-42.420081,-0.194583,-0.625376,1.705592
253,189.883268,65.491722,-36.621653,-0.237186,-0.655528,1.872465
254,190.310521,70.923934,-29.419394,-0.231449,-0.715831,1.862455
255,192.385748,76.417182,-22.400244,-0.146609,-0.742931,1.652003
256,183.901732,78.614481,-16.357671,-0.033936,-0.774426,1.451560
257,171.267262,79.041733,-13.000687,0.046632,-0.789319,1.398825
258,156.679637,80.872816,-12.024109,0.108400,-0.833387,1.692897
259,154.116121,82.887007,-11.291676,0.160159,-0.985367,1.788846
260,164.248112,79.774166,-12.695506,0.275517,-1.170428,1.618799
261,164.797436,66.895552,-17.639429,0.483650,-1.428000,1.297383
262,153.933013,54.200046,-29.602502,0.639170,-1.748928,0.919936
263,136.171511,58.045319,-44.556344,0.634165,-2.000031,0.459846
264,107.179370,71.717403,-55.237659,0.377203,-2.000031,-0.052613
265,63.965820,71.351186,-47.852293,0.031617,-2.000031,-0.473152
266,11.047532,43.701839,-26.855879,-0.284062,-1.903105,-0.478767
267,-37.109941,-0.061036,2.014191,-0.477180,-1.559594,0.001709
268,-64.332036,-31.128405,31.738766,-0.769543,-1.598657,-0.326909
269,-154.299229,-122.987716,68.726635,-0.403815,-1.269429,-0.418585
270,-148.012512,-137.331197,82.948043,-0.077760,-0.357671,1.676051
271,-97.596704,-49.317159,72.205692,-0.541756,0.449592,1.999969
272,-67.383841,-62.684062,78.370336,-0.682383,0.776867,1.130632
273,-110.902571,-112.062257,94.422828,0.434333,0.508553,-0.391608
274,-220.035096,-121.095598,94.300755,1.425437,-0.020874,-0.017456
275,-251.285573,-66.163119,80.323491,1.680934,0.124392,1.635401
276,-222.110323,-50.659953,35.095750,1.866850,0.124514,1.999969
277,-132.326238,-11.841001,-12.939651,1.229145,-0.038697,1.999969
278,-72.877089,20.325017,-42.725261,-0.011231,0.049439,1.484764
279,-100.404364,38.208591,-17.517357,-1.800198,-0.150637,1.789212
280,-105.653468,-31.982910,38.879988,-1.463890,-0.538705,0.978653
281,-45.227741,-76.600290,43.640803,-0.062501,0.002197,1.105974
282,-52.735180,-84.290837,41.016251,0.913222,0.398932,1.596094
283,-56.519417,-46.509499,19.592584,0.610361,-0.016358,1.674098
284,-30.151827,-26.306554,13.427939,-0.466560,-0.079103,1.055314
285,-25.207904,-49.378195,11.169604,-0.116335,0.129397,0.935439
286,-33.386740,-50.293736,3.234913,0.394903,0.109133,1.256245
287,-36.377508,-30.457008,0.915541,0.072267,0.005005,1.227192
288,-27.283131,-27.405203,1.586938,-0.084108,-0.006348,1.066911
289,-18.677043,-28.442817,0.061036,0.075929,0.079713,1.048356
290,-26.672770,-20.752270,1.831083,0.118410,0.062623,1.187274
291,-20.935378,-12.634470,1.709010,0.007202,0.002564,1.016373
292,-15.259022,-8.911269,0.183108,0.038697,0.094362,1.036149
293,-25.574121,-4.821851,3.234913,0.074952,0.036622,1.004776
294,-23.620966,-0.915541,3.662165,0.034302,0.012940,1.023453
295,-22.156100,0.854505,3.234913,0.022827,0.026246,0.983902
296,-24.841688,-0.305180,3.906310,0.022095,0.018921,0.976822
297,-25.268940,-4.028382,3.662165,-0.047852,0.010132,1.007950
298,-20.813306,-7.080186,1.892119,-0.002441,0.057740,1.085710
299,-19.470512,-9.765774,2.197299,0.024537,-0.039429,1.006607
300,-18.799115,-10.925460,2.319371,-0.008301,0.002564,0.985733
301,-17.639429,-12.390326,2.014191,-0.017212,-0.005737,0.966323
302,-21.972992,-13.244831,2.441444,0.011597,0.000000,0.994766
303,-21.789883,-12.878614,2.502480,0.023316,0.003296,1.037491
304,-21.789883,-11.657893,2.319371,0.036988,-0.005615,1.040177
305,-18.554971,-9.887846,2.136263,0.045411,-0.041871,1.062516
306,-14.404517,-8.178836,1.709010,0.023072,-0.031006,1.031754
307,-13.061723,-8.484016,2.014191,0.017700,-0.012207,0.992081
308,-11.413748,-9.704738,1.464866,0.008423,-0.029541,0.995743
309,-11.474784,-10.925460,0.549325,0.020752,-0.018311,1.023819
310,-10.193027,-10.559243,0.061036,0.023682,-0.036866,1.000381
311,-8.422980,-10.376135,-0.427253,0.018067,-0.013550,0.988174
312,-10.254063,-11.169604,-0.793469,0.018189,-0.015503,0.991714
313,-10.681315,-11.108568,-0.732433,0.035401,-0.044190,0.997330
314,-9.033341,-10.925460,-0.976577,0.025269,-0.018433,1.002945
315,-10.254063,-10.437171,-1.220722,0.048951,-0.054444,1.008682
316,-9.155413,-9.216449,-0.976577,0.053346,-0.062379,1.023575
317,-6.591897,-8.056764,-0.854505,0.057374,-0.037964,1.013565
318,-7.385367,-6.775006,-0.549325,0.056519,-0.052735,1.046769
319,-4.394598,-5.065995,-0.183108,0.057740,-0.053223,1.012955
320,-2.258335,-4.089418,0.000000,0.044190,-0.029053,0.985611
321,-5.371176,-4.455634,0.000000,0.030884,-0.023438,0.972427
322,-6.836042,-5.493248,0.061036,0.040040,-0.030030,0.971817
323,-8.239872,-5.676356,-0.244144,0.039307,-0.015137,0.969863
324,-11.902037,-5.981537,-0.244144,0.051392,-0.033448,0.991348
325,-12.085145,-5.432212,-0.244144,0.051759,-0.022217,0.985611
326,-14.465553,-5.188067,-0.305180,0.060670,-0.040772,0.999771
327,-14.160372,-4.577707,-0.122072,0.067384,-0.045045,0.992569
328,-14.404517,-3.906310,-0.122072,0.087892,-0.046387,0.981094
329,-14.526589,-2.868696,0.366217,0.061769,-0.043824,1.008927
330,-12.451362,-2.380407,0.427253,0.057008,-0.045533,0.981949
331,-15.197986,-2.380407,0.671397,0.050782,-0.056031,0.954482
332,-17.090105,-3.173877,1.098650,0.047974,-0.031861,0.986099
333,-19.836728,-1.892119,0.671397,0.060060,-0.062989,1.011246
334,-18.432898,-1.525902,0.915541,0.057008,-0.060914,1.004898
335,-17.517357,-1.525902,0.915541,0.041138,-0.040650,1.004410
336,-19.531548,-0.427253,2.014191,0.060792,-0.058839,0.985367
337,-21.362631,-0.183108,2.380407,0.048341,-0.055909,1.031998
338,-21.362631,0.061036,1.647974,0.049561,-0.074464,1.001236
339,-22.095064,-0.366217,1.037613,0.046265,-0.084474,0.996231
340,-20.813306,-1.037613,-0.122072,0.034058,-0.088746,0.981338
341,-21.179522,-2.441444,-0.732433,0.067262,-0.043580,1.028214
342,-23.559930,0.122072,-1.098650,0.082277,-0.032715,0.991470
343,-31.128405,1.831083,-0.732433,-0.006592,0.067262,1.305440
344,-25.085832,4.028382,-2.807660,0.051881,-0.076417,0.950088
345,-41.260395,3.295949,-2.258335,0.084840,-0.067140,0.889418
346,-46.082246,5.859464,-0.122072,0.067994,-0.093874,1.049454
347,-43.945983,8.300908,-1.647974,0.050050,-0.095949,1.006119
348,-44.678416,10.193027,-1.037613,0.036988,-0.121462,1.033585
349,-47.180896,7.873655,-2.319371,-0.042359,-0.077760,0.987076
350,-57.740139,7.202258,-10.254063,-0.004761,-0.178347,0.980362
351,-60.059510,7.995727,-12.268254,-0.010376,-0.197269,1.022477
352,-50.476844,2.929732,-14.282444,0.104128,-0.244999,0.978531
353,-34.424353,2.929732,-11.596857,0.146731,-0.189334,1.041154
354,-37.109941,4.638743,-0.976577,0.128298,-0.164797,1.034318
355,-43.396658,9.094377,2.929732,0.086671,-0.035523,0.987564
356,-62.195773,13.794156,-6.958114,0.046998,0.125612,0.921523
357,-98.268101,17.944610,-21.179522,0.080568,0.106569,0.868910
358,-118.715190,7.995727,-17.273213,-0.187015,-0.101564,1.065446
359,-136.171511,-4.150454,-2.380407,-0.143801,0.142824,0.697887
360,-191.103990,-19.714656,-31.067369,0.091310,-0.018189,0.947768
361,-228.580148,-11.902037,-25.085832,-0.207034,0.202274,1.568750
362,-313.420310,-47.730220,-22.461280,-0.503059,0.091066,0.981949
363,-446.051728,-125.551232,-16.540780,-0.258793,-0.293950,1.102556
364,-529.365988,-169.985504,20.630198,0.062623,-0.157839,0.914809
365,-576.363775,-177.004654,34.363317,0.246708,-0.328862,1.341329
366,-618.783856,-171.450370,45.227741,0.203006,-0.363287,0.887343
367,-714.244297,-176.577401,78.858625,0.798230,-2.000031,1.999969
368,-542.305638,-112.733654,144.655528,-0.113893,-1.124163,1.999969
369,-55.603876,-45.654994,-30.945296,0.317266,-0.230472,1.999969
370,160.524910,16.357671,-51.575494,0.256718,0.969863,1.999969
371,91.615167,5.676356,-48.889906,-0.211429,0.624155,1.999969
372,46.143282,-24.170291,-28.015564,-0.215335,0.257939,1.623804
373,138.918135,0.976577,-32.776379,-0.205570,0.098390,0.928847
374,164.614328,18.432898,-33.813993,-0.208621,0.222538,0.271122
375,114.747845,25.207904,-27.527276,-0.176516,0.130007,0.200565
376,107.362478,35.889220,-24.353399,-0.171756,0.049073,0.313603
377,120.668345,39.490349,-22.583352,-0.140017,0.161624,0.435554
378,112.306401,30.884260,-17.883574,-0.138186,0.202152,0.725475
379,124.513619,21.240558,-14.282444,-0.122438,0.200443,1.029191
380,151.918822,19.348440,-13.183795,-0.104005,0.227420,1.195819
381,168.581674,24.048219,-12.085145,-0.101198,0.209842,1.331930
382,190.127413,33.813993,-11.108568,-0.115114,0.143557,1.389670
383,215.823606,43.884947,-9.338521,-0.148440,0.067140,1.298116
384,233.096819,51.575494,-4.455634,-0.166506,-0.008545,1.156756
385,243.839170,56.214237,2.868696,-0.161135,-0.073854,1.073381
386,251.224537,57.984283,10.376135,-0.095094,-0.110842,1.022843
387,254.337377,57.129778,15.564202,0.008301,-0.144045,1.063737
388,256.290532,55.237659,16.968032,0.143435,-0.164553,1.117205
389,259.464408,52.368963,11.841001,0.293462,-0.161624,1.215961
390,261.234455,52.613108,-0.183108,0.452033,-0.151858,1.390890
391,259.098192,57.679103,-17.212177,0.523934,-0.238163,1.482689
392,260.379950,66.163119,-36.377508,0.479011,-0.415412,1.425803
393,256.778820,75.135424,-50.476844,0.269413,-0.506600,1.483543
394,251.041428,80.262455,-55.664912,0.082033,-0.639414,1.447654
395,244.266423,81.788357,-53.162432,-0.040040,-0.688121,1.328634
396,233.401999,80.445563,-48.157473,-0.024292,-0.658946,1.269184
397,211.062791,82.459754,-44.190127,-0.035523,-0.623178,1.480125
398,196.108949,86.243992,-38.818952,-0.034424,-0.620981,1.712184
399,192.141604,89.051652,-34.790570,-0.021607,-0.603647,1.999969
400,194.216831,89.662013,-31.311513,0.019409,-0.645762,1.999969
401,213.931487,94.789044,-29.785611,0.093507,-0.711192,1.999969
402,231.387808,104.005493,-29.785611,0.176883,-0.737194,1.830106
403,226.260777,111.696040,-28.442817,0.203738,-0.770642,1.430198
404,211.184863,114.137484,-27.161059,0.242679,-0.762585,1.242206
405,190.249485,114.015412,-27.466239,0.305058,-0.778698,1.247578
406,173.220417,114.381628,-30.334936,0.350347,-0.820081,1.285542
407,161.440452,111.879149,-34.668498,0.365606,-0.902846,1.324483
408,149.965667,102.296483,-38.269627,0.337774,-1.080583,1.342428
409,144.533455,89.234760,-41.199359,0.365240,-1.361593,1.277119
410,135.133898,80.872816,-44.373236,0.398199,-1.750515,1.222553
411,122.560464,82.642863,-45.166705,0.393072,-2.000031,0.919814
412,121.461814,88.380255,-40.772107,0.315679,-2.000031,0.137942
413,98.939498,71.900511,-21.911955,0.154421,-2.000031,-0.718151
414,32.166018,14.831769,11.963073,0.013550,-1.764187,-0.954238
415,-33.691920,-52.796216,45.471885,-0.027222,-1.419821,-0.312749
416,-70.008392,-90.821698,70.496681,-0.002319,-1.066667,0.503426
417,-127.504387,-133.058671,64.087892,0.369757,-1.354635,-0.647105
418,-197.695888,-141.481651,75.684749,0.418463,-0.163455,1.202045
419,-115.968566,-137.819486,40.650034,0.345830,0.172366,1.829007
420,-69.398032,-125.612268,24.841688,0.041260,1.211200,1.999969
421,-136.903944,-86.549172,28.747997,-0.040650,0.574472,0.409186
422,-226.321813,-93.629358,36.438544,0.342290,-0.081910,-0.313603
423,-236.697948,-81.116960,35.523003,0.428840,-0.318120,0.811780
424,-239.139391,-56.763561,35.523003,0.746349,0.097292,1.999969
425,-218.448157,-41.687648,11.841001,0.835096,-0.263676,1.999969
426,-121.705959,6.652934,-1.281758,-0.380743,-0.409552,1.901518
427,-133.913176,-29.175250,29.114214,-1.060319,-0.328252,1.999969
428,-67.078660,-52.124819,42.175937,-0.404791,-0.264775,1.274556
429,-28.381781,-65.064469,38.269627,1.062150,0.467048,1.761868
430,-58.533608,-24.353399,14.343481,1.076432,0.002930,1.816556
431,-22.583352,23.010605,1.892119,-0.391363,-0.005249,1.070939
432,-31.799802,-4.394598,7.263294,-0.413947,0.003296,0.727428
433,-33.447776,-22.034028,7.263294,0.256840,0.127932,1.217182
434,-31.128405,-8.239872,-0.610361,0.116823,0.036988,1.195575
435,-23.865110,-5.615320,-2.136263,-0.211063,-0.008179,0.979995
436,-21.789883,-12.939651,-0.732433,0.052125,0.059693,1.127947
437,-24.963760,-3.723201,1.037613,0.127443,-0.023194,1.184710
438,-14.526589,7.080186,1.831083,-0.041382,0.011231,1.072892
439,-16.174563,8.117800,3.601129,-0.019654,0.014771,1.040787
440,-11.779965,10.009918,3.234913,-0.016846,0.048463,0.980850
441,-15.991455,9.338521,3.234913,-0.044556,0.041138,1.020401
442,-14.587625,9.216449,2.807660,-0.010620,0.003662,1.053605
443,-10.498207,10.437171,2.075227,-0.037598,0.017700,1.012589
444,-10.681315,9.216449,2.441444,-0.046632,0.001709,1.012222
445,-8.117800,8.178836,2.075227,-0.047730,-0.001953,1.050187
446,-4.882887,8.178836,1.892119,-0.047608,0.012940,1.016495
447,-4.638743,7.507439,2.014191,-0.056153,0.012696,0.994644
448,-5.065995,6.652934,2.075227,-0.045167,0.025269,0.973648
449,-5.432212,6.042573,2.014191,-0.065919,0.026246,0.970596
450,-6.225681,4.211490,1.709010,-0.076051,0.020020,0.943496
451,-7.629511,2.502480,1.464866,-0.029175,0.026246,0.994766
452,-7.507439,2.990768,0.793469,-0.072755,0.018555,0.974136
453,-7.934691,1.464866,1.037613,-0.066163,0.022827,0.961929
454,-10.009918,0.427253,1.403830,-0.055909,0.014038,0.985611
455,-10.498207,0.122072,1.892119,-0.082887,0.004639,0.971572
456,-10.925460,-1.831083,2.197299,-0.068482,0.000732,0.980850
457,-10.559243,-3.295949,2.380407,-0.066407,0.004639,0.983169
458,-10.925460,-4.882887,2.258335,-0.074098,0.004517,0.979629
459,-11.779965,-7.202258,2.441444,-0.080690,-0.003540,0.957046
460,-11.657893,-9.948882,2.319371,-0.054200,0.002686,0.979385
461,-13.305867,-11.413748,2.014191,-0.046876,-0.012451,0.992447
462,-12.390326,-12.451362,1.586938,-0.065431,-0.006714,0.962051
463,-14.892805,-12.512398,-0.854505,0.014038,-0.183474,0.792370
464,-10.070954,-15.625238,0.427253,-0.123903,0.027955,1.074968
465,-15.014878,-19.409476,0.427253,-0.041993,-0.017945,0.958022
466,-11.535821,-19.592584,-0.427253,-0.051759,-0.014405,0.969986
467,-11.108568,-18.616007,-4.638743,-0.013550,-0.084474,0.868421
468,-13.550011,-19.226368,-1.525902,-0.019776,0.006714,1.033951
469,-17.395285,-17.639429,-0.488289,-0.025757,-0.009644,1.082780
470,-14.282444,-14.648661,-0.488289,0.050050,-0.037598,1.037125
471,-13.794156,-9.094377,0.183108,0.008545,-0.022095,1.015152
472,-16.784924,-6.286717,1.098650,0.019409,-0.028809,1.043839
473,-17.151141,-2.929732,2.197299,-0.000244,-0.052979,1.042008
474,-13.000687,1.953155,-0.427253,0.015259,-0.334600,0.753307
475,-12.817578,0.793469,2.441444,0.006104,-0.005249,1.020279
476,-18.371862,0.732433,4.150454,-0.031983,-0.022217,1.035904
477,-16.296635,0.183108,3.234913,-0.047120,-0.030030,0.956191
478,-18.371862,-2.136263,2.685588,-0.029175,-0.032715,0.996231
479,-18.310826,-3.540093,2.258335,-0.034058,-0.045533,0.993301
480,-17.944610,-4.882887,2.014191,-0.023316,-0.036133,0.984756
481,-19.714656,-5.676356,1.709010,-0.020264,-0.052125,0.992691
482,-18.616007,-6.042573,2.014191,-0.017700,-0.028077,0.986587
483,-22.644388,-6.408789,2.563516,-0.005982,-0.050904,0.971206
484,-27.527276,-6.652934,3.418021,-0.025635,-0.059205,0.980728
485,-25.879301,-6.164645,2.685588,-0.001221,-0.044190,0.984634
486,-28.809033,-5.920500,2.685588,-0.019898,-0.054200,1.006607
487,-29.419394,-5.554284,1.709010,-0.006714,-0.072023,1.004898
488,-29.663539,-5.188067,2.075227,-0.022950,-0.082399,1.014908
489,-28.564889,-4.394598,3.234913,-0.037842,-0.077516,0.991348
490,-29.968719,-3.662165,4.455634,0.043336,-0.082887,1.015763
491,-31.982910,-1.770047,6.042573,-0.052491,-0.083864,0.982803
492,-28.870069,-0.915541,6.469825,0.032349,-0.105348,0.963516
493,-26.062409,1.770047,7.263294,0.030762,-0.144900,0.904433
494,-31.494621,-2.258335,3.356985,-0.074708,-0.082277,1.005386
495,-34.302281,-4.272526,1.342794,-0.018067,-0.080568,0.995254
496,-35.706111,-5.615320,0.183108,-0.070436,-0.082643,1.010758
497,-34.668498,-9.338521,-2.014191,-0.071046,-0.088258,1.002945
498,-45.166705,-15.136950,-16.296635,-0.084596,-0.120729,1.021378
499,-52.918288,-19.714656,-16.418708,0.057130,-0.150149,0.994766
500,-29.175250,-5.432212,-11.841001,0.056031,-0.149416,0.988296
501,-29.663539,-8.178836,-14.282444,0.020630,-0.043214,1.011978
502,-50.904097,-10.437171,-13.488975,0.028931,-0.126589,1.008194
503,-64.698253,-10.009918,-10.559243,0.012329,-0.099001,0.960708
504,-79.774166,-10.559243,-13.672084,0.001465,-0.097536,1.001724
505,-76.478218,-11.963073,-18.005646,0.024414,0.159792,0.856214
506,-124.269474,-14.099336,-23.071641,0.105226,0.066285,0.898939
507,-161.440452,-0.732433,-2.868696,0.165896,0.326299,0.950698
508,-242.679484,7.324331,-28.503853,0.096315,0.651987,1.156756
509,-405.035477,11.535821,-26.184482,0.120241,0.428351,1.350729
510,-555.794614,42.481117,15.747311,0.128908,0.445319,1.716945
511,-654.489967,55.115587,34.119173,0.154665,-0.201785,1.349386
512,-704.234379,38.513771,48.279545,-0.116457,-0.172244,0.952651
513,-799.755856,12.146181,69.520104,0.404547,-2.000031,1.868437
514,-776.684215,-27.405203,173.098344,-1.787503,-0.356817,1.999969
515,-81.910430,-132.814527,-8.056764,-0.616831,-0.842054,1.999969
516,243.961242,-108.522164,3.601129,-1.066178,0.690684,1.999969
517,63.660639,-88.380255,16.540780,-0.245243,0.764782,1.790921
518,-85.084306,-105.653468,82.337682,-0.135256,0.689586,1.371237
519,-1.586938,-56.275273,62.989242,0.195926,0.476570,1.243793
520,104.066529,-7.995727,14.160372,0.122194,0.558846,0.572519
521,59.327077,-8.789197,2.502480,0.148440,0.585458,0.459358
522,42.481117,-17.151141,-7.873655,0.046998,0.381598,0.813367
523,96.742199,-24.231327,-19.775692,-0.033814,0.447395,1.025406
524,116.395819,-40.039673,-23.926146,-0.036744,0.490486,1.139055
525,139.101244,-51.209277,-27.832456,-0.057374,0.404303,1.285054
526,180.239567,-50.659953,-34.302281,-0.074098,0.362432,1.195697
527,201.663233,-46.875715,-38.941024,-0.128176,0.289311,1.053483
528,214.724956,-41.016251,-40.833143,-0.210330,0.159182,1.018570
529,232.913710,-32.593271,-40.772107,-0.280522,0.063966,1.007340
530,244.510567,-25.268940,-36.865797,-0.362799,-0.022339,0.990982
531,253.421836,-18.188754,-29.541466,-0.418219,-0.102785,1.058366
532,263.981079,-10.986496,-20.141909,-0.424201,-0.147097,1.137224
533,274.296178,-7.141222,-10.315099,-0.376593,-0.173831,1.183368
534,283.268483,-4.699779,-2.929732,-0.277470,-0.180056,1.283955
535,289.616236,0.244144,-1.220722,-0.132570,-0.246464,1.336812
536,294.743267,10.864424,-7.385367,0.014038,-0.359014,1.101579
537,289.433127,28.381781,-21.179522,0.114015,-0.488167,0.783337
538,263.553826,47.730220,-31.860838,0.120363,-0.528573,0.704601
539,231.082628,54.505226,-37.903410,0.037720,-0.521370,0.899428
540,212.954910,49.805447,-41.260395,-0.055909,-0.469490,1.266743
541,201.846342,46.326390,-40.283818,-0.142458,-0.383917,1.913848
542,200.930800,50.232700,-35.828183,-0.180423,-0.414679,1.999969
543,226.321813,61.951629,-31.433585,-0.148928,-0.487190,1.999969
544,255.924315,70.130465,-28.259709,-0.140505,-0.536873,1.999969
545,262.516213,68.848707,-20.935378,-0.128908,-0.584604,1.999969
546,270.084688,61.463340,-14.648661,-0.012207,-0.657603,1.999969
547,280.582895,58.777752,-13.061723,0.119753,-0.662974,1.851957
548,274.723430,59.205005,-13.977264,0.177249,-0.655528,1.680934
549,264.774548,58.228428,-16.357671,0.155398,-0.653941,1.627710
550,255.191882,55.481804,-18.249790,0.083742,-0.662730,1.681788
551,246.097505,54.383154,-19.104295,0.033814,-0.705943,1.696071
552,237.918669,59.937438,-21.240558,0.062135,-0.769543,1.616968
553,223.880369,72.755016,-23.926146,0.091432,-0.914565,1.410300
554,204.470893,82.948043,-25.757229,0.098512,-1.115007,1.220111
555,178.347448,89.234760,-23.865110,0.145754,-1.407126,1.088151
556,146.791791,91.737240,-18.738079,0.333623,-1.839994,1.027970
557,107.972839,92.347601,-13.122759,0.607675,-2.000031,0.852552
558,89.112688,96.009766,-6.347753,0.796155,-2.000031,0.273564
559,80.933852,86.610208,-4.760815,0.758923,-2.000031,-0.526619
560,22.644388,21.057450,8.728161,0.710460,-2.000031,-0.916030
561,-51.636530,-63.172351,27.405203,0.582895,-1.563622,0.057862
562,-75.623713,-104.432746,34.668498,0.389532,-1.140764,1.024186
563,-71.168078,-106.630045,23.254749,0.577646,-1.287007,-1.554345
564,-170.717937,-57.068742,19.714656,-0.223026,0.036866,1.110735
565,-140.077821,-62.806134,8.056764,-0.580819,-0.195804,1.372946
566,-89.478904,-40.650034,12.512398,-0.437507,0.788708,1.515282
567,-134.889754,-44.495308,17.212177,-0.682017,0.575204,0.593271
568,-226.565957,-72.938125,42.542153,-0.438117,-0.061646,0.287602
569,-250.125887,-75.806821,59.510185,0.217411,-0.250858,1.272236
570,-214.908064,-46.936751,56.885634,0.911879,0.011841,1.999969
571,-175.906004,-23.376822,34.668498,1.278950,-0.012207,1.999969
572,-137.392233,-5.004959,2.929732,0.996353,0.064210,1.782620
573,-127.260243,23.559930,-14.770733,0.109865,0.066773,1.495140
574,-136.659800,34.729534,-7.751583,-0.725719,-0.180179,1.544579
575,-127.260243,12.024109,25.391012,-1.179706,-0.109865,1.808133
576,-97.901884,-39.612421,43.335622,-0.528817,-0.294560,1.297993
577,-61.097124,-66.163119,32.959487,0.582528,0.318608,1.999969
578,-59.266041,-46.631571,16.784924,0.842786,0.117067,1.725734
579,-38.696880,-3.845274,4.943923,-0.203616,0.032227,1.129778
580,-52.307927,-24.170291,10.620279,-0.355352,0.039063,1.108782
581,-39.246204,-35.400931,2.014191,0.356573,0.050782,1.241108
582,-36.072328,-14.709697,-1.892119,0.152956,0.004639,1.167254
583,-33.386740,-10.193027,0.671397,-0.157961,0.021729,1.084367
584,-27.588312,-13.550011,1.220722,0.057740,0.030762,1.155291
585,-21.850919,-5.432212,0.000000,0.068849,-0.016358,1.096086
586,-15.869383,0.183108,1.037613,-0.011719,0.027832,1.100725
587,-14.221408,0.305180,1.525902,-0.001465,0.042725,1.029801
588,-13.122759,0.915541,1.159686,0.014160,0.022705,1.042374
589,-11.779965,1.281758,1.342794,-0.023194,-0.003418,1.023819
590,-7.080186,-0.244144,1.586938,-0.004150,0.018677,1.036515
591,-6.591897,-1.098650,1.464866,-0.003540,0.017090,1.021744
592,-4.760815,-1.709010,0.854505,-0.040284,0.017090,0.991226
593,-4.760815,-4.150454,0.671397,-0.032227,0.031128,0.989883
594,-5.859464,-5.004959,0.244144,-0.084108,0.108766,1.068742
595,-6.591897,-7.324331,1.525902,-0.011719,0.089845,0.924575
596,-12.878614,-7.507439,0.854505,-0.014649,0.006592,0.956680
597,-11.779965,-7.690547,0.671397,-0.005493,0.021241,0.999039
598,-12.939651,-7.385367,0.915541,-0.000855,0.029053,0.983047
599,-15.197986,-6.103609,1.525902,0.007813,0.025757,1.014298
600,-14.343481,-3.662165,-0.732433,0.000855,-0.159304,0.839979
601,-11.963073,-4.150454,1.037613,0.002808,0.035645,1.055192
602,-13.733120,-3.418021,1.709010,-0.013306,0.012573,1.009537
603,-11.718929,-3.479057,1.159686,-0.013428,0.006714,0.982437
604,-12.390326,-3.723201,0.915541,-0.008667,0.023804,0.963516
605,-15.014878,-5.065995,0.671397,-0.025513,0.018555,0.952529
606,-18.738079,-7.019150,0.488289,-0.014771,-0.008057,0.991714
607,-17.883574,-7.507439,0.183108,-0.004883,-0.008545,0.997574
608,-17.029068,-6.713970,-2.258335,0.018677,-0.218753,0.803723
609,-14.404517,-8.056764,-0.549325,0.014282,-0.010010,1.062882
610,-13.672084,-7.263294,0.427253,0.004395,-0.032593,1.048722
611,-9.765774,-5.798428,0.366217,0.021118,-0.087404,1.022599
612,-5.981537,-4.028382,0.549325,0.027222,-0.030274,1.036271
613,-4.638743,-2.868696,0.427253,0.021241,-0.065064,1.003555
614,-4.394598,-2.197299,0.915541,0.017212,-0.016480,1.006851
615,-5.615320,-1.892119,0.549325,-0.004028,-0.015015,0.991958
616,-5.920500,-1.770047,1.098650,0.016480,0.031495,1.038956
617,-5.859464,-1.037613,1.770047,0.013306,0.023926,1.022599
618,-6.286717,-0.793469,2.014191,0.010376,0.020874,0.996597
619,-7.873655,-1.464866,2.014191,-0.007446,0.020874,0.982803
620,-8.300908,-2.197299,1.770047,0.003662,-0.015503,0.978897
621,-10.315099,-2.929732,1.525902,0.007324,-0.007080,1.018692
622,-9.765774,-2.319371,1.586938,0.006836,-0.011353,0.989761
623,-11.596857,-2.136263,2.014191,-0.005127,0.026368,1.005631
624,-12.085145,-2.258335,2.136263,0.000244,-0.026123,0.955581
625,-15.075914,-2.868696,2.075227,-0.005615,0.012329,0.960830
626,-20.019837,-3.662165,2.380407,0.005982,-0.024170,0.975479
627,-22.461280,-3.173877,2.807660,0.024659,-0.019654,0.984756
628,-27.466239,-1.831083,3.906310,0.014893,-0.035401,0.987686
629,-29.846647,-1.525902,5.371176,0.026246,-0.026734,1.004898
630,-32.776379,-0.305180,5.615320,-0.018189,-0.044312,0.989883
631,-31.433585,-1.647974,5.065995,-0.012207,-0.048951,0.996475
632,-28.381781,-2.746624,3.601129,-0.005737,-0.036500,0.985122
633,-29.114214,-3.173877,2.380407,0.021729,-0.005005,0.982437
634,-35.461967,-2.380407,1.709010,0.006348,-0.019409,1.019547
635,-39.734493,-3.479057,0.915541,-0.031373,-0.033814,0.958633
636,-40.344854,-4.211490,0.122072,0.048585,-0.020264,1.005264
637,-51.087205,-1.464866,1.892119,-0.002564,-0.078126,1.007828
638,-47.364004,-0.610361,1.892119,-0.000610,-0.064454,1.143816
639,-44.373236,3.723201,0.976577,-0.017823,-0.100221,1.002579
640,-36.316472,6.408789,3.356985,0.037720,-0.162112,0.864271
641,-39.978637,2.868696,-1.281758,-0.084230,-0.098268,1.065080
642,-60.608835,-8.056764,-12.756542,-0.101442,-0.080934,1.104143
643,-23.010605,5.065995,-15.808347,0.192508,-0.515389,0.586557
644,-34.546426,-1.403830,-15.014878,0.114626,-0.304448,1.114641
645,-27.161059,0.915541,-5.493248,0.035157,-0.132204,1.012222
646,-40.711070,-0.061036,-7.751583,0.056397,-0.007813,1.000504
647,-59.143969,3.356985,-12.085145,-0.015137,0.214603,0.838025
648,-106.324865,3.418021,-18.005646,0.115114,0.432136,0.692760
649,-150.331884,10.009918,-9.521630,-0.080079,0.397589,0.725841
650,-219.058518,6.042573,-14.709697,-0.050538,-0.141848,0.989395
651,-235.965515,-5.859464,8.850233,0.142947,0.789197,0.898329
652,-389.288167,-17.578393,-27.649348,-0.074708,0.365728,1.617334
653,-555.611505,-40.344854,17.090105,-0.297612,-0.143313,1.505028
654,-599.435416,-72.510872,15.197986,-0.003784,-0.271611,0.990372
655,-638.559548,-77.759976,25.452049,-0.018921,-0.405646,0.883070
656,-692.820630,-98.146029,27.283131,-0.069215,-0.406744,0.717662
657,-754.711223,-112.855726,44.007019,0.346685,-2.000031,1.491600
658,-763.134203,-87.342641,150.881209,-0.931655,-1.013199,1.999969
659,-219.058518,-73.182269,-5.188067,-0.262333,-0.937758,1.999969
660,66.834516,-60.669871,-12.939651,-0.220829,0.694469,1.999969
661,-26.245518,-43.335622,-12.695506,-0.113405,0.744274,1.999969
662,-65.247578,-57.557031,23.926146,-0.209842,0.572763,1.999969
663,91.493095,-13.244831,14.221408,-0.163210,0.401129,1.999969
664,200.869764,15.625238,0.854505,-0.167483,0.479988,1.423117
665,178.225376,15.197986,2.990768,-0.073121,0.295048,0.916518
666,183.840696,21.301595,3.356985,-0.039063,0.080568,0.716442
667,216.372931,26.733806,-2.624552,0.014282,0.055177,0.422248
668,211.245899,22.095064,-4.272526,0.046143,0.041627,0.291752
669,197.451743,13.427939,-4.516670,0.029297,-0.043091,0.447395
670,206.179904,5.004959,-6.958114,0.039918,-0.054810,0.613413
671,217.105364,-4.394598,-10.070954,0.039063,-0.014160,0.724132
672,220.279240,-9.948882,-12.207218,0.021363,0.005737,0.897597
673,228.091859,-7.934691,-16.296635,0.040406,-0.054688,0.980728
674,238.956283,-1.647974,-19.348440,0.046754,-0.052613,1.083268
675,246.768902,3.723201,-20.996414,0.085573,-0.029664,1.244282
676,255.741207,8.484016,-23.620966,0.157473,-0.094850,1.297139
677,264.408331,14.282444,-33.386740,0.390997,-0.213016,1.393088
678,276.066224,32.288090,-49.805447,0.335698,-0.363775,1.435813
679,289.738308,47.486076,-61.829557,0.258183,-0.430793,1.317281
680,284.428168,49.439231,-65.430686,0.165164,-0.513069,1.282490
681,281.254292,46.631571,-64.637217,0.097292,-0.600107,1.286519
682,278.934920,42.053864,-61.585412,0.017700,-0.642344,1.263691
683,272.343023,38.086519,-55.481804,-0.069825,-0.658335,1.245014
684,263.309682,34.973678,-47.730220,-0.077394,-0.625132,1.313497
685,253.604944,36.377508,-40.894179,-0.091188,-0.587900,1.392844
686,245.304036,43.701839,-35.828183,-0.060914,-0.551644,1.484886
687,234.866865,55.725948,-31.799802,-0.043946,-0.525399,1.607446
688,227.115282,66.834516,-27.222095,-0.015503,-0.508553,1.718654
689,224.063478,71.839475,-22.400244,0.033448,-0.507088,1.808988
690,223.392081,70.496681,-18.371862,0.107790,-0.480354,1.922271
691,224.856947,66.590372,-17.395285,0.222538,-0.489631,1.994049
692,228.213931,64.087892,-21.118486,0.318853,-0.511849,1.999969
693,230.777447,63.721675,-28.809033,0.387457,-0.565927,1.999969
694,233.279927,65.369650,-39.002060,0.403449,-0.646738,1.972564
695,232.608530,65.308614,-49.561303,0.346685,-0.759533,1.810575
696,227.847715,63.721675,-59.021897,0.258183,-0.873915,1.588037
697,211.917296,65.552758,-67.200732,0.307988,-1.088029,1.507591
698,183.657588,76.539254,-75.623713,0.461799,-1.480858,1.542992
699,151.247425,96.864271,-91.981384,0.773938,-2.000031,1.895903
700,139.467460,156.801709,-100.892653,0.844617,-2.000031,1.907866
701,179.507134,230.777447,-113.160906,0.622690,-2.000031,0.594614
702,204.409857,231.082628,-93.507286,0.373053,-2.000031,-1.447288
703,105.409323,110.963607,-54.566262,0.228275,-2.000031,-2.000031
704,-24.536507,-64.087892,-5.065995,0.124392,-2.000031,-2.000031
705,-177.248798,-251.956970,19.958801,1.072770,-1.488426,-1.005020
706,-248.844129,-284.855421,-1.953155,1.060929,-0.767956,1.999969
707,-120.973526,-188.784619,-26.672770,-0.136110,0.286259,1.999969
708,-68.726635,-152.101930,-26.855879,-0.843641,0.870741,1.999969
709,-79.957275,-95.460441,-13.000687,-1.256245,0.143801,0.444587
710,-131.410697,-48.218509,30.823224,-1.116228,0.050416,-1.621241
711,-270.328832,-103.334096,58.655680,-0.101686,0.076661,-0.147951
712,-364.019226,-79.591058,80.445563,0.895277,-0.199954,1.999969
713,-261.661707,-56.763561,47.669184,1.659815,-0.277348,1.999969
714,-139.772641,11.902037,-3.418021,1.128923,-0.097658,1.999969
715,-152.346075,40.161746,0.915541,-1.148455,0.107790,1.999969
716,-175.600824,-22.583352,28.564889,-1.376730,-1.199969,1.999969
717,-2.624552,-69.031815,25.696193,0.171878,-0.290776,1.962554
718,-22.583352,-48.950942,25.757229,1.657984,0.616709,1.999969
719,-36.316472,26.428626,1.525902,0.564218,0.087892,1.242084
720,-32.410163,37.781338,-1.831083,-0.963638,-0.183352,0.894911
721,-25.940337,-5.737392,13.733120,-0.270390,-0.011475,0.854261
722,-19.348440,-12.939651,7.568475,0.321904,0.247807,1.099626
723,-35.278859,-1.831083,3.234913,-0.140505,-0.003662,1.004532
724,-27.649348,-9.643702,5.065995,-0.275151,-0.081422,1.069352
725,-17.639429,-16.174563,5.798428,0.064332,0.031617,1.142229
726,-16.052491,-7.995727,4.821851,0.060426,0.061402,1.064958
727,-19.348440,-2.807660,5.920500,-0.083497,0.017700,1.029313
728,-17.700465,-3.173877,6.469825,-0.034668,0.031250,1.023209
729,-17.151141,-1.892119,6.042573,-0.023682,0.050294,0.965225
730,-20.996414,-1.220722,5.920500,-0.026978,0.041505,1.030289
731,-20.752270,-0.366217,5.249104,-0.067262,-0.003052,1.023575
732,-16.601816,-1.403830,4.943923,-0.053956,-0.007446,1.016617
733,-14.160372,-2.746624,4.699779,-0.072877,-0.000366,1.004410
734,-12.817578,-5.920500,4.211490,-0.122438,-0.011597,0.968887
735,-11.169604,-11.352712,3.784237,-0.094240,-0.002197,1.013687
736,-8.606088,-13.427939,2.502480,-0.066041,0.011475,1.003311
737,-9.826810,-14.160372,1.525902,-0.039307,-0.017700,1.029313
738,-5.981537,-13.916228,0.671397,-0.053223,0.009522,1.014664
739,-7.995727,-13.366903,0.427253,-0.021241,0.003662,1.031266
740,-6.897078,-11.779965,0.244144,-0.030762,-0.013306,1.048478
741,-4.882887,-9.948882,0.183108,-0.022095,-0.009033,1.035538
742,-4.272526,-7.812619,0.366217,-0.018067,-0.011109,1.059220
743,-3.234913,-5.310140,0.671397,-0.012085,-0.023194,1.056413
744,-0.061036,-2.990768,0.732433,-0.036011,-0.008545,1.008804
745,-0.976577,-3.112840,1.159686,-0.040894,-0.003540,0.997086
746,0.610361,-4.150454,0.671397,-0.053223,0.002319,0.979629
747,0.244144,-6.286717,0.122072,-0.068360,0.012085,0.922744
748,-3.967346,-9.582666,0.122072,-0.045899,0.002075,0.967422
749,-2.746624,-10.803388,-0.427253,-0.046998,-0.007568,0.971084
750,-2.563516,-12.268254,-0.305180,-0.050294,-0.012818,0.989883
751,-1.586938,-11.718929,-0.793469,-0.054810,0.116457,1.306416
752,4.516670,-12.268254,-0.610361,-0.079225,-0.016968,0.859266
753,-5.127031,-17.456321,0.427253,-0.042603,-0.000244,0.884169
754,-2.990768,-19.165332,0.122072,-0.046021,0.036255,1.012711
755,-7.812619,-20.141909,0.000000,-0.013794,-0.005737,1.022232
756,-5.859464,-15.991455,-4.089418,0.092287,-0.309453,0.659190
757,-0.122072,-16.235599,-1.831083,-0.027710,0.033814,1.167254
758,-5.554284,-16.235599,0.549325,-0.008667,0.000000,0.930556
759,-5.188067,-16.052491,0.244144,-0.005859,-0.000977,0.986587
760,-7.568475,-15.197986,1.220722,0.002564,-0.006470,1.053971
761,-6.836042,-13.366903,1.342794,-0.001587,-0.016602,1.010880
762,-6.225681,-12.817578,1.220722,0.025025,0.018921,1.025040
763,-7.507439,-8.484016,-2.258335,0.176516,-0.283085,0.499519
764,-6.103609,-9.887846,-0.427253,0.006470,0.025635,1.157488
765,-10.742351,-9.094377,0.915541,0.015259,-0.007813,0.940932
766,-11.108568,-9.155413,1.220722,0.025147,-0.012818,0.972427
767,-12.451362,-8.728161,2.075227,0.014405,0.003662,0.982803
768,-16.174563,-8.911269,2.136263,0.009888,-0.006470,0.961563
769,-20.508125,-9.094377,3.234913,0.020508,-0.024659,0.980117
770,-22.156100,-7.934691,3.906310,0.021363,-0.020630,0.962539
771,-24.963760,-7.934691,5.065995,0.021485,-0.004395,0.955947
772,-30.945296,-8.606088,5.432212,0.006958,-0.026734,0.981949
773,-31.677729,-8.667124,5.127031,0.031983,-0.061891,1.002213
774,-31.311513,-7.385367,5.371176,0.036378,-0.056153,1.039200
775,-28.686961,-5.188067,4.943923,0.024903,-0.067628,1.031510
776,-26.672770,-3.601129,4.760815,0.030030,-0.053223,1.007218
777,-27.466239,-3.173877,4.943923,0.000122,-0.044312,0.999649
778,-29.358358,-4.577707,5.432212,0.006470,-0.043214,1.025406
779,-25.268940,-5.188067,3.784237,-0.005615,-0.014160,0.967910
780,-31.189441,-7.324331,2.502480,0.003906,0.000000,0.959243
781,-37.415122,-7.385367,1.098650,0.072877,0.014527,0.943984
782,-49.866484,-6.225681,0.305180,-0.049683,-0.016724,0.954116
783,-53.955901,-8.728161,1.220722,0.069581,-0.051637,1.019181
784,-57.984283,-5.065995,2.258335,-0.009155,-0.105470,1.017960
785,-57.373922,-1.220722,2.319371,0.054200,-0.109010,1.044694
786,-49.256123,2.075227,2.685588,-0.110842,-0.206546,1.099016
787,-42.114900,3.845274,1.403830,-0.003784,-0.100343,0.949233
788,-42.359045,5.310140,0.427253,-0.154055,0.121462,1.442649
789,-58.411536,-8.239872,-22.949569,-0.119142,-0.137697,1.041276
790,-56.092164,-7.385367,-17.761501,0.096559,-0.252811,1.042863
791,-56.458381,-6.042573,-4.882887,0.147463,-0.185306,1.099870
792,-54.322118,-2.563516,-7.995727,0.036133,-0.018067,0.963638
793,-70.435645,-1.953155,-20.386053,0.017945,0.257572,0.842542
794,-133.302815,3.723201,-22.461280,0.130983,0.245731,0.867079
795,-165.407797,13.488975,-14.709697,-0.061280,0.145998,0.941421
796,-194.583047,-14.587625,-11.047532,-0.280400,0.081544,0.889052
797,-269.352255,-23.865110,-17.395285,-0.018311,0.910780,1.162982
798,-475.226978,-37.720302,-4.028382,-0.110719,0.013428,1.275410
799,-606.881819,-106.874189,57.007706,-0.424323,-0.074220,1.822049
800,-643.686580,-152.162966,45.838102,0.054932,-0.536385,1.002457
801,-678.721294,-170.534829,59.388113,-0.059815,-0.308232,0.579965
802,-740.794995,-192.446784,68.848707,0.141726,-0.593515,0.860853
803,-864.271000,-212.710765,138.735027,0.206912,-2.000031,1.999969
804,-482.063020,-146.364538,99.488823,-0.702647,-0.274784,1.999969
805,28.442817,-132.204166,-10.803388,0.148196,0.493782,1.999969
806,92.591745,-54.261082,-32.166018,0.217777,1.458518,1.999969
807,13.916228,-26.489662,-10.498207,-0.294926,1.202411,1.999969
808,54.383154,-9.704738,-13.550011,-0.370001,0.466560,1.999969
809,211.367971,34.668498,-19.409476,-0.511727,0.253544,1.653834
810,241.763943,37.170977,-10.376135,-0.489265,0.203250,0.701183
811,204.104677,30.212863,8.178836,-0.452522,0.019898,0.469978
812,210.635538,29.541466,20.935378,-0.408576,-0.125734,0.463142
813,225.894560,29.541466,29.541466,-0.299565,-0.089601,0.427131
814,217.166400,27.222095,36.133364,-0.161990,-0.077394,0.554940
815,218.020905,26.794842,38.269627,-0.050050,-0.071778,0.773571
816,232.791638,25.085832,34.302281,0.093385,-0.009155,0.957168
817,243.289845,23.804074,26.977951,0.213748,0.010498,1.075456
818,255.191882,25.940337,16.662852,0.252934,0.011353,1.155291
819,269.779507,31.372549,2.685588,0.268925,-0.067018,1.058488
820,278.995956,35.828183,-9.277485,0.339483,-0.070314,1.061418
821,277.347982,38.330663,-21.667811,0.454597,-0.105226,1.162982
822,279.606317,44.861524,-37.232013,0.557382,-0.192996,1.350484
823,284.428168,52.857252,-52.674144,0.463020,-0.341558,1.429343
824,292.973220,51.758602,-62.806134,0.340459,-0.496956,1.430930
825,296.757458,46.387427,-65.430686,0.228031,-0.608042,1.415427
826,293.095293,41.870756,-62.623026,0.149294,-0.711315,1.386496
827,288.395514,41.016251,-57.740139,0.128298,-0.751110,1.354025
828,279.179065,42.114900,-52.307927,0.069581,-0.764050,1.343404
829,268.253605,41.260395,-44.861524,-0.025147,-0.758312,1.346578
830,259.708553,37.537194,-35.584039,-0.117556,-0.729137,1.339742
831,248.966201,37.598230,-25.329976,-0.134768,-0.676036,1.347311
832,234.744793,43.518730,-15.869383,-0.125368,-0.602426,1.414939
833,221.011673,49.805447,-7.629511,-0.106203,-0.550546,1.537743
834,212.649729,51.392386,-0.976577,-0.063233,-0.515755,1.718898
835,208.255131,47.180896,3.356985,-0.015503,-0.522103,1.926421
836,210.330358,41.748684,4.699779,0.054322,-0.547250,1.999969
837,218.448157,42.908370,1.464866,0.119020,-0.599863,1.999969
838,227.786679,53.589685,-5.371176,0.189334,-0.685679,1.999969
839,233.707179,72.571908,-13.183795,0.279423,-0.802991,1.999969
840,235.477226,89.478904,-21.057450,0.249027,-0.967666,1.730373
841,224.856947,92.408637,-24.841688,0.246098,-1.209003,1.446433
842,197.878996,95.948730,-27.466239,0.500618,-1.568139,1.408835
843,161.074235,106.507973,-38.635843,0.840711,-2.000031,1.594141
844,141.359579,144.655528,-51.758602,1.048844,-2.000031,1.643824
845,162.661173,201.297017,-79.591058,0.947036,-2.000031,0.563851
846,183.413443,203.555352,-79.530022,0.670787,-2.000031,-1.396506
847,86.854353,94.422828,-56.763561,0.420294,-2.000031,-2.000031
848,-77.821012,-80.079347,-23.132677,0.234867,-2.000031,-2.000031
849,-243.289845,-258.548867,10.742351,1.184710,-1.459373,-1.147234
850,-191.531243,-222.110323,-12.939651,0.514290,-0.063722,1.999969
851,-163.332570,-142.458228,-26.428626,-0.691417,0.966201,1.999969
852,-163.454643,-98.939498,-9.399557,-1.261982,0.655039,1.999969
853,-204.654002,-82.398718,21.545739,-1.377218,-0.262699,0.414679
854,-196.292058,-77.759976,44.495308,-0.961929,-0.428107,-0.113283
855,-241.947051,-80.689708,75.074388,0.268559,-0.122560,1.640772
856,-264.652476,-63.660639,81.177996,1.650904,0.036744,1.999969
857,-137.575341,-31.250477,26.001373,1.999969,0.027588,1.999969
858,-109.987030,18.677043,-16.968032,1.023087,0.213504,1.360739
859,-164.065003,49.561303,-8.300908,-1.147478,-0.069703,1.999969
860,-161.989776,-11.108568,25.452049,-2.000031,-1.026139,1.788235
861,-19.714656,-91.432059,38.818952,-0.128908,-0.060792,1.276875
862,-53.711757,-98.146029,22.034028,1.999969,0.432136,1.999969
863,-27.527276,9.460594,-0.915541,0.438727,-0.235355,1.174823
864,-25.207904,9.460594,1.159686,-1.158343,-0.099977,0.895521
865,-28.747997,-45.654994,6.713970,0.261234,0.088014,1.079850
866,-21.545739,-22.766461,-4.455634,0.457038,0.151614,1.328511
867,-31.677729,-4.699779,2.685588,-0.313725,-0.076417,1.020890
868,-13.366903,-20.996414,-0.244144,-0.050660,0.040650,1.022599
869,-14.526589,-18.310826,-0.427253,0.197269,0.072755,1.129168
870,-17.334249,-6.775006,1.342794,-0.052247,-0.017700,1.061295
871,-7.995727,-6.530861,0.183108,0.027955,0.099733,1.006119
872,-15.136950,-2.258335,0.793469,0.083619,0.075196,0.942275
873,-21.850919,1.037613,3.112840,-0.034913,0.008301,1.031754
874,-17.029068,-0.732433,2.380407,-0.003906,0.024414,1.040665
875,-18.432898,0.427253,2.807660,0.050172,0.016968,1.028580
876,-19.653620,2.502480,3.723201,-0.014771,0.001465,1.026139
877,-16.784924,1.403830,3.356985,-0.034546,0.037842,1.073625
878,-14.038300,-0.061036,3.784237,-0.004639,0.051637,0.974258
879,-15.259022,-0.732433,3.356985,-0.033570,-0.000488,0.993545
880,-12.817578,-2.075227,2.868696,-0.017334,0.008057,1.020401
881,-10.803388,-3.295949,2.014191,-0.036744,0.021851,0.958267
882,-13.244831,-5.859464,2.136263,-0.026734,0.004028,0.960464
883,-13.916228,-7.690547,2.258335,-0.010742,0.018555,0.980728
884,-13.794156,-9.094377,-0.427253,-0.063478,-0.057740,0.970474
885,-11.963073,-9.948882,1.831083,0.012940,0.025025,1.059586
886,-13.916228,-8.117800,2.502480,-0.007324,-0.005005,1.047135
887,-10.193027,-7.019150,1.831083,-0.004517,-0.035157,0.981338
888,-12.695506,-6.897078,2.075227,0.005493,0.000000,0.994278
889,-13.427939,-6.775006,2.014191,0.003052,-0.017945,0.949111
890,-15.136950,-7.812619,2.014191,-0.010620,-0.005982,1.005509
891,-15.564202,-8.911269,1.709010,-0.003174,-0.024292,1.015885
892,-13.794156,-8.972305,0.976577,0.001587,-0.030518,1.004532
893,-12.329290,-9.277485,0.671397,-0.006104,-0.014405,0.999161
894,-11.841001,-8.667124,-2.624552,-0.004517,-0.212528,0.775891
895,-12.756542,-11.657893,-0.610361,0.014527,-0.008911,1.014054
896,-14.892805,-12.085145,0.000000,0.009888,-0.022217,1.011124
897,-15.564202,-11.535821,-0.488289,0.022339,-0.050782,0.972305
898,-15.869383,-10.925460,0.122072,0.035523,-0.043580,1.029557
899,-13.488975,-9.094377,0.000000,0.036133,-0.056764,1.051286
900,-13.733120,-7.812619,0.671397,0.047730,-0.049073,1.057755
901,-11.047532,-5.737392,0.976577,0.028077,-0.017823,1.048966
902,-9.521630,-4.333562,1.525902,0.026001,-0.060548,0.985367
903,-9.582666,-3.906310,1.892119,0.019898,-0.046754,0.984756
904,-11.963073,-3.967346,2.075227,0.013428,-0.012329,0.985245
905,-15.014878,-4.516670,2.014191,0.019409,-0.029297,0.966690
906,-17.395285,-5.493248,1.525902,0.009644,-0.032227,0.967422
907,-19.958801,-6.591897,0.915541,0.010132,-0.024903,0.979751
908,-22.522316,-7.385367,0.244144,0.011109,-0.044190,0.972305
909,-23.865110,-7.507439,0.244144,0.035279,-0.048707,1.001846
910,-23.682002,-6.897078,0.488289,0.031006,-0.053712,1.001480
911,-27.466239,-6.103609,1.525902,0.049683,-0.054444,0.972793
912,-29.053178,-3.967346,3.112840,0.049195,-0.077638,0.983902
913,-25.818265,-1.586938,4.577707,0.041749,-0.080079,1.018326
914,-26.672770,-0.793469,5.554284,0.019165,-0.070680,1.008682
915,-24.902724,-1.037613,5.920500,0.020874,-0.005859,0.954726
916,-29.846647,-0.854505,4.943923,-0.005982,0.025635,0.896620
917,-49.805447,-3.601129,5.249104,0.043458,-0.057740,0.950576
918,-44.739452,-1.709010,1.464866,0.003418,-0.060792,1.038956
919,-48.218509,-1.403830,-2.441444,0.009766,-0.069215,1.047257
920,-53.589685,-1.464866,-1.220722,0.018189,-0.090944,1.002945
921,-51.697566,-0.488289,-2.319371,0.011597,-0.094240,1.013321
922,-54.261082,-0.793469,-4.028382,-0.025269,-0.105104,1.054459
923,-31.738766,6.652934,-12.817578,0.007446,-0.327153,0.829725
924,-46.692607,0.915541,-19.775692,0.045167,-0.187869,1.023453
925,-50.293736,-0.061036,-11.230640,0.088258,-0.287724,1.048844
926,-47.302968,-1.464866,-0.976577,0.100710,-0.219974,1.117205
927,-39.612421,0.854505,-0.244144,0.067750,-0.104128,1.003677
928,-46.387427,3.356985,-7.568475,0.031250,0.222904,0.933608
929,-100.282292,6.775006,-18.554971,0.071046,0.216312,0.904311
930,-142.763409,13.916228,-21.423667,0.014405,0.437751,0.793347
931,-206.973373,6.225681,-28.747997,-0.213748,0.124147,0.746960
932,-238.040742,-22.583352,-3.173877,-0.029541,0.834241,0.796277
933,-377.996490,-36.011292,-28.381781,-0.035889,0.661631,1.757717
934,-554.757000,-83.619440,9.826810,-0.768444,-0.279423,1.177752
935,-631.174182,-162.844282,29.785611,0.121096,-0.367559,1.065080
936,-662.241550,-169.314107,48.096437,0.232792,-0.374640,1.137835
937,-720.164797,-166.567483,56.092164,0.126833,-0.337163,0.828260
938,-790.234226,-175.173571,66.346227,0.853773,-1.825467,1.798856
939,-811.718929,-158.144503,146.181430,-0.253666,-1.027359,1.999969
940,-172.182803,-108.583200,-23.804074,0.006958,-0.386358,1.999969
941,151.491569,-60.730907,-50.293736,-0.080323,1.287617,1.999969
942,78.004120,-19.226368,-67.322805,-0.084108,1.259541,1.999969
943,18.371862,-27.222095,-41.870756,-0.383429,0.610727,1.999969
944,156.130312,11.963073,-46.631571,-0.489631,0.121706,1.999969
945,268.070497,40.650034,-43.884947,-0.554696,0.199832,1.064836
946,239.566644,43.396658,-25.940337,-0.510994,0.052979,0.437507
947,206.546120,43.518730,-6.469825,-0.522713,-0.145632,0.305425
948,214.969100,46.265354,10.193027,-0.468025,-0.200198,0.296635
949,213.565270,38.269627,25.452049,-0.351690,-0.160403,0.323980
950,203.555352,25.635157,37.293050,-0.210086,-0.120119,0.558236
951,208.499275,16.845960,42.664225,-0.033082,-0.013672,0.915908
952,223.331044,11.718929,38.757916,0.187869,0.096193,1.164569
953,240.482185,18.005646,26.306554,0.344244,0.078492,1.282124
954,257.755398,34.485389,9.948882,0.391974,0.022583,1.256489
955,271.427482,48.035401,-6.836042,0.444953,-0.012573,1.205097
956,276.737621,56.885634,-23.498894,0.519051,-0.068971,1.233661
957,280.338750,62.806134,-41.138323,0.581186,-0.190066,1.301167
958,286.015106,68.604562,-58.167391,0.533822,-0.325078,1.360494
959,292.057679,69.031815,-71.473259,0.449592,-0.450324,1.327657
960,291.752499,64.087892,-79.591058,0.343023,-0.568856,1.333639
961,287.907225,60.242618,-82.825971,0.240482,-0.676158,1.327535
962,283.939879,58.350500,-82.215610,0.098024,-0.746715,1.288838
963,275.761044,56.214237,-76.600290,-0.025269,-0.760143,1.242939
964,264.896620,52.307927,-68.055238,-0.116335,-0.734264,1.240742
965,254.581521,49.439231,-58.594644,-0.166506,-0.667857,1.294697
966,242.862593,52.857252,-50.110628,-0.163455,-0.593271,1.362936
967,230.716411,66.651408,-43.213550,-0.074830,-0.511604,1.493187
968,217.044327,87.586786,-39.063096,0.093874,-0.460090,1.663844
969,205.935760,102.723735,-36.804761,0.191409,-0.472663,1.887968
970,205.142290,105.531395,-35.034714,0.252689,-0.521614,1.999969
971,212.710765,100.038148,-33.264668,0.345708,-0.561044,1.999969
972,224.551766,96.437018,-33.325704,0.422004,-0.648569,1.999969
973,230.289158,94.911116,-33.691920,0.398322,-0.768933,1.999969
974,231.631952,91.065843,-33.508812,0.322637,-0.921035,1.817777
975,227.115282,81.788357,-31.860838,0.219364,-1.091814,1.604150
976,214.297704,68.482490,-29.297322,0.144167,-1.288228,1.451194
977,198.184176,60.181582,-29.541466,0.227298,-1.560327,1.371603
978,171.267262,72.205692,-34.119173,0.456184,-2.000031,1.495384
979,145.510033,114.930953,-41.687648,0.620249,-2.000031,1.619165
980,142.641337,179.812314,-51.209277,0.536629,-2.000031,1.052628
981,152.590219,222.110323,-41.626612,0.316289,-2.000031,-0.250492
982,104.188602,182.925155,-7.446403,0.184085,-2.000031,-1.517967
983,9.521630,74.341955,33.508812,0.100099,-2.000031,-1.796658
984,-143.739986,-98.329137,59.205005,0.358770,-2.000031,-2.000031
985,-261.783780,-224.490730,82.642863,1.127092,-0.555306,0.658701
986,-155.397879,-166.933700,34.546426,0.372808,0.464240,1.999969
987,-115.907530,-135.927367,26.245518,-0.674083,1.356588,1.999969
988,-212.466621,-166.994736,49.378195,-0.773693,0.339239,0.606577
989,-273.258564,-147.524224,80.201419,-0.063844,-0.688487,-0.933242
990,-277.042802,-133.241779,87.037461,0.764416,-0.416510,0.335943
991,-373.113603,-127.931640,90.577554,1.777127,0.031128,1.999969
992,-261.478599,-80.140383,52.552071,1.728054,-0.594369,1.999969
993,-64.820325,-31.616693,7.812619,0.013184,-0.167117,1.999969
994,-149.172198,-61.829557,33.752956,-1.152239,-0.307378,1.999969
995,-91.309987,-102.052338,34.058137,0.361089,-0.221195,1.999969
996,1.342794,-56.458381,7.141222,1.474144,0.224369,1.698634
997,-52.552071,-2.441444,1.037613,0.068971,0.211429,1.076799
998,-78.248264,-19.104295,9.399557,-0.618173,-0.258549,1.169329
999,-26.062409,-42.481117,3.784237,0.333745,-0.071901,1.444358
1000,-15.197986,-25.574121,-0.854505,0.229374,0.069581,1.051408
1001,-32.532235,-22.583352,-1.220722,-0.122072,-0.057862,1.154314
1002,-13.366903,-27.283131,0.854505,0.107912,-0.056764,1.178363
1003,-1.220722,-19.592584,-2.441444,0.099733,0.031983,1.023331
1004,-11.352712,-16.906996,0.854505,0.034913,-0.015991,1.001846
1005,-3.051804,-14.648661,0.488289,0.057862,0.006592,1.068376
1006,-3.784237,-11.352712,1.342794,0.092287,0.078981,0.984634
1007,-9.521630,-7.324331,2.746624,0.073365,0.015259,1.001602
1008,-8.545052,-4.150454,3.723201,0.053590,-0.002930,0.977066
1009,-12.390326,-3.173877,4.577707,0.054932,0.031617,0.976699
1010,-15.381094,-3.051804,4.272526,0.037720,0.009277,1.013931
1011,-10.559243,-3.967346,3.601129,0.039796,0.014649,1.020401
1012,-9.582666,-5.432212,2.502480,0.022461,0.015503,1.003555
1013,-10.315099,-7.568475,1.709010,0.014282,-0.024903,1.005631
1014,-7.568475,-8.606088,0.671397,0.029175,-0.024414,0.987320
1015,-8.484016,-9.094377,0.244144,0.047730,-0.029908,1.008927
1016,-6.225681,-8.300908,0.488289,0.063844,-0.012696,1.015152
1017,-4.882887,-6.103609,0.915541,0.059205,0.033936,0.998917
1018,-8.484016,-4.699779,1.342794,0.075074,0.000732,1.034195
1019,-3.723201,-2.929732,1.159686,0.075685,-0.036622,0.968276
1020,-5.004959,-1.953155,0.854505,0.067140,-0.049561,0.943618
1021,-8.361944,-2.075227,0.915541,0.036500,0.001465,0.992081
1022,-7.812619,-2.624552,0.671397,0.055787,0.006714,0.973892
1023,-10.498207,-3.051804,0.122072,0.052247,-0.044190,0.916152
1024,-12.207218,-4.089418,0.183108,0.055787,-0.053590,0.976211
1025,-11.413748,-4.760815,0.305180,0.044800,-0.008423,0.971817
1026,-15.808347,-5.432212,-0.671397,0.010498,0.048096,1.331197
1027,-10.437171,-5.127031,1.770047,0.120485,0.010864,1.072038
1028,-10.864424,-3.295949,0.793469,-0.014282,-0.010742,0.940810
1029,-14.221408,-6.042573,0.366217,0.082033,-0.036011,1.017350
1030,-11.779965,-4.882887,-0.122072,0.039551,-0.030762,0.978164
1031,-12.207218,-6.103609,-0.183108,0.064454,-0.020020,0.977432
1032,-15.014878,-6.286717,-0.183108,0.054566,-0.032349,0.979263
1033,-14.343481,-6.347753,-0.305180,0.087648,-0.039796,1.000015
1034,-15.381094,-5.249104,0.183108,0.082887,-0.035523,0.989395
1035,-17.212177,-4.028382,1.098650,0.074464,-0.023194,0.972427
1036,-21.118486,-3.906310,2.014191,0.065064,-0.013916,0.983291
1037,-25.879301,-4.394598,2.441444,0.050172,-0.029297,0.998795
1038,-25.207904,-5.249104,2.685588,0.080812,-0.049317,1.070329
1039,-23.865110,-0.854505,1.709010,0.078859,-0.066285,1.002945
1040,-26.428626,0.122072,1.831083,0.076173,-0.054688,1.024796
1041,-25.574121,0.976577,1.647974,0.068605,-0.055421,1.000259
1042,-27.832456,0.915541,1.342794,0.074830,-0.051392,0.987564
1043,-28.870069,1.403830,1.037613,0.055299,-0.056031,0.984268
1044,-30.334936,1.342794,0.671397,0.078737,-0.066041,1.013443
1045,-33.569848,2.746624,0.976577,0.058839,-0.069093,1.023209
1046,-34.302281,3.967346,2.014191,0.100099,-0.081788,1.014176
1047,-35.584039,5.554284,3.906310,0.062623,-0.105837,1.011734
1048,-37.170977,9.338521,7.507439,0.234501,0.263798,1.151995
1049,-46.692607,12.451362,9.033341,-0.009888,-0.045411,1.205829
1050,-48.584726,9.765774,7.385367,0.071656,-0.162844,0.920546
1051,-43.152514,11.352712,6.042573,-0.000122,-0.059083,0.995743
1052,-51.697566,10.009918,3.906310,0.057496,-0.152712,1.093156
1053,-39.795529,9.887846,1.770047,-0.030640,-0.128420,0.994522
1054,-31.494621,5.981537,-6.286717,-0.019409,-0.097047,0.964004
1055,-33.264668,3.173877,-13.794156,-0.029419,-0.104372,0.894057
1056,-33.081559,3.295949,-24.048219,0.009277,-0.144778,0.986587
1057,-34.485389,-2.807660,-23.987182,0.131472,-0.285161,1.006485
1058,-25.513085,-0.976577,-12.390326,0.200443,-0.206058,1.072770
1059,-11.718929,-0.305180,-5.065995,0.132204,-0.287480,1.126116
1060,-13.183795,7.446403,-1.037613,0.097902,0.046265,1.003799
1061,-55.176623,19.043259,-16.235599,0.127932,0.219608,0.890150
1062,-102.601663,25.146868,-18.432898,0.029175,0.422370,0.751354
1063,-173.220417,26.550698,-35.095750,-0.067872,0.341680,0.888319
1064,-211.123827,-7.019150,-11.047532,-0.398688,-0.144900,0.541756
1065,-219.058518,-21.179522,6.469825,0.044312,0.901015,1.587671
1066,-353.948272,-48.340581,-35.339895,-0.243412,0.223148,1.512718
1067,-503.852903,-135.133898,-4.699779,-0.641733,-0.196170,0.818616
1068,-636.057069,-203.494316,43.335622,0.142458,-0.275639,0.925673
1069,-699.473564,-210.757610,69.825284,0.342290,-0.377813,0.999039
1070,-729.198138,-194.399939,78.980697,0.352056,-0.438605,0.975723
1071,-864.698253,-189.944305,127.016098,0.858656,-2.000031,1.999969
1072,-563.302052,-92.347601,152.712291,0.048341,-0.547616,1.999969
1073,15.259022,-33.569848,-47.913329,0.264652,0.181643,1.999969
1074,155.275807,28.992142,-67.383841,0.059083,1.119646,1.999969
1075,71.534295,9.155413,-28.198672,-0.376959,1.179583,1.999969
1076,30.212863,-22.400244,-13.733120,-0.357183,0.457282,1.999969
1077,152.956436,7.568475,-15.564202,-0.403326,0.168826,1.403830
1078,225.284199,35.217823,-12.756542,-0.329961,0.245121,0.604135
1079,187.441825,44.983597,-3.234913,-0.256107,0.169192,0.269047
1080,155.947204,46.936751,10.498207,-0.278569,-0.017823,0.369757
1081,173.952850,40.833143,17.517357,-0.177493,-0.064088,0.401740
1082,190.737774,32.471199,20.447089,0.009400,0.116091,0.450813
1083,180.727855,25.879301,17.761501,0.144656,0.126589,0.598520
1084,181.277180,26.794842,11.596857,0.217533,0.114992,0.928481
1085,199.465934,29.358358,2.380407,0.216312,0.103517,1.125139
1086,218.997482,27.588312,-5.432212,0.191897,0.067872,1.169207
1087,236.026551,26.306554,-10.986496,0.168338,0.016358,1.131121
1088,249.393454,28.625925,-15.320058,0.164797,-0.050660,1.089006
1089,256.717784,34.607462,-18.799115,0.154421,-0.121584,1.083024
1090,260.746166,40.772107,-20.386053,0.152102,-0.180911,1.141375
1091,263.248646,42.725261,-21.545739,0.189700,-0.258793,1.213886
1092,265.506981,41.382467,-24.963760,0.231083,-0.345220,1.346456
1093,270.450904,43.884947,-30.090791,0.250004,-0.389044,1.497826
1094,268.375677,46.021210,-35.278859,0.288579,-0.503426,1.604273
1095,271.671626,52.002747,-41.687648,0.282841,-0.629038,1.646387
1096,272.648203,58.533608,-45.838102,0.209232,-0.711681,1.612818
1097,271.488518,61.097124,-47.119860,0.122316,-0.811414,1.553246
1098,270.572976,61.280232,-43.884947,0.021118,-0.834852,1.429953
1099,260.929274,56.885634,-37.293050,-0.038941,-0.805310,1.313619
1100,246.158541,51.758602,-29.175250,-0.069825,-0.747082,1.290425
1101,230.411231,49.744411,-22.888533,-0.033936,-0.665049,1.351095
1102,216.556039,55.054551,-18.860151,0.028443,-0.592172,1.453635
1103,203.921569,61.524376,-15.930419,0.073487,-0.550912,1.609277
1104,198.672465,61.036088,-14.160372,0.106935,-0.558602,1.727565
1105,201.419089,55.664912,-13.794156,0.158938,-0.550423,1.789822
1106,203.006027,49.744411,-15.564202,0.216556,-0.552499,1.830106
1107,205.447471,48.157473,-20.386053,0.258549,-0.578622,1.814969
1108,206.851301,51.148241,-27.832456,0.264042,-0.619638,1.702174
1109,203.006027,56.153201,-35.950256,0.241459,-0.696666,1.542016
1110,194.094759,61.951629,-42.847333,0.205936,-0.805554,1.377829
1111,177.553979,70.069429,-47.608148,0.251713,-1.020279,1.240986
1112,157.351034,81.666285,-53.101396,0.346441,-1.256611,1.190814
1113,132.387274,95.033188,-58.838788,0.496712,-1.620142,1.285298
1114,112.306401,119.081407,-63.599603,0.527596,-2.000031,1.233783
1115,114.137484,146.730755,-59.937438,0.418219,-2.000031,0.769665
1116,116.395819,150.026703,-47.302968,0.303838,-2.000031,-0.120974
1117,74.097810,105.714504,-21.545739,0.211917,-2.000031,-0.837171
1118,6.591897,24.048219,7.385367,0.167239,-1.761868,-0.786023
1119,-46.021210,-55.176623,26.916915,0.008789,-1.698268,-0.502205
1120,-173.098344,-168.154421,36.865797,0.594980,-1.562646,-1.094621
1121,-191.287099,-205.691615,33.813993,0.617075,-0.046632,1.328756
1122,-119.203479,-124.269474,14.221408,-0.004883,0.787732,1.999969
1123,-144.716564,-70.435645,26.184482,-0.396246,1.088273,1.913603
1124,-227.481498,-94.728008,35.889220,-0.033082,0.086793,0.395636
1125,-216.556039,-88.075074,33.081559,0.248295,-0.329961,0.025025
1126,-224.551766,-66.346227,32.104982,0.572519,-0.101442,1.301778
1127,-262.943465,-49.927520,33.142596,1.001480,0.058961,1.999969
1128,-208.194095,-27.222095,7.019150,0.572885,-0.359625,1.999969
1129,-101.930266,27.466239,-4.028382,-0.127077,-0.281254,1.614038
1130,-121.644923,29.663539,22.827497,-0.917128,0.153567,1.999969
1131,-129.884794,-19.287404,34.119173,-0.714733,-0.546639,1.763699
1132,-10.009918,-42.542153,28.198672,0.241947,-0.042969,1.213397
1133,-40.466926,-42.053864,12.085145,0.973892,0.230961,1.908721
1134,-19.836728,-2.563516,-0.854505,0.161135,0.025025,1.329854
1135,-20.752270,-6.164645,-0.854505,-0.473884,0.036622,0.844617
1136,-41.992828,-32.349126,6.591897,0.081544,0.064698,0.977066
1137,-38.757916,-22.949569,-0.305180,0.326421,0.060548,1.341573
1138,-34.241245,-8.728161,-1.037613,-0.048585,-0.036622,1.081193
1139,-27.405203,-12.451362,-1.159686,-0.042725,0.028321,1.032731
1140,-30.579080,-10.009918,0.427253,0.083375,-0.003418,1.092424
1141,-26.428626,-3.173877,1.342794,-0.033692,0.050294,1.124163
1142,-22.400244,-4.150454,2.441444,-0.033448,0.003906,1.069108
1143,-17.334249,-3.784237,2.014191,0.026001,0.023560,1.038834
1144,-19.470512,-2.624552,2.258335,-0.010620,0.010742,1.007706
1145,-19.409476,-2.868696,2.258335,-0.001099,-0.004273,1.058976
1146,-15.136950,-2.136263,2.014191,0.021973,0.005859,1.028580
1147,-15.564202,-0.976577,2.075227,-0.010986,0.006104,1.020890
1148,-14.770733,-1.586938,1.647974,-0.036500,-0.005371,1.017594
1149,-13.611048,-3.723201,1.525902,-0.050904,0.014527,0.965835
1150,-15.991455,-6.591897,1.342794,-0.043214,0.004028,0.988785
1151,-13.427939,-9.643702,-0.732433,-0.037964,0.077638,0.990372
1152,-15.869383,-11.108568,0.305180,-0.021729,-0.011719,0.969619
1153,-14.648661,-11.902037,0.000000,-0.016358,-0.003052,1.037247
1154,-14.221408,-12.756542,-0.549325,-0.009888,-0.019287,0.999527
1155,-12.634470,-12.268254,-0.610361,-0.019287,-0.029419,1.035538
1156,-10.009918,-7.934691,-2.685588,0.160525,-0.075685,0.919814
1157,-5.554284,-2.868696,-1.159686,-0.005982,-0.006714,1.113054
1158,-12.207218,-1.892119,1.586938,0.022705,-0.005493,0.992203
1159,-10.925460,1.281758,2.075227,0.009644,-0.018555,0.987808
1160,-13.366903,3.173877,2.990768,0.014038,-0.006592,1.001724
1161,-16.113527,4.516670,3.723201,0.001953,-0.014405,1.025528
1162,-13.794156,5.615320,3.784237,-0.005859,-0.020508,0.998062
1163,-14.892805,5.432212,3.906310,-0.008667,-0.027466,0.991104
1164,-15.259022,4.394598,3.784237,-0.021118,-0.041505,1.015885
1165,-11.902037,2.990768,3.051804,-0.042115,-0.038453,0.976577
1166,-12.939651,0.732433,2.502480,-0.031250,-0.026001,0.979873
1167,-13.061723,-1.098650,2.136263,-0.012818,-0.037964,1.013809
1168,-11.047532,-1.342794,1.525902,-0.014527,-0.044312,0.995987
1169,-10.376135,-1.892119,1.098650,-0.020996,-0.044556,0.997330
1170,-11.779965,-2.685588,0.854505,-0.155032,0.087648,1.339010
1171,-5.920500,-2.685588,0.854505,0.022095,-0.105226,1.036027
1172,-9.643702,-3.723201,0.854505,0.008545,-0.096315,0.964981
1173,-4.150454,-2.136263,1.098650,0.004395,-0.065064,1.010025
1174,-2.441444,-2.014191,1.037613,-0.019287,-0.041627,0.984634
1175,-5.004959,-3.662165,1.647974,-0.002197,-0.026490,1.005264
1176,-6.347753,-4.943923,1.403830,-0.041993,-0.031861,0.961807
1177,-6.408789,-7.202258,0.549325,-0.014527,-0.030762,0.960830
1178,-11.291676,-8.850233,0.671397,-0.020142,-0.033692,0.967178
1179,-13.427939,-10.254063,0.244144,-0.012818,-0.031250,0.950210
1180,-17.456321,-10.864424,0.122072,-0.000610,-0.026368,0.939712
1181,-24.963760,-11.474784,0.793469,-0.004273,-0.014160,0.979385
1182,-30.029755,-11.169604,0.915541,0.013062,-0.046754,1.007095
1183,-30.395972,-9.094377,1.586938,0.030762,-0.076539,1.014542
1184,-30.029755,-6.652934,2.502480,0.043458,-0.097902,1.019669
1185,-28.320745,-3.479057,3.723201,0.012573,-0.078126,1.048234
1186,-25.391012,-1.647974,5.065995,0.058717,-0.099245,1.011002
1187,-29.480430,1.586938,7.507439,0.018555,-0.102663,1.015640
1188,-25.268940,2.258335,7.568475,-0.029786,-0.075319,0.993179
1189,-25.268940,0.427253,5.493248,-0.061891,-0.030152,0.914321
1190,-30.151827,-3.173877,4.699779,0.001709,-0.028443,1.000870
1191,-36.499580,-5.371176,2.258335,-0.054566,-0.079225,0.980240
1192,-34.912642,-7.995727,-0.549325,-0.012207,-0.078004,0.994888
1193,-33.203632,-7.202258,-0.976577,-0.032715,-0.102174,1.019791
1194,-35.156786,-6.042573,-0.976577,0.052003,-0.099733,0.917494
1195,-41.382467,-5.676356,-2.868696,-0.022950,-0.083253,1.032242
1196,-48.096437,-6.225681,-4.455634,-0.025635,-0.108034,0.995254
1197,-49.866484,-4.943923,-10.437171,-0.030762,-0.072145,1.113664
1198,-45.532921,-10.559243,-20.080873,0.047486,-0.236210,1.012222
1199,-43.579767,-4.272526,-13.550011,0.090944,-0.224002,0.976699
1200,-44.251164,-0.183108,-3.295949,0.019043,-0.219974,1.063249
1201,-41.321431,-2.441444,-2.685588,0.044800,-0.167117,0.986221
1202,-44.678416,-4.760815,-6.225681,0.062501,-0.042237,0.972061
1203,-59.266041,-0.183108,-13.061723,-0.016968,0.095827,0.913222
1204,-100.282292,-2.624552,-16.540780,0.083131,0.286137,0.947158
1205,-134.218357,4.638743,-23.254749,-0.021485,0.181888,0.869886
1206,-171.938659,-5.127031,-28.992142,-0.005737,0.133669,0.730480
1207,-205.996796,-16.174563,-25.452049,0.141360,0.903700,0.698741
1208,-380.865187,-25.635157,-54.688334,0.021241,0.660533,1.783474
1209,-563.057908,-53.223468,-0.488289,-0.630014,0.047608,1.278462
1210,-662.485695,-145.143816,19.714656,-0.328985,-0.374273,0.768322
1211,-710.643168,-183.352407,54.200046,0.047730,-0.474372,0.978653
1212,-754.100862,-210.513466,67.078660,0.055543,-0.461067,0.676646
1213,-897.047379,-254.520485,137.880522,0.830213,-2.000031,1.999969
1214,-630.075532,-193.057145,175.539788,-0.502205,-0.681773,1.999969
1215,13.366903,-178.469520,-6.286717,0.307012,0.427131,1.999969
1216,181.521324,-72.938125,-18.860151,0.336675,1.657862,1.999969
1217,68.177310,5.065995,-32.349126,0.019409,1.101823,1.999969
1218,32.043946,10.742351,-30.212863,-0.300908,0.358160,1.999969
1219,171.023117,46.875715,-36.316472,-0.391363,0.109865,1.218524
1220,219.790951,49.744411,-28.137636,-0.418097,0.189456,0.316289
1221,170.778973,28.442817,-9.155413,-0.365118,0.130983,0.120729
1222,148.561837,13.183795,3.601129,-0.316289,-0.005859,0.266239
1223,171.511406,11.169604,6.591897,-0.173831,0.036011,0.313725
1224,172.304875,13.061723,5.798428,-0.053346,0.155886,0.428962
1225,164.187076,17.517357,0.915541,0.012085,0.141726,0.645518
1226,178.896773,27.222095,-8.178836,0.043946,0.139040,0.817151
1227,192.446784,32.959487,-16.174563,0.052857,0.148928,0.951675
1228,202.761883,33.386740,-22.156100,0.012085,0.085206,1.059586
1229,220.523384,34.241245,-25.207904,-0.036500,0.025757,1.193500
1230,235.904479,33.691920,-25.207904,-0.033204,-0.015869,1.355001
1231,251.712825,36.560616,-24.658579,0.034546,-0.062013,1.444236
1232,268.925002,43.030442,-28.137636,0.173342,-0.139284,1.500267
1233,282.169833,56.946670,-35.523003,0.237186,-0.255375,1.487938
1234,292.179751,70.252537,-42.664225,0.233036,-0.371710,1.404440
1235,297.001602,76.783398,-46.997787,0.238041,-0.447639,1.356344
1236,293.400473,78.736553,-48.828870,0.213870,-0.547616,1.326680
1237,290.775921,78.187228,-47.669184,0.186282,-0.616587,1.311177
1238,286.564431,76.112001,-44.190127,0.086061,-0.678599,1.240009
1239,280.643931,68.421454,-37.537194,0.037476,-0.668223,1.270405
1240,271.915770,61.707485,-29.480430,-0.050538,-0.638804,1.250019
1241,261.966888,56.885634,-20.996414,-0.031128,-0.553964,1.361837
1242,249.759670,60.364691,-15.564202,0.039551,-0.481209,1.496361
1243,239.566644,67.078660,-14.099336,0.175296,-0.435187,1.684108
1244,230.899519,73.609522,-16.906996,0.286381,-0.429450,1.899931
1245,225.711452,75.013352,-21.179522,0.313359,-0.486946,1.999969
1246,229.739834,70.984970,-26.916915,0.302251,-0.589975,1.999969
1247,236.331731,67.811093,-32.043946,0.270512,-0.709361,1.999969
1248,238.895247,67.078660,-34.607462,0.222538,-0.804211,1.999969
1249,239.078355,65.491722,-34.912642,0.160159,-0.938857,1.999969
1250,238.345922,62.439918,-34.424353,0.072877,-1.096452,1.885283
1251,234.744793,62.989242,-33.142596,-0.005615,-1.269551,1.613916
1252,218.570230,68.909743,-30.640116,-0.043091,-1.476341,1.370504
1253,189.578088,85.206378,-25.635157,0.114382,-1.789212,1.277119
1254,148.561837,113.160906,-22.400244,0.411017,-2.000031,1.491234
1255,119.508660,154.787518,-20.752270,0.625376,-2.000031,1.626734
1256,136.354620,202.822919,-19.836728,0.597543,-2.000031,0.845472
1257,157.900359,201.174945,-8.422980,0.452033,-2.000031,-0.662608
1258,95.033188,117.189288,16.113527,0.394049,-2.000031,-1.804837
1259,-10.742351,-10.681315,46.692607,0.426520,-1.842557,-1.600122
1260,-146.303502,-151.369497,41.138323,0.778820,-2.000031,-2.000031
1261,-235.355154,-209.048600,48.401617,0.972183,-0.420050,0.913100
1262,-152.956436,-175.600824,9.826810,0.095216,0.294316,1.999969
1263,-125.856413,-131.105516,15.075914,-0.647593,1.212909,1.999969
1264,-202.456703,-113.466087,30.701152,-0.826673,0.233524,0.601938
1265,-256.534676,-109.742885,53.467613,-0.498787,-0.480232,-0.324468
1266,-265.751125,-119.813840,68.116274,0.078614,-0.322759,0.870741
1267,-303.410391,-104.371710,77.882048,1.148577,-0.076417,1.999969
1268,-239.261463,-74.647135,47.913329,1.611109,-0.339239,1.999969
1269,-115.053025,-30.457008,5.920500,1.230854,-0.188968,1.999969
1270,-86.732280,0.915541,-3.234913,-0.239384,0.058106,1.999969
1271,-129.762722,-25.391012,19.226368,-1.113787,-0.400641,1.999969
1272,-32.959487,-52.735180,15.686275,0.089113,-0.259892,1.728176
1273,3.479057,-39.185168,2.319371,1.005020,0.312627,1.355123
1274,-50.049592,0.793469,8.239872,0.109499,0.111940,0.973770
1275,-57.984283,-10.742351,11.841001,-0.547250,-0.102663,1.049699
1276,-34.668498,-43.274586,7.263294,-0.080690,-0.001099,1.160174
1277,-24.414435,-44.251164,1.770047,0.296147,0.099001,1.010391
1278,-41.504540,-30.029755,0.061036,0.022827,0.029664,1.155535
1279,-30.334936,-33.325704,0.183108,-0.060548,-0.013794,1.124651
1280,-17.517357,-33.936065,-3.234913,0.083375,0.088624,0.977554
1281,-30.579080,-29.175250,-1.098650,0.074708,0.034424,1.134295
1282,-24.963760,-21.118486,1.831083,0.123659,-0.047242,1.092058
1283,-13.916228,-13.427939,2.258335,0.087648,0.033204,1.046403
1284,-18.432898,-10.620279,3.479057,0.063600,0.052125,0.974380
1285,-26.184482,-9.582666,4.943923,0.042237,-0.020874,1.056168
1286,-20.019837,-8.972305,4.821851,0.069947,-0.025635,1.089006
1287,-13.855192,-7.507439,3.601129,0.031739,-0.006226,1.021744
1288,-12.878614,-8.911269,2.685588,0.027588,-0.002319,1.002945
1289,-11.108568,-9.948882,1.464866,0.024170,-0.013184,1.026627
1290,-8.422980,-11.352712,0.305180,0.025879,-0.012451,0.976211
1291,-9.948882,-12.329290,0.244144,0.054566,0.003906,1.009903
1292,-7.934691,-9.765774,0.427253,0.094484,0.022950,1.065812
1293,-8.789197,-6.286717,1.220722,0.060426,0.007080,1.025528
1294,-8.239872,-4.821851,1.342794,0.064698,0.008789,1.022477
1295,-10.681315,-3.540093,1.709010,0.060914,0.030152,1.046647
1296,-8.728161,-2.929732,1.464866,0.068482,-0.055787,0.978042
1297,-8.117800,-3.051804,1.342794,0.051881,-0.023926,1.027481
1298,-8.117800,-3.356985,0.793469,0.036622,0.004150,1.012100
1299,-8.422980,-3.845274,-0.122072,0.063722,-0.021485,0.976455
1300,-10.009918,-4.455634,-0.183108,0.038209,0.005371,1.012345
1301,-9.399557,-4.577707,-0.244144,0.058595,-0.004639,0.985367
1302,-12.024109,-4.455634,-0.610361,0.068727,-0.012085,0.977432
1303,-13.427939,-3.967346,-0.488289,0.064454,-0.028077,0.991470
1304,-13.000687,-2.685588,-0.305180,0.073854,-0.025391,0.996719
1305,-14.221408,-2.014191,0.000000,0.046876,-0.027344,0.997208
1306,-13.061723,-2.624552,0.000000,0.052125,-0.033326,0.983780
1307,-13.427939,-2.929732,-0.122072,0.065431,-0.030884,0.993668
1308,-14.831769,-3.295949,0.122072,0.055543,-0.039185,1.006119
1309,-14.038300,-3.784237,0.671397,0.061891,-0.038697,1.001968
1310,-14.404517,-3.845274,0.732433,0.062135,-0.052735,0.985367
1311,-13.916228,-4.150454,1.037613,0.052613,-0.046021,0.981216
1312,-14.587625,-4.882887,1.586938,0.060304,-0.047608,0.987198
1313,-14.587625,-5.127031,1.770047,0.080568,-0.054810,0.961563
1314,-15.686275,-4.028382,2.014191,0.086549,-0.012696,1.041520
1315,-18.982223,-1.892119,1.525902,0.084718,-0.051514,1.012589
1316,-19.104295,-0.061036,1.647974,0.077638,-0.061402,1.011246
1317,-17.456321,1.342794,1.647974,0.084962,-0.061524,1.000381
1318,-18.371862,2.014191,1.159686,0.055909,-0.050050,0.985977
1319,-19.714656,1.586938,0.732433,0.060426,-0.053346,0.992691
1320,-21.667811,0.793469,0.305180,0.047364,-0.071534,0.914809
1321,-23.437858,1.037613,-0.183108,0.070680,-0.062135,0.962783
1322,-27.222095,1.770047,0.976577,0.095216,-0.080812,1.042252
1323,-25.085832,4.699779,3.356985,0.097536,-0.118044,1.016495
1324,-26.184482,7.507439,6.164645,0.077394,-0.111208,1.046403
1325,-24.719615,8.545052,6.713970,0.009644,-0.079469,0.982925
1326,-22.949569,6.530861,5.432212,0.139528,0.027100,0.944961
1327,-40.466926,9.643702,3.051804,-0.023194,-0.004517,1.013565
1328,-46.021210,7.202258,0.549325,0.077760,-0.100832,1.009415
1329,-40.283818,8.117800,-1.098650,0.013428,-0.036622,0.954238
1330,-49.866484,7.446403,-3.295949,0.069093,-0.082277,1.025284
1331,-52.674144,9.643702,-0.976577,-0.006470,-0.166506,1.053849
1332,-42.175937,8.972305,-6.713970,-0.056275,-0.114137,0.970718
1333,-36.072328,8.178836,-15.625238,-0.027710,-0.182254,1.076677
1334,-36.682689,2.807660,-15.747311,0.074342,-0.293095,0.952163
1335,-33.081559,1.647974,-5.188067,0.141360,-0.191287,1.052262
1336,-25.879301,3.295949,-5.432212,0.170169,-0.186160,1.076310
1337,-24.963760,7.629511,3.356985,0.115236,-0.129030,1.043351
1338,-42.053864,15.259022,0.000000,0.080323,0.103151,0.967910
1339,-69.642176,20.630198,-10.193027,0.132937,0.131106,0.935805
1340,-115.968566,30.640116,-15.930419,-0.009277,0.450202,0.795544
1341,-189.517052,23.010605,-32.104982,-0.076905,0.334112,0.316899
1342,-217.837797,-5.004959,0.793469,-0.271366,0.299443,0.895888
1343,-284.122988,-27.161059,2.258335,0.020630,0.604379,1.082536
1344,-460.761425,-84.779126,-5.920500,-0.520272,0.020020,1.239033
1345,-620.553903,-182.192721,45.654994,-0.282597,-0.079713,1.762112
1346,-692.820630,-210.696574,62.195773,0.178103,-0.328252,0.891371
1347,-736.156252,-192.263676,80.872816,0.289189,-0.256352,0.938491
1348,-789.318685,-177.431907,86.305028,0.533211,-1.375387,1.217426
1349,-953.017472,-192.996109,187.563897,-0.733165,-1.130144,1.999969
1350,-234.561685,-82.398718,55.298695,-0.298222,-0.392706,1.999969
1351,216.983291,-6.286717,-56.641489,-0.187869,0.811414,1.999969
1352,161.745632,43.213550,-63.050278,-0.100587,1.107561,1.999969
1353,7.751583,-2.563516,-11.841001,-0.465217,0.715221,1.999969
1354,55.298695,-9.948882,-0.915541,-0.468635,0.175174,1.879545
1355,209.597925,26.855879,-0.366217,-0.441169,0.072999,1.017838
1356,225.040055,38.025483,8.850233,-0.302983,0.179324,0.283818
1357,160.708019,38.147555,22.888533,-0.207523,0.077882,0.198978
1358,148.928054,42.420081,30.518044,-0.117678,-0.049195,0.291264
1359,173.281453,41.870756,30.395972,0.053101,0.074708,0.386969
1360,164.736400,28.076600,29.297322,0.172244,0.181765,0.572152
1361,163.332570,6.347753,23.926146,0.273075,0.229129,0.951675
1362,189.211872,-7.141222,10.742351,0.364630,0.288701,1.260029
1363,216.372931,-7.690547,-7.141222,0.418219,0.313359,1.436912
1364,241.214618,3.601129,-26.123445,0.405402,0.248417,1.482444
1365,266.300450,17.700465,-44.007019,0.383551,0.142214,1.418967
1366,283.634699,29.236286,-58.411536,0.289921,-0.039307,1.250996
1367,292.301823,36.804761,-68.787671,0.282231,-0.232425,1.078630
1368,291.569390,43.457694,-77.576867,0.157595,-0.415778,1.085832
1369,294.560159,47.486076,-78.858625,0.055665,-0.451911,1.076677
1370,289.677272,40.039673,-77.027543,0.106935,-0.469001,1.218769
1371,284.428168,37.842374,-76.905470,0.153933,-0.538094,1.308736
1372,280.704967,41.260395,-79.774166,0.207645,-0.600351,1.338277
1373,272.465095,51.270314,-84.534981,0.179202,-0.723888,1.303487
1374,259.647517,64.209964,-85.145342,0.109133,-0.805554,1.182879
1375,244.449531,70.557717,-82.948043,-0.006714,-0.868910,0.983291
1376,222.537575,71.839475,-77.210651,-0.057130,-0.862074,0.912367
1377,194.094759,74.525063,-66.529335,-0.038819,-0.715221,1.096086
1378,162.478065,75.867857,-55.298695,0.071046,-0.573983,1.692042
1379,150.026703,74.525063,-48.035401,0.221683,-0.533700,1.999969
1380,184.084840,78.370336,-49.683375,0.363043,-0.594491,1.999969
1381,228.336004,90.638590,-55.420768,0.456672,-0.611215,1.999969
1382,238.406958,102.540627,-59.327077,0.422858,-0.662486,1.931792
1383,238.101778,103.761349,-58.472572,0.359136,-0.745617,1.639673
1384,238.834211,97.474632,-54.322118,0.315068,-0.768200,1.438743
1385,226.443885,85.572595,-48.096437,0.290654,-0.769299,1.359884
1386,214.297704,71.412222,-43.030442,0.265141,-0.801282,1.402731
1387,205.325399,63.416495,-39.978637,0.254765,-0.881727,1.495506
1388,197.207599,65.857939,-37.476158,0.169558,-1.071916,1.450217
1389,188.479438,72.510872,-30.701152,0.007568,-1.346822,1.264912
1390,172.182803,75.318532,-16.845960,-0.089357,-1.684352,1.077531
1391,148.683909,76.356146,1.770047,0.003052,-2.000031,0.916518
1392,120.729381,80.933852,15.747311,0.285893,-2.000031,0.771008
1393,96.437018,93.263142,22.644388,0.551034,-2.000031,0.242679
1394,72.693980,93.629358,26.184482,0.658824,-2.000031,-0.387213
1395,19.897765,54.749371,39.429313,0.620371,-2.000031,-0.714244
1396,-47.608148,-13.427939,55.298695,0.473884,-2.000031,-2.000031
1397,-193.057145,-143.984131,66.224155,1.250263,-0.615610,-0.659068
1398,-145.754177,-128.480964,26.123445,0.730968,0.126101,1.999969
1399,-84.229801,-62.745098,8.239872,-0.175051,1.329732,1.999969
1400,-131.227588,-73.670558,8.606088,-0.755138,0.781872,0.710216
1401,-256.168460,-75.989929,31.738766,-0.730236,-0.242069,-0.158694
1402,-272.037842,-82.032502,58.411536,-0.191653,-0.463386,0.664439
1403,-250.980392,-71.412222,61.890593,1.175067,-0.064088,1.999969
1404,-204.531930,-14.465553,28.564889,1.373312,0.069703,1.999969
1405,-145.937285,31.494621,-4.943923,0.853773,-0.146853,1.794339
1406,-146.974899,69.642176,-7.446403,-0.405402,-0.147097,1.816190
1407,-177.431907,6.530861,20.874342,-1.402487,-0.680552,1.999969
1408,-19.714656,-41.199359,30.029755,-0.346197,-0.357427,1.421775
1409,-8.361944,-55.603876,23.559930,0.691417,0.555550,1.603296
1410,-61.829557,-27.344167,21.545739,0.760388,0.078859,1.602686
1411,-20.263981,2.624552,6.225681,-0.570321,-0.103273,1.086564
1412,-26.367590,-30.884260,14.282444,-0.389288,0.030762,0.856703
1413,-23.132677,-44.922560,9.826810,0.300786,0.159304,1.221088
1414,-23.437858,-30.640116,1.159686,0.066163,0.081178,1.070085
1415,-25.879301,-29.785611,2.380407,-0.190066,0.005737,0.981704
1416,-23.926146,-33.997101,2.563516,0.037354,0.046021,1.120623
1417,-22.034028,-25.085832,2.929732,0.095705,0.089723,1.122332
1418,-21.789883,-16.418708,3.356985,0.002197,0.079591,1.016129
1419,-24.963760,-13.244831,3.356985,0.022461,0.017578,1.076799
1420,-22.705425,-8.667124,3.418021,-0.006348,0.049928,1.052873
1421,-24.414435,-8.361944,4.089418,-0.007691,0.021607,0.984024
1422,-23.559930,-7.385367,3.234913,0.042481,0.015137,1.048234
1423,-20.996414,-5.554284,2.807660,-0.035767,0.057740,1.111467
1424,-17.395285,-5.065995,2.380407,0.000977,0.008423,1.020890
1425,-16.357671,-4.516670,2.258335,-0.021729,0.010864,1.010147
1426,-15.503166,-5.981537,2.014191,-0.044800,-0.002564,1.001846
1427,-13.794156,-7.934691,1.342794,-0.023804,0.016114,0.993301
1428,-14.160372,-8.728161,1.098650,-0.041138,0.022583,0.963638
1429,-16.601816,-9.460594,-0.793469,-0.006958,0.082277,1.067277
1430,-10.986496,-12.207218,-0.793469,-0.008545,-0.006714,0.998917
1431,-16.113527,-13.855192,0.000000,-0.011353,-0.011963,0.974502
1432,-12.451362,-14.282444,-0.305180,-0.018677,0.001831,1.004410
1433,-14.160372,-14.770733,0.671397,-0.005371,0.001831,1.011978
1434,-12.878614,-11.474784,-2.868696,0.078614,-0.312627,0.668956
1435,-9.704738,-11.535821,0.305180,-0.007080,0.008179,1.130144
1436,-11.413748,-10.131991,2.197299,0.003906,0.004517,1.021622
1437,-10.437171,-7.934691,2.197299,0.014771,-0.006958,0.993912
1438,-10.620279,-6.469825,2.014191,0.009400,0.010254,1.007218
1439,-12.695506,-5.981537,2.014191,0.006836,0.001099,0.988540
1440,-13.550011,-5.371176,2.014191,0.012451,-0.017945,1.011978
1441,-10.742351,-5.188067,1.647974,0.009033,-0.016114,0.992081
1442,-11.902037,-6.958114,1.892119,-0.013550,-0.013794,0.985611
1443,-10.070954,-8.422980,0.793469,-0.018799,-0.014893,1.020890
1444,-6.591897,-11.108568,0.976577,0.050904,0.045777,0.917617
1445,-7.568475,-9.399557,0.671397,0.001221,-0.046143,0.984512
1446,-5.310140,-9.704738,0.244144,0.032837,-0.009888,1.052628
1447,-3.479057,-8.300908,0.305180,0.026734,-0.020020,1.019059
1448,-3.967346,-7.141222,0.183108,0.031983,-0.061646,0.962295
1449,-1.586938,-5.798428,0.671397,0.024170,-0.036744,1.039445
1450,-3.967346,-4.943923,1.464866,0.026246,0.025635,1.025406
1451,-4.882887,-4.394598,1.892119,0.036744,0.021485,1.012467
1452,-6.103609,-4.333562,2.014191,0.018921,0.005371,0.973648
1453,-8.484016,-5.065995,1.831083,-0.004517,0.006714,0.943130
1454,-12.756542,-7.446403,1.770047,-0.002808,0.022339,0.932998
1455,-17.700465,-9.643702,1.647974,0.009644,0.012940,0.974990
1456,-20.508125,-10.254063,1.586938,0.022950,-0.002808,0.989273
1457,-22.217136,-9.643702,1.525902,0.025513,-0.004639,0.988785
1458,-26.001373,-8.606088,2.014191,0.055421,-0.013184,0.975235
1459,-31.311513,-5.127031,3.234913,0.031128,-0.058473,0.970108
1460,-33.691920,-3.845274,5.249104,0.059449,-0.056764,1.031510
1461,-31.494621,0.122072,6.286717,0.051270,-0.058595,1.007950
1462,-30.884260,2.197299,7.141222,0.042115,-0.065064,1.050797
1463,-27.038987,2.685588,6.713970,-0.007813,-0.064576,0.989273
1464,-29.785611,0.732433,6.836042,0.017823,-0.039063,0.987198
1465,-30.151827,-0.305180,5.615320,-0.012696,-0.073121,0.998795
1466,-23.743038,-1.464866,2.868696,0.043336,0.008423,0.934218
1467,-38.025483,-2.502480,1.342794,-0.058839,0.000000,0.940078
1468,-44.800488,-6.652934,0.732433,0.054444,-0.073976,1.008804
1469,-45.349813,-4.333562,0.488289,0.012085,-0.084352,0.997208
1470,-46.021210,-3.784237,2.014191,0.048707,-0.119997,1.064591
1471,-41.077287,1.953155,3.418021,0.034791,-0.109743,1.103288
1472,-34.973678,6.530861,5.127031,-0.032715,-0.098390,1.062028
1473,-32.715343,7.446403,3.784237,-0.017945,-0.040772,0.980484
1474,-47.974365,1.281758,-3.112840,-0.077760,-0.074952,1.025284
1475,-40.405890,-0.305180,-17.517357,-0.050172,-0.302983,0.857679
1476,-39.734493,-6.652934,-18.432898,0.085084,-0.223880,1.040177
1477,-36.743725,-1.281758,-12.329290,0.058961,-0.228031,1.095720
1478,-39.185168,-1.953155,-7.751583,0.041016,-0.147341,0.975601
1479,-47.974365,-3.540093,-9.704738,0.031373,0.056275,0.939590
1480,-77.393759,-2.136263,-16.968032,0.012696,0.280644,0.808118
1481,-139.833677,2.868696,-18.493935,0.084352,0.261234,0.790661
1482,-184.817273,10.009918,-9.338521,0.112306,0.093629,0.995377
1483,-201.052873,-6.347753,3.051804,-0.291386,-0.050904,1.062516
1484,-245.853361,-12.573434,-9.216449,0.105104,0.974136,1.016129
1485,-421.881437,-25.574121,-7.751583,-0.076783,0.069215,1.080827
1486,-557.808804,-89.295796,55.725948,-0.563363,-0.066529,1.999969
1487,-602.243076,-145.448997,46.082246,-0.009033,-0.398077,0.903578
1488,-667.002365,-166.750591,71.412222,-0.013428,-0.261601,0.816785
1489,-733.958953,-182.436866,87.220569,0.134279,-0.599252,1.182391
1490,-860.852979,-188.174258,189.089799,-0.686412,-1.235859,1.999969
1491,-364.263371,-130.495155,82.581827,-0.676524,-0.911269,1.999969
1492,172.671092,-73.182269,7.812619,-0.022217,0.669078,1.999969
1493,171.938659,17.212177,-23.315785,0.159304,1.214374,1.999969
1494,55.176623,17.212177,14.831769,-0.364385,0.924941,1.801785
1495,41.016251,-0.732433,18.371862,-0.281621,0.210941,1.228901
1496,153.871977,18.432898,11.413748,-0.314946,0.141970,0.572274
1497,157.045853,9.826810,16.418708,-0.239017,0.279057,0.184207
1498,106.324865,-2.197299,23.437858,-0.181521,0.147341,0.335454
1499,122.133211,5.249104,22.034028,-0.085084,0.093385,0.518563
1500,142.336156,14.770733,15.747311,0.030518,0.208499,0.512459
1501,134.279393,16.357671,10.070954,0.105348,0.224491,0.694224
1502,146.547646,17.212177,0.854505,0.135744,0.204349,0.900038
1503,169.192035,17.883574,-8.545052,0.129274,0.219242,1.026383
1504,182.314794,15.442130,-14.526589,0.119509,0.188846,1.171527
1505,201.785306,14.221408,-18.738079,0.097292,0.190066,1.367575
1506,225.101091,15.442130,-24.231327,0.077638,0.057252,1.386496
1507,246.463722,19.958801,-28.198672,0.051270,-0.046021,1.404562
1508,262.333104,25.940337,-30.701152,0.052247,-0.162112,1.347921
1509,272.892348,34.058137,-33.203632,0.109865,-0.257450,1.322286
1510,280.460822,44.617380,-36.987869,0.156374,-0.347784,1.263691
1511,282.352941,51.575494,-40.527962,0.154055,-0.433845,1.225727
1512,282.047761,52.918288,-42.359045,0.111940,-0.516976,1.163348
1513,279.056992,50.354772,-41.748684,0.093263,-0.548714,1.136858
1514,269.657435,45.838102,-39.856565,0.067872,-0.582528,1.155169
1515,261.600671,41.809720,-37.659266,0.029053,-0.596567,1.207782
1516,255.436027,38.513771,-34.424353,-0.026246,-0.562631,1.256001
1517,246.402686,36.377508,-31.250477,-0.012696,-0.515023,1.330220
1518,238.895247,40.100710,-30.334936,0.022217,-0.473884,1.423728
1519,230.533303,48.340581,-30.090791,0.039429,-0.434699,1.540307
1520,222.781720,54.322118,-29.724575,0.082033,-0.409918,1.709987
1521,220.523384,56.336309,-29.602502,0.175662,-0.394049,1.924468
1522,221.866178,53.406577,-32.532235,0.309453,-0.428962,1.999969
1523,227.481498,51.392386,-40.222782,0.423346,-0.489998,1.999969
1524,238.834211,52.918288,-51.697566,0.480354,-0.610361,1.979278
1525,244.632639,52.735180,-63.843748,0.490730,-0.680064,1.775662
1526,235.782406,50.293736,-74.952316,0.446174,-0.762707,1.596582
1527,225.101091,48.706798,-85.267414,0.375372,-0.830457,1.448264
1528,209.658961,48.218509,-94.239719,0.278691,-0.899428,1.341817
1529,186.099031,53.284504,-99.671931,0.239872,-1.082780,1.343160
1530,164.675364,62.195773,-102.357519,0.269902,-1.346822,1.433860
1531,140.627146,76.417182,-103.578241,0.277348,-1.810941,1.580346
1532,123.170825,98.451209,-96.620127,0.336309,-2.000031,1.510765
1533,128.175784,125.307088,-83.314260,0.300542,-2.000031,1.021866
1534,137.758450,135.133898,-65.308614,0.128054,-2.000031,0.119631
1535,101.625086,106.630045,-29.663539,-0.054444,-2.000031,-0.737072
1536,29.602502,38.513771,13.733120,-0.245365,-2.000031,-0.977188
1537,-73.914702,-78.553445,53.528649,-0.427253,-2.000031,-2.000031
1538,-211.917296,-228.397040,92.286564,0.635996,-1.459251,-0.460578
1539,-121.644923,-163.149462,76.966506,0.560433,0.293217,1.999969
1540,-85.694667,-70.069429,58.777752,-0.322148,1.467918,1.999969
1541,-145.082780,-107.423514,72.693980,-0.388312,1.048600,0.872328
1542,-253.604944,-152.773327,81.971466,0.476448,-0.113405,-0.241337
1543,-250.553140,-98.939498,78.492409,0.812146,-0.325322,-0.005982
1544,-274.906539,-85.023270,69.336996,1.347189,0.146975,1.762844
1545,-301.396201,-79.896239,40.894179,1.827176,-0.115358,1.999969
1546,-158.449683,-11.352712,-4.211490,0.528939,-0.726207,1.999969
1547,-83.680476,-27.283131,-7.080186,-0.800549,-0.237919,1.999969
1548,-59.876402,-35.950256,19.165332,-0.615732,-0.497566,1.348898
1549,-8.361944,-51.941711,15.747311,0.807141,0.348028,1.741726
1550,-47.486076,-19.104295,10.193027,0.591684,0.072999,1.255146
1551,-39.246204,5.004959,9.033341,-0.346441,0.041871,1.192523
1552,-36.255436,-20.630198,10.620279,-0.231693,-0.048707,1.093278
1553,-12.573434,-29.785611,4.821851,0.199222,0.100587,1.111101
1554,-20.813306,-23.743038,3.234913,0.026734,0.073854,0.924941
1555,-29.297322,-29.053178,5.920500,-0.076417,0.000122,1.048844
1556,-15.930419,-29.785611,2.014191,0.224002,0.086183,1.163836
1557,-21.057450,-18.738079,2.319371,0.088136,0.051392,1.027237
1558,-18.554971,-14.587625,3.418021,0.014771,0.047364,0.969009
1559,-22.705425,-12.756542,5.371176,0.102907,0.104860,0.980240
1560,-29.358358,-9.277485,6.347753,0.021485,0.034791,1.061906
1561,-24.353399,-9.033341,6.836042,0.051637,0.026123,1.041398
1562,-21.240558,-6.836042,2.685588,0.121828,-0.081300,0.910780
1563,-26.001373,-7.446403,5.127031,0.060548,-0.037110,1.067033
1564,-18.005646,-5.188067,3.418021,-0.016480,0.019776,1.020157
1565,-17.273213,-8.850233,2.807660,0.016236,0.042237,0.999283
1566,-16.357671,-8.911269,1.403830,0.029175,-0.002686,0.991836
1567,-14.892805,-9.948882,0.671397,0.005005,-0.016724,0.961563
1568,-16.296635,-11.596857,0.366217,0.020752,0.054444,1.026993
1569,-16.052491,-11.596857,0.000000,0.049928,-0.026246,1.023087
1570,-11.718929,-10.070954,-0.183108,0.050904,-0.007935,1.011734
1571,-11.841001,-8.972305,0.122072,0.057496,0.013672,1.023087
1572,-11.963073,-7.873655,0.732433,0.064332,0.000366,1.059220
1573,-7.812619,-5.615320,0.305180,0.048341,-0.013672,1.024674
1574,-7.873655,-4.943923,0.793469,0.049561,-0.009522,1.000870
1575,-7.019150,-4.821851,0.732433,0.037354,0.002564,0.989273
1576,-8.056764,-5.432212,0.671397,0.047730,-0.026856,0.974990
1577,-6.897078,-5.493248,0.549325,0.035767,-0.005982,0.988052
1578,-8.422980,-5.920500,0.549325,0.048951,0.003540,0.982925
1579,-9.338521,-5.920500,0.061036,0.048829,-0.023438,0.966567
1580,-9.216449,-6.164645,0.000000,0.056275,-0.010132,0.992203
1581,-10.009918,-5.676356,-0.305180,0.059693,-0.025025,1.013565
1582,-7.751583,-5.127031,-0.244144,0.060670,-0.018067,1.005020
1583,-7.324331,-4.455634,-0.183108,0.064820,-0.021729,1.011002
1584,-6.347753,-3.662165,-0.244144,0.057252,-0.023194,1.008072
1585,-5.188067,-3.601129,-0.427253,0.049561,-0.004517,0.974868
1586,-7.446403,-3.906310,-0.427253,0.062501,-0.002686,0.964370
1587,-9.643702,-4.089418,-0.549325,0.054566,-0.007446,0.963394
1588,-11.413748,-4.455634,-0.793469,0.057618,-0.002319,0.974258
1589,-14.038300,-4.577707,-1.037613,0.056764,-0.009155,0.972671
1590,-15.197986,-4.882887,-0.793469,0.064332,-0.021485,0.991104
1591,-15.381094,-4.516670,-0.122072,0.067018,-0.027466,1.000748
1592,-16.113527,-3.662165,0.671397,0.070314,-0.024781,0.989029
1593,-17.151141,-3.234913,1.220722,0.056275,-0.035035,1.009049
1594,-15.625238,-3.845274,1.586938,0.066529,-0.026490,1.018692
1595,-16.113527,-3.479057,2.014191,0.061158,-0.037842,0.991348
1596,-15.381094,-3.784237,1.892119,0.045777,-0.050416,0.978897
1597,-16.174563,-4.333562,1.709010,0.056764,-0.016480,0.964858
1598,-21.057450,-2.868696,1.220722,0.080446,-0.029175,0.987564
1599,-20.874342,-2.258335,0.000000,0.064820,-0.011719,1.007095
1600,-24.475471,-1.586938,-0.976577,0.067262,-0.027222,0.976455
1601,-27.771420,-0.915541,-0.610361,0.081300,-0.055665,0.984390
1602,-27.100023,0.793469,-0.244144,0.076295,-0.058228,1.006363
1603,-27.527276,2.868696,0.793469,0.063600,-0.080079,1.037736
1604,-27.344167,4.699779,1.647974,0.060792,-0.090944,1.000015
1605,-21.972992,7.080186,1.342794,0.021485,-0.095949,0.922011
1606,-24.597543,7.507439,0.671397,0.112184,0.028565,0.979995
1607,-49.927520,5.981537,2.502480,0.061646,-0.036011,1.010880
1608,-44.495308,10.131991,2.014191,0.062623,-0.074464,0.921767
1609,-49.011978,10.009918,0.976577,0.050538,-0.044312,1.011856
1610,-55.970092,10.986496,3.051804,0.018189,-0.092287,0.995377
1611,-50.965133,9.887846,0.427253,-0.025635,-0.080446,0.967788
1612,-47.730220,6.836042,-6.164645,-0.067262,-0.130739,1.000870
1613,-57.984283,5.188067,-16.113527,-0.036744,-0.222293,1.058732
1614,-54.077974,2.075227,-16.906996,0.123171,-0.297124,1.041886
1615,-28.564889,-1.037613,-8.117800,0.210330,-0.227909,1.077165
1616,-18.188754,2.807660,1.159686,0.189578,-0.187137,1.089982
1617,-39.002060,14.587625,10.193027,0.095216,0.113893,0.991592
1618,-76.783398,21.728847,-4.638743,0.104005,0.199832,0.906264
1619,-117.494469,24.353399,-11.230640,-0.040894,0.518196,0.731456
1620,-204.776074,16.906996,-36.072328,-0.173220,0.445075,0.579721
1621,-230.716411,-28.931106,-7.263294,-0.440558,0.140871,0.938735
1622,-233.157855,-65.980011,9.582666,-0.105592,0.677012,0.978531
1623,-387.273976,-132.753491,-7.629511,-0.281865,0.081178,1.455100
1624,-592.050050,-226.993210,31.677729,-0.281621,-0.276249,0.896010
1625,-661.875334,-250.431067,66.651408,0.233158,-0.358770,0.899794
1626,-693.553063,-229.312581,60.425727,0.446174,-0.417975,1.063249
1627,-732.066835,-208.560311,65.369650,0.542611,-0.812268,0.932265
1628,-878.065156,-180.544747,145.265888,-0.243778,-1.492210,1.999969
1629,-395.147631,-34.058137,73.365377,-0.600961,-0.248173,1.999969
1630,99.671931,15.686275,-38.391699,-0.263432,0.569345,1.999969
1631,127.199207,43.640803,-50.782025,-0.314702,0.973770,1.999969
1632,51.148241,-6.897078,9.033341,-0.673594,0.904921,1.999969
1633,60.669871,-36.560616,29.297322,-0.500740,0.315435,1.999969
1634,200.747692,2.441444,30.640116,-0.502937,0.119997,1.481468
1635,244.083314,29.663539,37.415122,-0.393927,0.159670,0.577768
1636,197.451743,43.579767,49.378195,-0.303960,0.038697,0.326543
1637,179.018845,52.735180,60.242618,-0.242069,-0.126223,0.372564
1638,196.108949,54.261082,64.026856,-0.061891,-0.102541,0.363531
1639,194.155795,47.302968,65.247578,0.116457,0.061646,0.583871
1640,188.235294,34.180209,59.266041,0.331914,0.119142,0.869398
1641,206.301976,27.344167,43.457694,0.502327,0.173220,1.124163
1642,230.777447,29.236286,20.325017,0.575937,0.212650,1.191913
1643,244.998856,37.842374,-2.136263,0.575692,0.143069,1.089494
1644,253.360800,46.143282,-22.705425,0.480720,0.055055,1.057633
1645,263.370718,51.636530,-36.377508,0.403449,-0.036988,0.955703
1646,265.445945,50.171664,-44.129091,0.338384,-0.111696,0.947402
1647,263.004501,44.068055,-48.035401,0.359014,-0.195682,1.039567
1648,262.821393,35.828183,-52.185855,0.325322,-0.258549,1.255879
1649,271.000229,30.579080,-55.786984,0.266484,-0.319341,1.391989
1650,276.737621,27.954528,-58.106355,0.257084,-0.374884,1.473411
1651,275.638972,28.747997,-60.669871,0.253300,-0.450202,1.565087
1652,271.488518,35.400931,-63.355459,0.224613,-0.555550,1.598901
1653,272.037842,42.603189,-65.613794,0.157839,-0.655039,1.596582
1654,270.939193,46.692607,-65.980011,0.077516,-0.702525,1.546899
1655,265.934234,50.904097,-63.965820,0.013794,-0.725597,1.446067
1656,254.154269,57.557031,-60.059510,-0.020874,-0.708751,1.394675
1657,238.467994,66.895552,-53.650721,-0.021729,-0.657725,1.417380
1658,224.185550,70.740826,-46.631571,0.010620,-0.611948,1.515282
1659,213.931487,68.665599,-38.879988,0.073243,-0.566903,1.679835
1660,208.621347,62.806134,-33.081559,0.171389,-0.533577,1.839261
1661,211.490043,58.350500,-31.921874,0.275639,-0.531136,1.900908
1662,215.579461,57.679103,-35.217823,0.348028,-0.550790,1.840970
1663,214.969100,59.327077,-41.687648,0.351690,-0.594247,1.726589
1664,209.475853,61.829557,-49.561303,0.318730,-0.660777,1.614160
1665,199.404898,64.332036,-57.129778,0.253910,-0.744396,1.505394
1666,186.160067,65.552758,-63.904784,0.209476,-0.875746,1.424949
1667,169.130999,70.008392,-69.947356,0.269047,-1.092790,1.342550
1668,151.125353,86.854353,-76.173037,0.326055,-1.391135,1.385031
1669,126.100557,109.681849,-80.994888,0.429328,-1.815457,1.423972
1670,109.803922,146.852827,-79.346914,0.386358,-2.000031,1.448875
1671,112.489509,182.864118,-67.078660,0.291508,-2.000031,0.908461
1672,116.823072,179.751278,-42.664225,0.187625,-2.000031,-0.031983
1673,83.253223,120.668345,-8.789197,0.140261,-2.000031,-0.963027
1674,19.470512,25.879301,24.536507,0.109743,-1.944610,-1.233295
1675,-121.217670,-119.996948,46.753643,0.295293,-1.992096,-2.000031
1676,-256.290532,-239.078355,62.623026,1.014542,-1.140032,-0.012696
1677,-145.326925,-186.160067,39.978637,0.404303,0.314336,1.999969
1678,-120.424201,-127.565423,30.884260,-0.422370,1.371237,1.999969
1679,-184.023804,-97.352560,44.129091,-0.752575,0.521004,1.287251
1680,-234.317540,-100.404364,63.172351,-0.337041,-0.316777,-0.031373
1681,-221.438926,-98.207065,72.571908,0.382086,-0.408576,0.147463
1682,-261.295491,-76.417182,74.464027,1.340597,0.012818,1.677150
1683,-236.575875,-40.711070,34.668498,1.834745,0.148440,1.999969
1684,-195.742733,11.352712,-12.451362,1.147112,-0.068116,1.999969
1685,-177.187762,23.132677,-13.000687,-0.917739,-0.110842,1.999969
1686,-173.525597,-65.369650,38.086519,-1.618433,-0.965957,1.999969
1687,-48.340581,-101.014725,28.564889,0.122194,-0.185672,1.361593
1688,-72.755016,-87.159533,22.156100,1.473655,0.254765,1.999969
1689,-65.735866,-15.869383,8.606088,0.053834,-0.121706,1.107561
1690,-58.838788,-26.245518,5.249104,-0.645884,-0.167849,1.205585
1691,-32.654307,-53.955901,7.019150,0.261234,0.003784,1.284199
1692,-23.132677,-31.555657,-4.699779,0.286503,-0.027466,1.132219
1693,-32.043946,-24.231327,-0.305180,-0.137575,-0.133913,1.146746
1694,-7.019150,-29.358358,-0.915541,0.072633,-0.009644,1.040665
1695,-11.902037,-21.362631,-1.037613,0.163821,0.055787,1.059220
1696,-23.865110,-13.000687,2.136263,-0.011353,-0.115114,1.114519
1697,-6.164645,-8.606088,2.441444,0.095827,-0.013916,1.075822
1698,-11.841001,-2.075227,3.723201,0.044068,0.021851,0.975845
1699,-17.029068,-1.403830,4.699779,-0.014649,-0.018555,0.986954
1700,-14.648661,-2.563516,4.699779,0.037964,0.008911,1.004898
1701,-20.263981,-2.563516,4.577707,0.015137,-0.036988,1.061784
1702,-12.756542,-3.051804,3.540093,0.012940,-0.004883,1.029557
1703,-13.305867,-3.418021,2.197299,0.032715,-0.012940,1.011368
1704,-13.611048,-3.723201,1.647974,-0.009277,-0.088380,1.003555
1705,-9.338521,-4.272526,1.037613,0.021973,-0.032959,1.033463
1706,-10.070954,-3.112840,1.220722,0.048951,-0.036011,1.036027
1707,-9.155413,-1.586938,1.709010,0.017334,-0.035645,1.016617
1708,-7.690547,-1.586938,1.525902,0.017578,-0.028199,0.995254
1709,-9.338521,-1.525902,1.525902,0.027588,-0.028931,0.997696
1710,-9.826810,-1.220722,1.709010,0.026368,-0.034913,1.007095
1711,-10.437171,-0.976577,1.770047,0.021729,-0.030396,1.000381
1712,-11.902037,-0.854505,2.014191,0.022705,-0.038087,0.990494
1713,-12.390326,-0.915541,1.892119,0.011231,-0.041260,1.019425
1714,-9.277485,-0.671397,2.014191,0.006592,-0.000610,1.038590
1715,-10.437171,-1.342794,2.319371,0.007691,-0.025269,1.030289
1716,-7.812619,-1.892119,1.709010,0.013428,-0.042237,0.995377
1717,-8.484016,-2.990768,1.342794,0.019287,-0.038087,1.016007
1718,-6.347753,-2.990768,0.305180,0.021729,-0.075441,0.968276
1719,-5.188067,-3.784237,-0.183108,0.020386,-0.074708,0.965469
1720,-7.385367,-4.882887,-0.366217,0.005371,-0.042237,0.988296
1721,-8.361944,-6.225681,-0.854505,0.010498,-0.044923,0.973037
1722,-10.070954,-7.141222,-1.037613,0.025513,-0.024048,0.968032
1723,-14.221408,-7.568475,-1.098650,0.035279,-0.052003,0.995621
1724,-13.672084,-6.530861,-0.854505,0.038209,-0.062867,1.018082
1725,-13.550011,-5.554284,-0.549325,0.045899,-0.047852,0.980972
1726,-16.540780,-4.638743,0.061036,0.035767,-0.066041,1.047135
1727,-13.916228,-3.723201,0.366217,0.033082,-0.071534,1.018570
1728,-13.000687,-2.807660,0.854505,0.037354,-0.067994,1.010391
1729,-13.122759,-2.319371,1.220722,0.025147,-0.062989,0.970718
1730,-15.136950,-2.929732,1.342794,0.027466,-0.050660,0.967422
1731,-18.127718,-3.356985,1.159686,0.011353,-0.056153,0.974136
1732,-18.677043,-4.089418,0.732433,0.033692,-0.059693,0.981704
1733,-20.141909,-3.723201,0.671397,0.043458,-0.068727,1.010758
1734,-22.095064,-3.234913,1.220722,0.047730,-0.081910,1.031144
1735,-20.508125,-1.342794,0.732433,0.050294,-0.109133,1.014054
1736,-20.874342,0.610361,1.098650,0.046021,-0.068727,0.987076
1737,-23.315785,1.403830,0.976577,0.027466,-0.087770,0.995254
1738,-23.193713,1.037613,0.671397,0.020508,-0.100099,0.994278
1739,-21.728847,0.610361,0.671397,0.028809,-0.102052,1.011978
1740,-22.278172,0.793469,1.464866,0.042481,-0.100587,1.005753
1741,-23.437858,2.929732,4.150454,0.048707,-0.096437,1.019913
1742,-27.710384,3.479057,5.676356,0.028077,-0.122316,0.992935
1743,-24.536507,3.845274,5.554284,0.028809,-0.079835,0.961440
1744,-31.067369,3.356985,5.127031,0.012329,-0.088624,0.954604
1745,-34.424353,3.295949,3.662165,0.015869,-0.096315,1.018326
1746,-34.485389,3.295949,2.563516,-0.010620,-0.113893,1.035660
1747,-38.513771,3.967346,1.037613,0.019165,-0.102052,0.985122
1748,-40.222782,4.943923,1.220722,0.024781,-0.113283,0.980117
1749,-39.368276,6.958114,0.427253,0.026368,-0.152346,1.014664
1750,-39.856565,4.760815,-4.516670,-0.053956,-0.186893,1.017594
1751,-36.194400,2.685588,-13.244831,-0.012818,-0.164675,0.982193
1752,-30.212863,3.173877,-14.038300,0.075319,-0.266484,1.001358
1753,-25.879301,2.624552,-8.361944,0.091188,-0.204715,1.055802
1754,-27.649348,5.432212,-1.770047,0.136721,-0.205325,1.040787
1755,-28.870069,9.887846,4.455634,0.026001,-0.024170,1.007584
1756,-49.134051,11.352712,-5.310140,-0.032593,0.158450,0.907362
1757,-91.859312,12.329290,-8.972305,0.051270,0.217899,0.968643
1758,-119.935912,13.244831,-11.413748,-0.092897,0.319707,0.737560
1759,-158.510719,-4.272526,-19.287404,-0.182254,0.104616,1.019425
1760,-209.414817,-20.325017,-12.817578,0.016724,0.933974,0.857923
1761,-341.680018,-32.898451,-21.667811,-0.034913,0.555062,1.552026
1762,-503.608759,-66.895552,5.249104,-0.553475,-0.208743,1.015518
1763,-578.011749,-146.303502,24.536507,-0.068116,-0.181399,1.083391
1764,-636.667430,-177.126726,48.157473,0.052979,-0.319829,1.295430
1765,-691.111620,-193.240253,63.660639,0.090822,-0.345464,0.702892
1766,-760.631724,-214.053559,82.032502,1.047501,-1.987213,1.999969
1767,-758.617533,-183.352407,159.304189,0.029908,-0.930800,1.999969
1768,-88.685435,-106.507973,-25.757229,0.281865,-0.303716,1.999969
1769,238.712139,-7.507439,-70.862898,-0.023682,0.917372,1.999969
1770,141.054398,47.547112,-84.107729,-0.200687,0.843397,1.999969
1771,32.715343,9.704738,-39.917601,-0.595590,0.425055,1.487694
1772,91.432059,11.291676,-27.527276,-0.545907,0.006592,0.930678
1773,179.140917,24.536507,-17.822538,-0.507454,0.121950,0.333501
1774,141.969940,13.855192,-0.610361,-0.352056,0.162234,0.144778
1775,109.864958,10.864424,11.718929,-0.276616,0.016724,0.389654
1776,138.796063,18.371862,13.550011,-0.161135,0.048096,0.488777
1777,150.392920,20.019837,13.000687,-0.086671,0.169802,0.586313
1778,145.571069,16.784924,12.939651,0.017212,0.214603,0.865492
1779,168.093385,18.860151,6.042573,0.156985,0.252445,1.083513
1780,192.568856,23.315785,-4.455634,0.256474,0.274540,1.213031
1781,209.658961,27.649348,-17.395285,0.359136,0.205447,1.293111
1782,230.716411,36.987869,-35.217823,0.417731,0.032471,1.285176
1783,254.337377,52.857252,-53.650721,0.310918,-0.117922,1.127703
1784,267.399100,61.646448,-64.209964,0.240238,-0.192508,0.924941
1785,263.370718,62.134737,-69.092851,0.231205,-0.282841,0.881483
1786,257.389181,61.097124,-71.900511,0.244388,-0.363165,1.024918
1787,252.506294,58.533608,-74.219883,0.252079,-0.430304,1.151019
1788,253.421836,56.092164,-77.515831,0.322515,-0.458869,1.293355
1789,250.492103,57.129778,-82.764935,0.378424,-0.512093,1.423484
1790,247.501335,62.134737,-87.220569,0.313603,-0.609873,1.464988
1791,251.285573,65.796902,-87.891966,0.158083,-0.684092,1.400168
1792,253.177691,62.623026,-82.093538,-0.006104,-0.692149,1.314473
1793,245.548180,56.519417,-70.496681,-0.101930,-0.668223,1.285298
1794,236.270695,52.857252,-56.702525,-0.169070,-0.618418,1.324361
1795,228.763256,53.833829,-43.884947,-0.130739,-0.558602,1.409323
1796,219.790951,63.660639,-34.546426,-0.052857,-0.505501,1.509056
1797,210.208286,80.933852,-28.686961,-0.021241,-0.499519,1.574365
1798,202.212558,95.887694,-22.400244,-0.041382,-0.527474,1.615991
1799,196.963455,99.671931,-13.122759,-0.049805,-0.560067,1.600977
1800,193.057145,91.187915,-2.624552,-0.038575,-0.581430,1.542992
1801,185.549706,82.398718,6.591897,0.070680,-0.589853,1.537987
1802,176.821546,90.882734,9.521630,0.442390,-0.524910,1.542870
1803,164.248112,104.859998,6.469825,0.498909,-0.480964,1.732937
1804,149.904631,97.230488,2.136263,0.516854,-0.611826,1.887968
1805,168.215457,76.905470,-2.441444,0.483650,-0.699229,1.902007
1806,180.972000,54.627298,-6.958114,0.469856,-0.838514,1.798856
1807,176.943618,49.134051,-12.817578,0.533089,-1.143084,1.687770
1808,164.858473,57.984283,-24.963760,0.602914,-1.578149,1.509056
1809,143.739986,81.910430,-44.678416,0.718517,-2.000031,1.398459
1810,133.241779,129.457542,-55.603876,0.627085,-2.000031,1.048844
1811,147.524224,176.089113,-65.796902,0.297734,-2.000031,-0.005615
1812,117.250324,174.685283,-40.955215,0.006226,-2.000031,-1.213886
1813,10.376135,97.474632,7.629511,-0.603525,-2.000031,-2.000031
1814,-155.275807,-135.133898,86.793317,0.199100,-1.908721,-2.000031
1815,-222.293431,-217.898833,80.445563,1.224750,-0.433967,1.081559
1816,-101.930266,-95.094224,45.777066,0.112428,1.057267,1.999969
1817,-117.860685,-106.752117,31.738766,-0.792981,1.011246,1.999969
1818,-193.606470,-146.059358,64.454108,-0.238041,0.295903,0.588754
1819,-229.495689,-127.382315,65.430686,0.399176,-0.476814,-0.379034
1820,-219.363699,-95.826658,66.773480,0.703380,-0.114870,0.173220
1821,-291.752499,-102.418555,61.768521,1.589136,0.163943,1.999969
1822,-264.530404,-60.303655,26.733806,1.522606,-0.479622,1.999969
1823,-96.070802,-7.934691,-11.047532,0.004028,-0.377447,1.988190
1824,-144.167239,-35.278859,15.320058,-1.143938,-0.203250,1.999969
1825,-107.972839,-73.304341,26.977951,0.080934,-0.642954,1.999969
1826,25.818265,-37.842374,4.577707,0.998306,0.322026,1.893217
1827,-37.170977,1.709010,2.502480,0.065309,0.086061,0.809094
1828,-61.829557,-2.563516,11.169604,-0.317388,0.008667,1.128435
1829,-42.786297,-17.334249,6.042573,0.000244,-0.075807,1.124285
1830,-27.344167,-14.038300,2.075227,0.140261,0.052979,1.183001
1831,-33.813993,-10.376135,0.854505,-0.048829,-0.031373,1.053117
1832,-20.569162,-15.136950,-1.647974,-0.065797,-0.000244,1.062272
1833,-13.794156,-18.677043,-3.601129,0.047730,0.056764,0.931899
1834,-27.405203,-16.845960,-1.403830,0.046387,-0.029908,1.043961
1835,-21.423667,-13.855192,0.793469,0.026368,-0.053101,1.093523
1836,-13.000687,-9.460594,1.647974,0.093019,0.013306,1.038712
1837,-18.127718,-5.493248,2.441444,-0.009766,0.019165,0.931044
1838,-22.522316,-7.324331,3.051804,0.019532,0.010132,1.006729
1839,-21.850919,-8.239872,2.563516,0.024292,-0.001343,0.992325
1840,-22.888533,-8.422980,1.586938,0.025025,-0.011597,1.002090
1841,-23.071641,-8.239872,1.342794,0.024170,-0.031617,1.034318
1842,-19.165332,-7.568475,0.671397,0.012573,-0.021118,1.004898
1843,-20.569162,-7.507439,0.183108,0.020142,-0.052369,0.996353
1844,-21.423667,-7.202258,1.464866,0.020752,-0.021973,1.019913
1845,-21.057450,-6.225681,1.342794,0.013428,-0.066896,1.039811
1846,-17.700465,-5.432212,1.403830,0.032471,-0.048829,1.037125
1847,-15.991455,-4.028382,0.976577,0.031495,-0.033448,1.019425
1848,-17.273213,-3.479057,0.732433,0.015991,-0.042969,1.026383
1849,-16.174563,-3.112840,-0.244144,0.028443,-0.056031,0.989395
1850,-16.235599,-2.990768,0.427253,0.020386,-0.046632,0.971939
1851,-16.845960,-4.089418,0.244144,0.015625,-0.039673,0.979141
1852,-19.348440,-5.004959,-0.183108,0.023316,-0.053468,1.007828
1853,-19.653620,-4.638743,-0.366217,0.025391,-0.073121,1.024918
1854,-16.662852,-3.418021,-0.549325,0.042237,-0.076295,1.016861
1855,-15.320058,-2.319371,-0.488289,0.025147,-0.066285,1.022599
1856,-14.526589,-1.586938,-0.488289,0.034668,-0.073121,1.028702
1857,-13.061723,-0.488289,-0.549325,0.030152,-0.072389,1.021866
1858,-11.230640,-0.183108,-0.793469,0.020386,-0.081056,1.018326
1859,-9.765774,-0.305180,-1.342794,0.038697,-0.090578,1.035538
1860,-6.530861,0.183108,-1.403830,0.040528,-0.111086,1.047135
1861,-1.403830,1.037613,-1.220722,0.035767,-0.093996,1.021866
1862,0.000000,1.342794,-1.037613,0.021241,-0.066773,0.993301
1863,-1.586938,0.732433,-0.976577,0.017578,-0.063233,0.991470
1864,-2.380407,0.061036,-1.403830,0.016724,-0.061524,0.986587
1865,-3.540093,-0.061036,-1.464866,-0.029053,-0.062989,1.089494
1866,-2.807660,-1.464866,-1.281758,0.032471,-0.118288,1.023087
1867,-3.601129,-2.136263,-0.793469,0.014405,-0.080934,1.009171
1868,-4.943923,-2.136263,-0.366217,0.031128,-0.085939,1.022843
1869,-2.746624,-1.709010,0.305180,0.044312,-0.087770,1.015640
1870,-2.563516,-0.671397,0.549325,0.032593,-0.085451,1.016739
1871,-1.281758,-0.061036,1.037613,0.033936,-0.087526,1.019059
1872,-0.183108,0.366217,1.220722,0.024537,-0.076905,1.012833
1873,0.183108,0.366217,1.037613,0.024048,-0.072023,1.000381
1874,0.427253,0.183108,0.671397,0.026612,-0.074342,1.005753
1875,0.305180,0.183108,0.427253,0.025879,-0.077394,1.018936
1876,0.976577,0.000000,0.244144,0.033082,-0.084352,1.003555
1877,3.418021,0.366217,-0.366217,0.022583,-0.066773,0.992935
1878,1.159686,0.366217,0.305180,0.034302,-0.084962,1.015763
1879,3.540093,1.342794,0.732433,0.026368,-0.086549,1.016129
1880,4.760815,1.892119,1.220722,0.028687,-0.070314,0.993423
1881,3.662165,2.258335,1.525902,0.015259,-0.076539,0.998672
1882,5.920500,1.770047,0.915541,0.006958,-0.041749,0.971695
1883,1.709010,-0.122072,-0.244144,0.006836,-0.034058,0.964248
1884,-1.709010,-2.014191,-1.525902,-0.001465,-0.046876,0.963882
1885,-3.601129,-3.112840,-2.441444,0.025513,-0.052369,0.977798
1886,-6.042573,-2.746624,-2.319371,0.034668,-0.066285,0.990249
1887,-7.934691,-0.915541,-2.075227,0.070680,-0.018677,0.793347
1888,-10.070954,-1.525902,-0.671397,0.036744,-0.026490,0.966079
1889,-13.427939,-2.258335,0.488289,0.052247,-0.049561,0.989761
1890,-13.305867,-1.281758,0.793469,0.030884,-0.068727,0.981704
