Packet number,Gyroscope X (deg/s),Gyroscope Y (deg/s),Gyroscope Z (deg/s),Accelerometer X (g),Accelerometer Y (g),Accelerometer Z (g)
0,-0.915541,-0.305180,0.000000,0.004395,0.000244,1.008804
1,-0.366217,-0.244144,0.000000,-0.001709,-0.002075,1.003555
2,-0.305180,0.000000,0.061036,0.000488,-0.001465,0.994522
3,-0.610361,-0.183108,0.000000,0.001587,-0.002930,1.006363
4,0.061036,0.061036,0.000000,0.001831,0.000855,0.995254
5,-0.244144,0.000000,0.000000,-0.002930,-0.004761,1.000381
6,0.000000,0.000000,0.061036,0.002197,-0.001221,1.002213
7,-0.061036,-0.183108,0.000000,0.000244,-0.001709,0.996231
8,-0.061036,-0.244144,0.000000,0.002808,-0.000488,1.002213
9,0.000000,-0.244144,0.061036,-0.000488,-0.001343,1.005509
10,0.061036,-0.305180,0.000000,0.007202,-0.004883,1.001236
11,-0.732433,-0.061036,0.061036,0.018067,-0.004273,1.027726
12,3.112840,0.427253,-0.122072,-0.008911,0.027955,0.998795
13,-3.479057,-0.610361,0.183108,-0.000488,-0.011109,1.007828
14,2.563516,0.061036,-0.122072,-0.003540,-0.001709,0.963149
15,-2.075227,-0.671397,0.183108,0.001587,-0.006226,1.000626
16,1.098650,0.061036,0.000000,0.002197,0.001343,0.996719
17,-0.915541,-0.366217,0.061036,0.007935,-0.000488,0.995987
18,0.061036,-0.244144,0.000000,0.007691,-0.007324,1.006119
19,0.610361,-0.122072,0.061036,0.005737,0.000244,1.001602
20,-0.061036,-0.183108,0.061036,0.003784,-0.009400,1.009415
21,1.342794,0.061036,0.000000,-0.002197,-0.003540,1.003189
22,1.037613,0.061036,0.183108,-0.008911,0.000855,0.995865
23,1.159686,-0.122072,0.061036,-0.010376,-0.000610,0.984756
24,0.305180,-0.488289,0.000000,0.000977,0.008179,0.979507
25,-1.403830,-0.976577,0.000000,0.005371,-0.000244,1.009293
26,-0.305180,-0.549325,0.000000,0.002930,-0.005249,1.010391
27,-0.427253,-0.183108,0.000000,0.001343,0.000366,0.998550
28,-0.915541,-0.305180,0.183108,0.004883,-0.006592,1.005875
29,-0.061036,-0.122072,0.061036,-0.000488,-0.001831,0.992081
30,-0.549325,-0.183108,0.000000,-0.003174,-0.001221,0.996353
31,-0.183108,-0.183108,0.000000,-0.000855,-0.003052,1.001236
32,-0.366217,-0.305180,0.000000,0.003418,-0.002564,1.008438
33,0.183108,-0.183108,0.000000,0.004639,-0.001831,1.004288
34,-0.061036,-0.183108,0.000000,0.007324,-0.005249,1.000504
35,0.183108,-0.122072,0.000000,0.003052,0.000366,1.007095
36,0.427253,0.061036,0.000000,-0.000244,0.000732,0.996963
37,-0.305180,-0.061036,0.000000,-0.002319,-0.000122,0.996353
38,-0.488289,-0.244144,0.061036,-0.003174,0.001953,0.998428
39,-0.793469,-0.427253,0.000000,0.005493,0.000977,0.997818
40,-0.793469,-0.244144,0.000000,0.005615,-0.003052,1.008316
41,-0.732433,-0.061036,0.000000,0.005371,-0.001465,1.001602
42,-0.488289,-0.061036,0.000000,0.004517,-0.000977,1.001480
43,-0.671397,-0.183108,0.000000,0.000244,-0.006592,1.004166
44,-0.305180,-0.061036,0.000000,0.005249,-0.004150,1.006729
45,0.122072,0.061036,0.000000,0.000122,0.002075,0.995132
46,0.000000,0.000000,0.000000,-0.000488,-0.001221,0.984146
47,-0.244144,-0.305180,-0.122072,-0.002197,0.003906,0.987808
48,-1.159686,-0.488289,-0.244144,-0.002930,0.006348,0.984268
49,-2.319371,-0.732433,-0.122072,0.002808,0.000000,0.999283
50,-2.258335,-0.549325,0.000000,-0.002319,-0.005859,0.996475
51,-1.831083,-0.488289,0.000000,0.011963,0.003784,0.997086
52,-2.929732,-0.549325,0.000000,-0.003784,-0.010376,1.004044
53,-1.647974,-0.366217,0.000000,0.003784,0.002564,0.998550
54,-2.380407,-0.183108,0.000000,0.004883,-0.009400,1.010758
55,-1.525902,0.061036,-0.122072,0.009155,-0.011719,1.013931
56,-0.427253,0.366217,0.061036,0.004395,-0.008179,1.003555
57,-0.305180,0.427253,0.000000,0.000000,-0.001831,1.000381
58,-0.244144,0.244144,-0.122072,0.003052,-0.012451,1.010513
59,1.037613,0.488289,-0.122072,-0.001831,-0.000610,0.990249
60,0.000000,0.061036,-0.122072,0.000122,0.001709,0.983169
61,-0.671397,-0.427253,-0.122072,-0.000488,-0.004639,0.993179
62,-0.610361,-0.427253,-0.244144,-0.004517,0.004028,0.993790
63,-1.525902,-0.427253,0.061036,0.001343,-0.006226,1.001602
64,-0.854505,-0.183108,0.000000,0.004395,-0.007691,1.006485
65,-0.671397,-0.061036,0.183108,0.005127,-0.006348,1.003311
66,-0.671397,0.000000,0.122072,-0.003174,-0.006104,1.001236
67,-0.732433,0.000000,0.061036,0.001831,-0.006836,1.005997
68,0.183108,0.244144,0.000000,0.004273,-0.007324,0.999161
69,0.000000,0.305180,0.061036,0.001221,-0.005737,1.002335
70,0.305180,0.183108,-0.122072,0.001343,-0.001831,0.993668
71,0.183108,0.061036,-0.122072,-0.005615,0.001953,0.980850
72,-0.305180,-0.366217,0.000000,0.002075,0.000000,0.993423
73,-0.671397,-0.610361,-0.122072,-0.005371,-0.003174,0.983780
74,-0.915541,-0.976577,0.000000,0.005982,0.006714,0.993301
75,-2.502480,-0.854505,0.000000,-0.001831,-0.008545,1.001114
76,-1.281758,-0.854505,0.000000,0.007202,-0.008179,0.997574
77,-1.831083,-0.488289,0.061036,0.016236,0.003906,0.991592
78,-2.380407,-0.183108,0.000000,-0.016480,-0.016358,1.000992
79,-0.549325,-0.793469,0.061036,0.021485,-0.005127,1.001236
80,-1.342794,-0.183108,0.061036,-0.011353,-0.008179,0.991470
81,-0.610361,-0.549325,-0.183108,0.003662,-0.003052,1.001358
82,-0.732433,-0.366217,0.000000,0.005982,-0.008057,1.015518
83,0.244144,-0.244144,0.000000,0.007080,-0.012818,1.015763
84,1.159686,0.000000,0.000000,-0.002197,-0.001709,0.989761
85,0.122072,-0.671397,-0.122072,-0.005859,-0.006470,0.995377
86,0.244144,-0.915541,-0.122072,-0.008057,-0.013672,0.982071
87,0.305180,-1.281758,-0.122072,0.007080,0.001099,0.994156
88,-0.061036,-1.403830,0.000000,-0.004028,-0.010498,1.007462
89,0.732433,-1.037613,0.000000,0.004028,-0.004883,0.990127
90,-0.061036,-0.915541,0.061036,-0.001465,-0.007324,0.992935
91,0.244144,-1.098650,0.000000,0.006104,0.001221,1.000137
92,-0.549325,-1.098650,0.000000,0.003052,-0.001587,1.001480
93,-0.488289,-0.915541,-0.183108,0.007446,-0.013184,1.016983
94,0.915541,-0.122072,-0.244144,0.015503,-0.022095,1.039078
95,2.929732,1.220722,-0.305180,0.018189,-0.031373,1.055192
96,6.958114,2.868696,-0.488289,0.012329,-0.020142,1.037613
97,7.934691,3.356985,0.244144,-0.001099,-0.014649,1.026993
98,11.169604,3.540093,0.244144,-0.005249,-0.008789,0.991226
99,10.254063,2.502480,0.183108,-0.020630,0.010742,0.976577
100,9.826810,0.976577,0.061036,-0.019532,0.020386,0.964248
101,7.751583,-0.549325,-0.122072,-0.014527,0.017090,0.964981
102,6.775006,-1.892119,-0.366217,-0.004150,0.013672,0.963882
103,4.699779,-2.868696,-0.427253,-0.008667,0.016358,0.970230
104,3.295949,-3.601129,-0.366217,0.010010,0.009033,0.997330
105,3.295949,-3.295949,-0.183108,0.012085,0.003662,1.000870
106,3.540093,-2.929732,0.000000,0.004273,0.002075,0.995621
107,3.662165,-2.929732,0.122072,0.002808,0.006958,1.004898
108,4.089418,-2.990768,0.183108,0.003296,0.004273,0.992569
109,4.638743,-3.234913,0.244144,0.007813,0.014893,0.990982
110,3.418021,-3.723201,0.122072,0.012940,0.021851,0.992081
111,2.502480,-3.540093,0.000000,0.013306,0.014649,0.988907
112,1.831083,-3.356985,-0.122072,0.013062,0.016114,1.001724
113,1.953155,-2.563516,0.000000,0.015503,0.009766,1.001358
114,2.014191,-1.709010,0.061036,0.014893,0.005737,1.006851
115,2.624552,-0.976577,0.366217,0.016968,0.013916,1.015763
116,3.295949,-0.244144,0.305180,0.019287,0.005615,1.013687
117,3.540093,0.488289,0.732433,0.008301,0.005249,0.996719
118,4.211490,0.793469,0.732433,0.009400,0.012329,0.982437
119,3.723201,0.671397,0.671397,0.010376,0.020630,0.983536
120,3.418021,0.549325,0.793469,0.001953,0.019532,0.983780
121,2.746624,0.305180,0.671397,0.009522,0.014160,0.992569
122,2.929732,0.122072,0.854505,0.002930,0.015259,0.991592
123,3.295949,-0.305180,0.854505,0.003906,0.018921,0.980362
124,2.136263,-0.732433,0.976577,-0.022827,0.019287,0.982681
125,0.976577,-1.770047,1.525902,0.027222,0.012818,0.986587
126,2.685588,-1.037613,1.220722,-0.006226,0.010132,1.011368
127,2.990768,-1.525902,1.342794,0.007568,0.012207,0.973159
128,2.624552,-1.159686,1.342794,0.024781,0.014893,1.003922
129,4.028382,-0.549325,1.403830,0.016968,0.019043,0.975235
130,3.479057,-0.976577,1.342794,0.002686,0.038941,0.962783
131,-0.610361,-0.732433,1.403830,0.025391,0.025025,1.012711
132,1.464866,0.671397,1.037613,-0.004395,0.005737,1.005509
133,3.356985,0.000000,1.037613,0.035157,0.025147,1.013687
134,2.075227,1.342794,1.342794,0.009888,-0.005493,1.058000
135,7.812619,2.502480,1.098650,0.008667,0.002319,1.008072
136,7.507439,1.709010,1.342794,0.009033,0.032715,0.996841
137,7.568475,2.014191,0.793469,0.006470,0.025757,0.995865
138,7.263294,1.342794,0.732433,-0.011475,0.049928,0.985977
139,6.103609,0.488289,0.366217,0.007202,0.039673,0.976822
140,3.723201,-0.915541,0.183108,0.002930,0.039429,0.977066
141,3.356985,-1.525902,-0.122072,0.006348,0.040528,0.994766
142,2.380407,-2.197299,-0.427253,-0.008301,0.043091,0.971084
143,1.098650,-3.234913,-0.610361,0.004517,0.043946,0.972183
144,-0.427253,-4.577707,-0.732433,-0.000122,0.037110,0.995987
145,-0.244144,-4.821851,-0.976577,0.013306,0.031250,0.998062
146,-0.244144,-4.516670,-0.976577,0.019409,0.033326,1.005386
147,-0.488289,-3.601129,-0.854505,0.027466,0.035279,1.004776
148,-0.488289,-2.746624,-0.854505,0.018799,0.034180,1.002090
149,-1.098650,-2.136263,-0.671397,0.019409,0.022705,1.000137
150,-0.061036,-1.159686,-0.610361,0.014771,0.028321,1.009659
151,0.244144,-0.976577,-0.305180,0.022461,0.026368,1.002823
152,1.525902,0.061036,-0.549325,0.021363,0.046021,0.986465
153,-1.037613,0.183108,-0.366217,0.017212,0.028809,1.005631
154,1.403830,1.220722,-0.549325,0.024170,0.040894,0.991226
155,-0.793469,1.342794,-0.366217,0.014038,0.027588,1.000259
156,0.244144,2.136263,-0.488289,0.004517,0.023316,1.015885
157,0.671397,2.319371,-0.122072,0.022095,0.011719,1.001602
158,2.380407,2.502480,-0.122072,0.000977,0.029419,0.995010
159,1.403830,2.014191,-0.427253,-0.000855,-0.005005,0.972427
160,3.540093,1.342794,0.000000,-0.001709,0.056519,0.978653
161,2.258335,0.488289,0.061036,-0.013184,0.070069,1.009659
162,0.610361,-0.671397,0.000000,-0.001343,0.060304,1.004776
163,1.525902,-0.915541,-0.305180,0.008423,0.045411,0.966567
164,-1.525902,-1.709010,-0.488289,0.007446,0.055543,0.970230
165,-3.234913,-1.892119,-0.549325,0.010132,0.032837,1.003677
166,-2.197299,-1.525902,-0.610361,0.019165,0.033448,0.972793
167,-3.112840,-1.464866,-0.793469,0.006592,0.044434,0.968032
168,-5.127031,-2.502480,-0.671397,-0.004761,0.036622,0.962905
169,-6.347753,-3.295949,-0.793469,0.012940,0.044556,0.964858
170,-7.446403,-3.967346,-0.549325,-0.005982,0.030884,0.951186
171,-9.460594,-4.699779,0.000000,0.003662,0.009522,1.005142
172,-6.347753,-4.150454,0.000000,0.014649,0.024903,0.979629
173,-7.751583,-4.638743,0.183108,0.011719,0.059815,0.930068
174,-13.855192,-5.798428,0.305180,0.023072,0.036988,0.980606
175,-13.000687,-5.676356,-0.183108,0.018677,0.017212,0.981704
176,-13.794156,-5.798428,0.122072,0.039063,0.017456,0.986465
177,-15.197986,-5.188067,1.037613,0.039429,-0.001343,1.019059
178,-11.230640,-3.845274,0.732433,0.015991,0.033692,0.932998
179,-17.822538,-6.164645,1.220722,-0.009766,0.059815,0.865492
180,-28.686961,-9.887846,1.892119,0.004883,0.043336,0.907973
181,-36.438544,-11.963073,2.136263,0.027832,-0.013550,0.992203
182,-30.640116,-11.596857,2.258335,0.018433,0.007935,0.973892
183,-35.034714,-11.902037,2.563516,0.018921,0.017456,0.967178
184,-40.283818,-12.695506,3.906310,0.030884,-0.012573,1.048600
185,-36.926833,-10.742351,3.601129,0.046632,-0.027100,1.035782
186,-36.133364,-9.582666,3.356985,0.042115,-0.044800,1.006363
187,-34.241245,-9.399557,2.929732,0.012207,-0.037598,1.034195
188,-36.682689,-9.704738,3.356985,0.044923,-0.035035,1.006973
189,-34.424353,-9.277485,3.051804,0.035645,-0.052247,1.005875
190,-31.738766,-8.484016,3.234913,0.044434,-0.039551,1.015274
191,-34.729534,-8.300908,4.455634,0.063722,-0.086549,1.011368
192,-30.762188,-7.934691,3.418021,0.012696,-0.060426,1.053239
193,-26.489662,-5.127031,2.075227,0.113039,0.054322,0.948623
194,-43.030442,-1.709010,3.234913,-0.010010,0.029786,0.940444
195,-54.627298,-2.929732,4.699779,0.109255,-0.065187,1.040787
196,-47.974365,1.586938,2.380407,0.021851,-0.066407,1.067643
197,-48.096437,2.685588,1.647974,0.048463,-0.120974,0.929335
198,-47.791257,6.652934,3.662165,0.041871,-0.084840,1.006119
199,-44.556344,7.629511,-0.549325,-0.015015,-0.132692,1.036027
200,-38.574807,5.737392,-3.234913,-0.034424,-0.093019,0.995865
201,-47.425040,5.859464,-18.677043,-0.041016,-0.001709,1.003433
202,-76.295109,11.902037,-43.274586,0.011475,-0.125978,1.038224
203,-74.525063,13.122759,-37.537194,0.082765,-0.293950,1.070207
204,-54.444190,6.530861,-16.906996,0.101808,-0.306767,1.132219
205,-42.786297,2.624552,-7.080186,0.042603,-0.132204,1.004532
206,-48.767834,1.525902,-7.873655,0.086915,0.024659,1.007950
207,-82.215610,8.300908,-8.178836,0.068482,0.091310,0.981949
208,-120.912490,11.352712,-5.859464,0.056031,-0.009400,0.956924
209,-117.250324,4.821851,17.090105,0.020386,-0.164675,0.960830
210,-100.892653,0.244144,5.920500,-0.051637,0.093507,0.770764
211,-135.805295,-12.146181,-11.718929,0.054932,0.472419,0.782361
212,-328.007935,-4.699779,-7.995727,0.053834,0.416876,1.609155
213,-451.422904,-17.395285,21.911955,-0.255863,0.178958,1.408347
214,-512.886244,-39.673457,1.586938,-0.092531,0.079591,1.289937
215,-632.150759,-31.372549,18.127718,0.188113,-0.022827,1.545434
216,-686.472877,-30.090791,44.678416,0.165042,-0.847913,1.934844
217,-799.267567,4.089418,166.018158,-1.660548,-0.144900,1.999969
218,-250.980392,15.808347,-1.892119,-0.873304,-1.410422,1.999969
219,317.753872,41.992828,-37.781338,-0.590463,0.673228,1.999969
220,203.250172,51.636530,-60.181582,-0.140383,0.555917,0.711315
221,-26.428626,-28.870069,33.081559,-0.281498,0.593393,0.083497
222,-117.616541,-80.323491,47.913329,0.199344,0.449836,0.494881
223,30.701152,-36.072328,-1.037613,0.241215,0.345586,0.835218
224,43.884947,-5.554284,-28.442817,0.344366,0.694469,0.670665
225,-11.596857,17.029068,-38.147555,0.161257,0.464118,1.026383
226,40.650034,32.227054,-52.185855,0.006958,0.439826,1.047745
227,64.332036,22.827497,-53.284504,-0.154177,0.489631,0.925429
228,69.886320,2.929732,-43.701839,-0.247807,0.378912,1.051652
229,102.845808,-6.103609,-34.546426,-0.283452,0.370001,1.112200
230,122.499428,-5.676356,-25.329976,-0.280766,0.369024,1.150896
231,139.345388,4.028382,-17.700465,-0.272587,0.312993,1.243183
232,163.210498,15.991455,-11.535821,-0.256596,0.264286,1.237568
233,182.070649,22.705425,-4.150454,-0.239994,0.195560,1.145159
234,198.855573,23.010605,2.990768,-0.164797,0.137697,1.037003
235,209.842069,19.836728,8.850233,-0.065553,0.127077,0.989639
236,216.128786,15.869383,11.413748,0.034058,0.120974,1.057145
237,223.453117,14.526589,9.948882,0.104982,0.129519,1.244526
238,235.172045,16.357671,5.249104,0.163577,0.123415,1.386984
239,248.416876,19.653620,-1.342794,0.176761,0.086671,1.462181
240,261.051347,22.705425,-8.361944,0.183841,0.015259,1.432151
241,268.802930,25.207904,-14.831769,0.169558,-0.049561,1.356466
242,269.840543,28.503853,-21.362631,0.163333,-0.173220,1.197894
243,260.929274,38.269627,-28.137636,0.154299,-0.286381,1.082658
244,243.595026,52.429999,-34.180209,0.124147,-0.343145,1.064225
245,226.504921,65.613794,-38.452735,0.096681,-0.317388,1.271992
246,214.053559,68.848707,-40.588998,0.034302,-0.282597,1.510521
247,210.269322,61.646448,-41.687648,-0.038941,-0.269047,1.922515
248,209.781033,55.848020,-39.551385,-0.079591,-0.369390,1.999969
249,227.298390,54.688334,-38.513771,-0.063111,-0.573983,1.999969
250,241.886015,61.463340,-41.199359,-0.062379,-0.652110,1.941436
251,228.885328,66.102083,-40.894179,-0.161379,-0.719127,1.999969
252,229.373617,62.745098,-37.354086,-0.285405,-0.809216,1.999969
253,253.116655,57.434958,-30.823224,-0.334356,-0.850355,1.999969
254,268.192569,57.129778,-23.804074,-0.216190,-0.889174,1.905547
255,263.431754,63.965820,-19.287404,0.040528,-0.873060,1.513939
256,250.247959,72.693980,-21.850919,0.216190,-0.837537,1.373556
257,231.326772,77.027543,-24.536507,0.230228,-0.878187,1.357565
258,218.814374,74.219883,-23.559930,0.110597,-0.995377,1.330220
259,205.264363,63.721675,-15.747311,-0.056641,-1.198383,1.198749
260,187.685969,50.232700,-3.540093,-0.090211,-1.498436,1.031388
261,162.417029,42.359045,6.042573,0.088258,-1.911284,0.830579
262,126.222629,43.945983,7.690547,0.382940,-2.000031,0.478645
263,91.432059,55.420768,-1.159686,0.607187,-2.000031,-0.015015
264,60.730907,65.369650,-8.422980,0.545052,-2.000031,-0.517952
265,-0.732433,36.987869,5.371176,0.282475,-2.000031,-0.425177
266,-56.824598,-22.217136,31.372549,0.066407,-1.634302,0.427619
267,-59.205005,-63.904784,54.077974,-0.073732,-1.097063,1.067277
268,-156.984817,-115.480278,44.800488,0.241947,-1.651759,-0.787243
269,-228.213931,-132.875563,64.026856,0.053956,-0.630869,0.446662
270,-147.280079,-62.806134,49.744411,-0.052247,0.242802,1.289570
271,-175.112535,-42.725261,42.236973,-0.232547,0.971572,1.855863
272,-277.409018,-112.001221,80.506600,0.264164,0.263920,1.256245
273,-275.272755,-88.380255,85.694667,0.511727,-0.243900,1.510277
274,-229.556725,-48.523690,59.205005,0.853651,-0.247196,1.656886
275,-242.618448,-48.096437,49.744411,1.151995,0.070558,1.999969
276,-188.357366,-29.663539,25.818265,0.797864,-0.270390,1.999969
277,-108.888380,-16.784924,0.000000,0.012573,-0.151736,1.999969
278,-115.480278,-17.761501,13.183795,-0.885023,-0.205570,1.999969
279,-71.595331,-48.584726,32.471199,-0.682750,-0.275395,0.978286
280,-44.129091,-72.999161,29.907683,0.446174,0.286748,1.574975
281,-76.417182,-65.003433,24.597543,1.047990,0.082155,1.667872
282,-52.185855,-25.452049,10.864424,0.036133,0.055421,1.246601
283,-45.777066,-33.997101,7.263294,-0.500252,-0.056886,1.076677
284,-43.762875,-54.077974,13.000687,0.323980,0.062501,1.273701
285,-31.921874,-34.668498,5.004959,0.225345,0.038941,1.148455
286,-35.584039,-27.649348,2.685588,-0.085206,0.032837,1.147967
287,-32.471199,-30.945296,2.990768,0.062257,-0.033082,1.160540
288,-14.099336,-25.024796,-0.732433,0.088746,0.035889,0.982193
289,-20.691234,-22.461280,-0.732433,0.032471,0.029786,0.972549
290,-27.649348,-20.630198,3.051804,0.143557,0.053956,1.088518
291,-23.865110,-11.047532,1.770047,0.094240,0.016358,1.110735
292,-19.958801,-5.249104,2.563516,0.075929,0.032471,1.045914
293,-20.996414,-2.746624,2.746624,0.040162,0.036500,0.991226
294,-22.339208,-2.136263,2.685588,0.072389,0.081788,1.025406
295,-24.597543,-2.929732,3.540093,0.040406,-0.007202,1.055192
296,-16.968032,-2.136263,1.892119,0.040040,0.011475,0.995621
297,-22.095064,-2.929732,0.671397,0.020630,-0.021363,1.057877
298,-12.573434,-3.784237,0.915541,0.033326,-0.029786,1.030900
299,-9.399557,-3.662165,0.122072,0.063233,-0.071290,0.882826
300,-16.418708,-4.150454,0.915541,0.054200,-0.111574,0.997208
301,-14.221408,-4.272526,0.671397,0.079713,-0.115358,0.947524
302,-15.747311,-4.028382,0.854505,0.056275,-0.035645,0.997696
303,-14.465553,-3.479057,1.709010,0.044068,0.005005,1.077043
304,-11.413748,-2.685588,0.976577,0.066407,-0.040406,0.969497
305,-11.291676,-2.807660,0.671397,0.043091,-0.011231,0.991470
306,-14.404517,-3.112840,0.488289,0.058961,-0.004273,0.983047
307,-13.672084,-3.906310,-0.122072,0.041260,-0.028199,1.031510
308,-11.047532,-4.150454,-0.488289,0.040040,-0.031983,1.010513
309,-10.437171,-4.821851,-0.671397,0.031983,-0.019532,0.966812
310,-11.718929,-6.591897,-0.671397,0.036622,-0.010010,0.953872
311,-13.977264,-8.178836,-0.854505,0.050172,-0.007813,0.956069
312,-19.409476,-8.484016,-1.220722,0.057008,-0.020508,0.974258
313,-20.935378,-8.667124,-1.342794,0.041016,-0.016236,0.949477
314,-23.559930,-9.948882,-1.281758,0.047120,-0.005371,0.940322
315,-29.968719,-10.986496,-0.671397,0.057862,-0.048585,0.976211
316,-27.527276,-8.667124,-0.671397,0.118898,-0.125002,1.003922
317,-20.813306,-5.859464,0.244144,0.095094,-0.078248,1.025040
318,-20.447089,-4.150454,0.366217,-0.017456,0.089113,0.919081
319,-29.480430,-0.976577,1.037613,0.246220,0.080323,0.770153
320,-30.762188,0.427253,1.220722,0.012207,-0.033448,1.044816
321,-17.456321,-3.234913,1.709010,0.126589,-0.034180,1.024918
322,-25.757229,0.610361,-0.244144,0.031983,-0.046265,1.060441
323,-27.588312,0.000000,-0.976577,0.080079,-0.063966,1.048356
324,-28.137636,0.854505,-1.953155,0.045899,-0.056764,0.958145
325,-34.119173,0.061036,-2.136263,0.072023,-0.060182,0.995987
326,-37.537194,1.281758,-1.953155,0.048707,-0.072145,0.965957
327,-41.992828,0.915541,-0.976577,0.077760,-0.063478,0.999283
328,-39.002060,2.929732,3.662165,0.122072,-0.093874,1.005631
329,-49.622339,6.775006,5.798428,0.071778,-0.153811,1.031144
330,-35.400931,8.545052,7.568475,0.046143,-0.126101,1.033097
331,-28.870069,6.775006,7.568475,0.061036,-0.075929,1.006729
332,-31.616693,7.995727,4.699779,0.038331,-0.066529,1.013687
333,-35.217823,7.446403,-2.380407,-0.009522,-0.073854,0.941299
334,-35.889220,4.821851,-11.902037,-0.054688,-0.167483,1.038102
335,-35.584039,6.530861,-22.522316,-0.045655,-0.066773,1.080583
336,-40.650034,4.638743,-40.772107,0.067140,-0.177981,0.961685
337,-25.574121,-1.281758,-36.072328,0.183963,-0.187747,1.010025
338,-3.784237,-6.652934,-18.005646,0.159182,-0.446540,1.238666
339,-12.573434,4.760815,1.586938,0.248173,-0.070314,1.125750
340,-39.368276,19.165332,-6.286717,0.072145,0.180545,0.984146
341,-84.351873,34.302281,-14.404517,0.127687,0.178714,0.920302
342,-144.167239,43.457694,-5.371176,-0.024170,0.450202,0.854627
343,-212.954910,30.762188,-21.423667,-0.088502,0.516365,0.186893
344,-192.019532,-12.695506,15.320058,-0.167361,0.436286,0.793103
345,-287.663081,-48.401617,-34.851606,-0.428717,0.754650,1.802152
346,-479.682612,-113.649195,-53.955901,-0.520027,0.192508,1.539208
347,-671.702144,-202.822919,13.000687,-0.030884,0.413336,1.266133
348,-818.616007,-251.651789,16.540780,-0.051026,-0.111086,1.318257
349,-891.248951,-181.582361,76.539254,0.984756,-1.278462,1.962676
350,-1076.432441,-110.231174,220.828565,-0.649424,-1.600366,1.999969
351,-227.542535,62.378882,-40.161746,-0.646372,-2.000031,1.999969
352,309.880217,106.446937,-91.798276,-0.370977,0.601694,1.999969
353,163.820859,94.483864,-116.700999,-0.407233,1.001114,1.599023
354,1.831083,15.197986,-19.897765,-0.940200,0.441047,1.284443
355,-58.228428,-51.087205,48.523690,-0.422980,0.202274,0.883680
356,45.410849,-36.682689,35.156786,-0.295048,0.135988,0.898451
357,129.945830,-16.174563,27.710384,-0.178347,0.408331,0.663951
358,83.009079,-10.193027,29.358358,-0.017823,0.473152,0.792004
359,70.801862,-0.366217,26.550698,0.013062,0.333745,1.072282
360,123.353933,12.512398,13.427939,0.088746,0.366217,1.070695
361,143.923095,14.526589,3.906310,0.106935,0.455207,1.047501
362,145.448997,10.864424,-3.112840,0.127443,0.390997,1.098039
363,170.229648,15.320058,-13.488975,0.128176,0.340826,1.135637
364,191.103990,24.048219,-22.461280,0.104250,0.333623,1.145037
365,200.747692,32.593271,-28.564889,0.089357,0.241093,1.225971
366,218.692302,38.025483,-31.433585,0.040040,0.195682,1.303853
367,239.993896,42.053864,-33.936065,0.031006,0.153445,1.399924
368,255.374990,45.166705,-33.875029,0.035523,0.064576,1.491844
369,275.333791,50.049592,-33.569848,0.072755,-0.037842,1.438865
370,293.095293,54.383154,-33.020523,0.112673,-0.086061,1.381857
371,299.931334,54.993515,-32.715343,0.147707,-0.124269,1.384665
372,306.584268,53.589685,-31.860838,0.152102,-0.205325,1.260761
373,308.476387,50.659953,-31.921874,0.189578,-0.260868,1.070207
374,293.827726,48.096437,-33.630884,0.179446,-0.412604,0.664439
375,264.225223,57.190814,-36.621653,0.294560,-0.444831,0.607065
376,224.429694,70.679789,-37.842374,0.271733,-0.338262,1.007340
377,193.240253,68.970779,-40.894179,0.286748,-0.225223,1.818875
378,190.066377,66.468299,-43.152514,0.251591,-0.227054,1.999969
379,215.884642,69.947356,-43.762875,0.191531,-0.455695,1.999969
380,256.839857,78.492409,-39.124132,0.191775,-0.607797,1.999969
381,266.300450,76.295109,-34.790570,0.293706,-0.631113,1.999969
382,254.825666,70.069429,-31.799802,0.414313,-0.634165,1.999969
383,268.253605,69.092851,-34.912642,0.540780,-0.668589,1.999969
384,296.391241,73.670558,-42.542153,0.603891,-0.729137,1.999969
385,300.541695,73.487449,-47.852293,0.573373,-0.810071,1.881621
386,290.836957,66.346227,-49.927520,0.485847,-0.882094,1.654932
387,276.432441,55.664912,-51.148241,0.396124,-0.998917,1.507958
388,255.802243,53.894865,-52.368963,0.249027,-1.182635,1.529564
389,235.111009,60.303655,-51.514458,0.108888,-1.419577,1.480369
390,219.302663,69.031815,-48.157473,0.075074,-1.683253,1.238300
391,192.019532,80.567636,-43.762875,0.243046,-2.000031,0.938125
392,152.407111,93.324178,-42.236973,0.507942,-2.000031,0.782971
393,112.611582,111.024643,-39.551385,0.606088,-2.000031,0.566293
394,98.329137,113.588159,-33.691920,0.518196,-2.000031,-0.176761
395,76.844434,55.848020,-9.216449,0.445197,-2.000031,-0.819959
396,6.164645,-37.293050,26.428626,0.387335,-2.000031,-0.413214
397,-45.838102,-94.728008,53.101396,0.351690,-1.661158,0.552987
398,-47.852293,-96.498054,62.439918,0.173098,-1.232441,1.280171
399,-52.368963,-65.613794,68.177310,-0.064210,-0.969497,1.653956
400,-23.132677,-31.189441,71.046006,-0.099123,-1.385519,-1.615869
401,-146.974899,18.493935,62.867170,0.119509,0.570199,-0.224125
402,-188.723583,-65.674830,46.936751,0.595590,0.603525,0.468513
403,-136.903944,-63.721675,27.100023,0.528450,1.434592,0.737682
404,-324.040589,-72.755016,28.503853,0.034424,0.066651,0.165774
405,-375.738155,-70.740826,49.073014,-0.005615,-0.672251,0.952285
406,-336.125734,-44.800488,44.068055,0.410407,-0.567025,1.999969
407,-271.183337,-11.902037,40.222782,0.695567,-0.386603,1.999969
408,-173.830777,0.732433,16.540780,0.514412,-0.440314,1.999969
409,-120.607309,21.850919,9.277485,-0.272221,-0.383185,1.999969
410,-120.790417,-5.371176,28.809033,-0.573007,-0.239872,1.999969
411,-51.880674,-15.686275,30.701152,-0.297124,-0.196414,1.123919
412,-38.574807,-35.584039,27.710384,0.306767,0.268070,1.100237
413,-64.820325,-37.109941,18.554971,0.424445,0.009277,1.503441
414,-26.916915,-30.640116,8.056764,-0.184939,-0.008667,1.270771
415,-31.311513,-46.204318,10.620279,0.015503,0.116945,1.260883
416,-47.364004,-46.204318,7.690547,0.368414,0.057740,1.333516
417,-41.138323,-24.109255,0.854505,0.086427,-0.024170,1.296407
418,-35.706111,-13.977264,0.305180,0.057374,0.024292,1.119158
419,-39.063096,-4.577707,0.305180,0.123537,0.036011,1.240131
420,-34.729534,0.976577,1.342794,-0.044923,-0.080323,1.101579
421,-17.395285,2.258335,1.098650,0.051637,0.023804,1.110857
422,-24.719615,7.202258,2.441444,0.068116,0.007935,1.066789
423,-21.423667,11.535821,2.685588,-0.012329,0.007813,1.015640
424,-26.306554,10.986496,4.211490,-0.017700,-0.020508,1.031266
425,-23.010605,9.643702,5.249104,0.006226,-0.020630,1.053483
426,-21.301595,9.643702,4.577707,-0.000855,-0.020264,1.015763
427,-21.362631,9.460594,5.432212,-0.017090,-0.013184,1.033829
428,-20.874342,9.765774,5.371176,-0.023438,-0.030152,1.037858
429,-18.188754,10.193027,5.004959,-0.033570,-0.021118,1.041154
430,-15.197986,10.803388,5.371176,-0.020996,-0.034058,1.032731
431,-13.183795,10.864424,5.371176,-0.043458,-0.044556,1.018814
432,-10.864424,9.887846,5.127031,-0.040894,-0.036744,1.000748
433,-8.606088,8.789197,4.699779,-0.065797,-0.020386,0.972305
434,-9.521630,5.493248,4.455634,-0.059205,-0.025635,0.995743
435,-8.545052,3.845274,3.540093,-0.043214,-0.016724,0.980606
436,-10.254063,1.342794,2.685588,-0.059449,-0.011719,0.960952
437,-12.085145,-1.159686,1.892119,-0.048829,-0.018677,0.977432
438,-13.855192,-2.929732,1.525902,-0.050172,-0.023316,0.971695
439,-14.343481,-4.089418,1.525902,-0.040284,-0.042237,0.990127
440,-12.817578,-3.906310,1.770047,-0.035035,-0.039796,1.014786
441,-13.366903,-4.150454,2.319371,-0.032593,-0.067018,1.033585
442,-9.948882,-3.662165,0.976577,-0.073610,-0.104005,1.000259
443,-7.751583,-5.127031,1.098650,-0.045899,-0.038331,0.986954
444,-10.742351,-7.751583,1.098650,-0.078859,-0.041138,0.963516
445,-10.681315,-11.596857,-0.183108,-0.058961,-0.034791,0.955947
446,-13.366903,-14.770733,-1.037613,-0.036500,-0.040040,0.992325
447,-13.244831,-15.014878,-2.380407,-0.054688,0.055787,1.166400
448,-10.498207,-14.648661,-2.685588,-0.031128,-0.075929,1.091203
449,-16.723888,-15.014878,-1.037613,-0.007080,-0.073365,0.987320
450,-14.160372,-12.878614,-0.976577,-0.014038,-0.076661,1.003311
451,-13.672084,-12.024109,-0.244144,0.009155,-0.043091,0.998795
452,-17.090105,-10.864424,0.427253,0.017700,-0.038331,0.998306
453,-20.691234,-10.498207,0.122072,-0.027466,-0.062135,0.993423
454,-20.080873,-10.864424,0.427253,0.012451,-0.065064,1.021988
455,-19.592584,-9.033341,0.183108,-0.007568,-0.054078,1.000626
456,-21.606775,-9.277485,-0.122072,-0.008423,-0.031495,0.951186
457,-27.100023,-9.704738,-0.610361,-0.010498,-0.026490,0.954604
458,-35.156786,-10.009918,-0.732433,-0.011231,-0.048219,0.961929
459,-36.499580,-9.887846,-1.770047,-0.004273,-0.059693,0.959731
460,-40.283818,-9.521630,-1.098650,-0.058228,-0.091310,1.006729
461,-46.021210,-11.230640,3.540093,0.030274,-0.106569,1.013199
462,-43.457694,-8.911269,5.065995,0.017945,-0.153689,0.953140
463,-41.260395,-3.479057,8.300908,0.073365,-0.114382,1.046525
464,-40.955215,-0.183108,7.385367,-0.031495,-0.160647,1.056901
465,-36.987869,0.610361,8.484016,-0.001587,-0.128542,1.004044
466,-40.039673,0.183108,5.432212,-0.016480,-0.101320,1.010880
467,-43.091478,-1.037613,2.807660,-0.030030,-0.193973,0.970230
468,-35.034714,-3.051804,3.906310,-0.066651,-0.124147,1.040787
469,-29.785611,-3.173877,-10.803388,-0.053590,-0.186404,0.991348
470,-39.185168,-4.943923,-34.363317,-0.047974,-0.066163,0.958999
471,-42.053864,1.953155,-42.175937,0.047120,-0.234379,0.900893
472,-32.349126,6.897078,-19.775692,0.110475,-0.201297,1.092668
473,-11.474784,4.638743,-13.305867,-0.021485,-0.260990,0.999649
474,-18.982223,-11.047532,-10.986496,-0.016724,-0.059815,1.004898
475,-38.513771,-18.554971,-17.090105,-0.003052,0.014527,0.939101
476,-64.515145,-13.550011,-27.954528,0.073854,0.073487,0.908705
477,-100.770581,-7.324331,-32.288090,0.226444,-0.068605,0.995621
478,-94.483864,-10.315099,-23.315785,0.060426,0.326421,0.601572
479,-156.191348,-13.916228,-51.575494,0.147219,0.709239,0.532601
480,-298.100252,-30.212863,-55.237659,0.164187,0.367926,0.946181
481,-542.244602,-13.794156,-19.348440,0.099001,0.960830,1.257832
482,-696.055543,-47.730220,-11.535821,-0.321904,0.447395,1.531273
483,-784.313726,-96.009766,3.723201,-0.342901,0.102296,1.171160
484,-871.351186,-144.106203,16.174563,-0.208988,-0.384771,0.511971
485,-980.788891,-192.629892,53.528649,1.020523,-2.000031,1.304341
486,-950.759136,-105.897612,205.813687,-0.576303,-0.868544,1.999969
487,-144.167239,-91.126879,-79.163806,-0.551888,-1.489158,1.999969
488,105.409323,-85.023270,-47.180896,-0.718029,0.671153,1.999969
489,-55.664912,-60.059510,-41.748684,-0.527352,0.952895,1.999969
490,-94.300755,-60.547799,41.382467,-0.865614,0.735729,1.999969
491,73.243305,-46.631571,45.899138,-0.625498,0.344366,1.999969
492,232.486458,-6.103609,40.283818,-0.469123,0.422736,1.699001
493,217.837797,-11.108568,50.904097,-0.305303,0.368292,1.119524
494,194.949264,-16.479744,59.876402,-0.249271,0.098146,1.003922
495,241.397726,-9.155413,54.993515,-0.125246,-0.028931,0.765148
496,259.586481,-3.906310,50.232700,-0.040406,0.019532,0.502571
497,245.670253,-6.042573,45.777066,0.040894,-0.016480,0.403815
498,243.778134,-5.798428,37.354086,0.134646,-0.036255,0.416876
499,244.327459,-2.990768,25.818265,0.171023,0.027955,0.503548
500,237.979706,-3.784237,15.197986,0.152712,0.054566,0.679942
501,240.177005,-8.117800,5.371176,0.112673,0.063722,0.932631
502,252.872511,-14.282444,-3.479057,0.077028,0.070436,1.226825
503,268.192569,-17.517357,-11.047532,0.023072,0.027344,1.527733
504,292.790112,-11.169604,-18.127718,0.004028,-0.096193,1.616358
505,320.012207,1.709010,-24.109255,-0.015991,-0.181643,1.468772
506,333.562219,13.672084,-27.466239,-0.036622,-0.265873,1.303853
507,334.172580,22.339208,-27.588312,-0.082887,-0.381476,1.177020
508,335.149157,24.414435,-26.001373,-0.074830,-0.407599,1.214740
509,330.998703,26.733806,-26.367590,-0.021729,-0.464485,1.289693
510,324.711986,41.504540,-32.837415,0.095094,-0.574350,1.173236
511,308.171206,74.158846,-40.588998,0.129152,-0.731579,0.802625
512,279.911498,86.915389,-40.344854,0.159670,-0.659800,0.744152
513,244.937819,70.252537,-42.114900,0.197635,-0.561532,1.017105
514,228.030823,47.058824,-47.364004,0.151003,-0.480964,1.510399
515,217.410544,47.486076,-53.589685,0.088380,-0.434089,1.999969
516,210.635538,73.365377,-56.458381,0.004517,-0.605234,1.999969
517,235.660334,99.855039,-56.824598,-0.120119,-0.811902,1.999969
518,258.609903,109.559777,-49.561303,-0.184207,-0.866590,1.999969
519,260.685130,98.817426,-35.706111,-0.173587,-0.921767,1.999969
520,279.301137,85.755703,-24.475471,0.032349,-1.003555,1.999969
521,306.279088,89.723049,-23.437858,0.265263,-0.984756,1.981109
522,284.916457,94.544900,-26.245518,0.307256,-1.050919,1.628443
523,259.403372,89.173724,-29.663539,0.255863,-1.208026,1.648463
524,249.515526,79.835203,-34.119173,0.164675,-1.401511,1.701930
525,235.965515,74.280919,-35.095750,0.109133,-1.696559,1.634180
526,217.105364,78.370336,-30.457008,0.203983,-2.000031,1.397238
527,189.150835,90.577554,-27.405203,0.537972,-2.000031,1.000015
528,145.998322,116.700999,-32.715343,0.785168,-2.000031,0.449836
529,114.625772,142.397192,-36.743725,0.794690,-2.000031,-0.432136
530,87.708858,113.954376,-31.860838,0.571664,-2.000031,-1.064347
531,-2.746624,21.179522,-2.319371,0.042359,-2.000031,-1.192645
532,-150.392920,-141.481651,33.325704,0.351324,-2.000031,-1.429587
533,-280.704967,-270.939193,52.246891,0.965835,-1.621118,0.403571
534,-119.386587,-182.009613,17.883574,0.399908,-0.027710,1.999969
535,-112.245365,-71.046006,5.676356,-0.695201,1.184588,1.999969
536,-185.122454,-84.351873,49.317159,-0.726818,0.682506,0.311650
537,-279.545281,-113.832303,72.022583,0.164675,-0.330449,-0.299565
538,-298.466468,-79.407950,72.877089,0.620737,-0.445319,1.174578
539,-308.049134,-72.510872,71.717403,1.152239,-0.160037,1.999969
540,-214.541848,-29.785611,45.044633,1.285298,-0.451179,1.999969
541,-87.037461,3.845274,1.342794,0.421637,-0.115358,1.733913
542,-135.072862,-22.644388,17.029068,-1.074479,-0.085573,1.999969
543,-96.192874,-66.407263,45.960174,-1.152361,-0.558236,0.898573
544,-47.119860,-122.377356,45.960174,0.408576,0.411261,1.813260
545,-81.239033,-103.395132,35.400931,1.772854,0.217044,1.999969
546,-38.452735,-18.860151,0.305180,0.175906,-0.046265,1.180804
547,-50.232700,-29.358358,-3.356985,-0.707652,-0.170169,1.028458
548,-57.007706,-59.571221,6.591897,0.367559,0.000244,1.202045
549,-43.823911,-36.865797,-3.173877,0.377935,0.156741,1.548241
550,-49.561303,-20.447089,-1.464866,-0.061769,-0.093263,1.129168
551,-20.691234,-20.874342,-6.042573,0.061646,0.015259,1.141253
552,-26.550698,-16.601816,-2.441444,0.132815,-0.048951,0.972183
553,-22.339208,-12.451362,1.831083,0.119631,-0.048341,1.091081
554,-13.916228,-10.437171,1.220722,0.031739,0.031250,0.987198
555,-20.508125,-11.352712,3.784237,0.070924,0.034180,1.004288
556,-21.423667,-9.277485,3.418021,0.067750,0.042359,1.001480
557,-25.696193,-8.178836,5.127031,0.045411,0.007691,1.009659
558,-23.376822,-7.568475,5.249104,0.050172,0.067018,1.004166
559,-27.954528,-7.385367,5.615320,0.057740,0.019532,1.015763
560,-27.344167,-7.324331,4.028382,0.015747,-0.011719,0.970108
561,-23.682002,-9.643702,3.356985,0.028443,-0.014649,0.981827
562,-24.170291,-10.498207,2.868696,0.045167,-0.001587,1.045426
563,-25.024796,-10.131991,2.685588,0.050660,-0.032959,1.044450
564,-18.554971,-8.545052,1.770047,0.046265,0.002564,1.068132
565,-15.808347,-7.873655,2.258335,0.068605,-0.014038,1.053605
566,-14.038300,-6.530861,1.586938,0.041871,-0.020996,1.032242
567,-12.207218,-6.225681,1.709010,0.052735,0.044800,1.031144
568,-11.474784,-6.225681,1.098650,0.055787,-0.044678,0.950454
569,-13.244831,-6.347753,0.793469,0.060060,-0.057130,0.974380
570,-12.329290,-6.042573,0.549325,0.057008,-0.054322,0.982071
571,-11.657893,-5.737392,0.549325,0.060914,-0.049928,1.000259
572,-11.169604,-4.699779,1.037613,0.054932,-0.073487,0.994400
573,-8.911269,-4.943923,1.342794,0.059449,-0.053834,1.023209
574,-6.042573,-5.004959,1.525902,0.060060,-0.039551,1.016739
575,-5.310140,-4.638743,1.647974,0.051026,-0.054444,1.007706
576,-3.173877,-5.004959,1.403830,0.037842,-0.038087,0.964492
577,-3.051804,-6.713970,0.671397,0.039918,-0.022461,0.962051
578,-4.760815,-7.873655,-0.244144,0.046632,-0.022950,0.943252
579,-6.469825,-9.582666,-0.793469,0.039673,0.101808,0.897108
580,-14.709697,-10.803388,0.671397,0.030762,-0.010864,0.877821
581,-9.338521,-7.141222,1.220722,0.052735,-0.017334,1.043351
582,-11.291676,-9.460594,1.525902,0.131472,-0.041871,1.010636
583,-15.503166,-3.356985,1.892119,0.048219,-0.058839,0.933364
584,-14.831769,-5.127031,2.014191,0.083375,-0.029541,0.966323
585,-19.348440,-3.418021,1.342794,0.070069,0.002441,0.977066
586,-32.043946,-3.418021,1.647974,0.077516,-0.050660,1.007095
587,-30.823224,-1.403830,1.831083,0.040772,-0.082887,0.953262
588,-33.081559,-0.305180,1.770047,0.100343,-0.041505,1.000626
589,-41.260395,4.516670,3.540093,0.068116,0.122438,1.268574
590,-45.654994,1.770047,2.136263,0.032349,-0.089967,1.044816
591,-34.607462,0.366217,2.014191,0.080079,-0.024292,0.956680
592,-36.804761,4.760815,3.906310,0.097047,0.001221,0.981338
593,-64.148928,5.981537,3.356985,0.094972,-0.156985,0.999039
594,-49.927520,8.117800,9.704738,0.064088,-0.147341,1.011490
595,-42.298009,9.338521,9.826810,0.088991,-0.123659,1.048844
596,-42.236973,11.902037,7.568475,0.001099,-0.073976,1.006851
597,-41.260395,9.094377,-4.028382,-0.053834,-0.070802,0.946792
598,-39.551385,1.831083,-18.921187,-0.055787,-0.160281,1.043107
599,-43.152514,0.488289,-31.616693,0.013184,-0.121706,1.045914
600,-39.246204,-5.127031,-35.156786,0.107057,-0.238407,1.060197
601,-28.381781,-6.103609,-24.048219,0.157229,-0.292973,1.082170
602,-21.545739,-4.455634,-7.934691,0.185061,-0.212528,1.132219
603,-50.782025,9.521630,-3.356985,0.129030,0.011963,1.048600
604,-77.271687,20.996414,-16.174563,0.134035,0.041627,1.020279
605,-99.794003,29.724575,-15.075914,0.046387,0.260990,0.916396
606,-179.751278,32.349126,-38.941024,-0.128420,0.499886,0.797986
607,-211.795224,-15.381094,-32.776379,-0.433722,-0.073121,0.569833
608,-205.264363,-70.801862,-2.990768,-0.416022,0.808606,1.282002
609,-347.905699,-141.542687,-57.801175,-0.332525,0.488899,1.581689
610,-578.622110,-255.436027,-28.625925,-0.521126,0.027588,1.303731
611,-758.800641,-302.006561,52.063783,0.186038,0.104372,0.953750
612,-862.623026,-263.675898,72.938125,0.414923,0.063478,1.016129
613,-982.681010,-236.758984,87.647822,1.389548,-2.000031,1.999969
614,-952.468147,-94.239719,237.308309,0.273930,-0.176638,1.999969
615,1.159686,36.316472,-94.850080,0.010620,-1.091447,1.999969
616,367.376211,96.620127,-95.521477,-0.380377,0.771130,1.999969
617,197.695888,88.929580,-124.818799,-0.553841,0.662242,1.683131
618,64.148928,28.015564,-12.939651,-1.118181,0.406500,0.856825
619,-8.728161,-23.132677,41.809720,-0.604379,0.172732,0.655283
620,67.139696,3.723201,58.472572,-0.490120,0.135012,0.625864
621,146.425574,32.776379,54.688334,-0.361944,0.205570,0.529305
622,122.865644,44.007019,63.355459,-0.168948,0.293706,0.459846
623,93.995575,49.011978,72.693980,-0.082643,0.203250,0.740246
624,121.034562,51.697566,72.510872,0.072511,0.203616,0.967056
625,154.604410,45.410849,66.834516,0.228519,0.327520,1.054826
626,168.581674,32.227054,58.167391,0.394659,0.387579,1.170794
627,189.211872,29.175250,42.175937,0.536385,0.416876,1.273945
628,213.992523,38.513771,19.043259,0.573739,0.402472,1.382467
629,233.646143,50.354772,-3.051804,0.522713,0.307134,1.400900
630,254.154269,60.303655,-20.202945,0.429328,0.180667,1.404685
631,274.357214,62.378882,-31.250477,0.324102,0.054078,1.364767
632,291.691463,57.862211,-36.255436,0.243046,-0.038453,1.374777
633,302.433814,53.528649,-38.025483,0.218387,-0.102907,1.509178
634,314.274815,53.101396,-38.330663,0.239994,-0.187259,1.450584
635,326.543069,45.349813,-40.100710,0.309331,-0.213016,1.365866
636,330.327306,29.846647,-45.044633,0.445075,-0.208255,1.249897
637,321.110857,22.461280,-55.786984,0.587411,-0.264652,1.169574
638,305.302510,34.424353,-76.356146,0.670176,-0.375860,1.076432
639,286.015106,54.993515,-96.498054,0.668467,-0.378180,1.194232
640,259.708553,65.430686,-113.405051,0.616953,-0.385504,1.392721
641,247.135119,68.360418,-128.053712,0.472786,-0.409796,1.509422
642,239.200427,73.609522,-137.331197,0.247807,-0.465217,1.734035
643,216.556039,83.558404,-132.997635,0.038209,-0.560311,1.999969
644,208.926528,92.408637,-121.217670,-0.095216,-0.734264,1.999969
645,225.467308,100.160220,-104.859998,-0.193362,-0.858534,1.999969
646,241.702907,105.775540,-83.741512,-0.152224,-0.945571,1.999969
647,260.807202,110.109102,-64.148928,0.092409,-1.052384,1.999969
648,280.521859,116.395819,-52.246891,0.364874,-1.112444,1.999969
649,276.432441,123.842222,-45.410849,0.572030,-1.144060,1.666163
650,259.098192,119.447623,-41.504540,0.746227,-1.164446,1.551537
651,244.632639,104.798962,-39.917601,0.774426,-1.250874,1.627588
652,235.416190,89.295796,-37.476158,0.641245,-1.474266,1.573022
653,227.420462,71.534295,-29.236286,0.340581,-1.835599,1.261982
654,207.339590,53.711757,-12.756542,0.019532,-2.000031,0.858167
655,175.234607,47.608148,12.085145,-0.038087,-2.000031,0.337041
656,130.128939,55.420768,21.667811,0.090455,-2.000031,-0.012696
657,86.121920,82.887007,23.804074,0.068482,-2.000031,-0.079469
658,36.194400,97.413596,47.180896,-0.091188,-2.000031,-0.111086
659,-20.874342,70.984970,88.136110,-0.227909,-2.000031,0.275761
660,-45.105669,17.700465,133.546960,-0.028931,-1.859403,0.662364
661,-33.386740,-42.847333,155.642023,0.851575,-1.560937,-2.000031
662,-188.479438,-81.727321,91.859312,1.999969,0.058961,0.543221
663,-158.449683,-92.652781,52.735180,0.725597,0.065797,1.144182
664,-93.507286,-87.647822,38.025483,0.263432,1.606958,1.652613
665,-225.833524,-96.253910,44.373236,0.024170,0.471931,-0.057496
666,-302.189670,-49.561303,62.684062,-0.117067,-0.343023,-0.593027
667,-340.764477,-61.158160,80.201419,0.958999,-0.185183,1.673854
668,-335.820554,-40.405890,56.763561,1.993194,-0.233768,1.999969
669,-202.212558,33.569848,2.380407,1.150042,-0.513191,1.999969
670,-142.641337,54.627298,-17.578393,-0.598764,-0.154788,1.999969
671,-188.113222,17.151141,26.611734,-2.000031,-0.867323,1.999969
672,-84.290837,-63.050278,53.711757,-0.848768,-0.547616,0.796643
673,-80.079347,-113.282979,52.674144,1.483787,0.717296,1.999969
674,-84.718090,-52.185855,21.545739,1.343404,0.024537,1.996612
675,-49.134051,-9.033341,1.464866,-0.953994,0.046876,1.505516
676,-48.706798,-60.059510,16.540780,-0.078737,0.087037,0.911147
677,-47.425040,-46.936751,-2.319371,0.736095,0.121706,1.434104
678,-58.838788,-9.765774,1.220722,-0.142092,-0.028321,0.979751
679,-58.777752,-20.630198,2.014191,-0.125978,-0.132204,1.401144
680,-30.945296,-19.653620,-0.305180,0.198856,-0.000366,1.272236
681,-29.297322,-8.484016,-0.366217,-0.008179,-0.018555,1.018692
682,-27.344167,-10.559243,2.136263,0.031739,-0.030884,1.149676
683,-16.968032,-5.432212,0.183108,0.099489,0.001709,1.028946
684,-21.484703,-1.647974,3.479057,0.007324,-0.003052,1.013931
685,-18.432898,-0.061036,3.906310,0.070436,0.022095,1.038346
686,-19.104295,0.854505,5.249104,0.013184,0.029419,1.002701
687,-18.860151,1.037613,4.699779,0.005859,-0.001221,1.014786
688,-18.799115,1.281758,4.455634,-0.016968,-0.002197,1.009293
689,-18.554971,1.464866,2.929732,0.048341,-0.059937,0.947402
690,-12.878614,0.610361,2.746624,-0.019776,-0.032471,1.058000
691,-14.587625,-1.770047,3.662165,-0.031861,-0.028565,0.997452
692,-8.789197,-3.479057,2.319371,-0.024292,-0.023438,1.014664
693,-7.141222,-5.432212,1.831083,-0.047120,-0.025513,0.996841
694,-5.188067,-8.422980,0.976577,-0.016724,-0.015381,0.992203
695,-3.479057,-10.131991,-1.525902,-0.030396,-0.025025,1.009415
696,-3.112840,-9.948882,-0.854505,-0.022217,0.001099,1.004654
697,-5.615320,-10.742351,-0.122072,-0.008789,-0.017212,1.024430
698,-3.112840,-10.498207,-0.244144,0.017090,0.033082,1.003555
699,-5.676356,-9.826810,-0.183108,0.000244,-0.008789,1.006485
700,-6.042573,-7.995727,0.793469,0.022705,-0.036866,1.011246
701,-2.258335,-6.652934,0.671397,-0.006714,0.023438,1.011490
702,-2.563516,-4.394598,0.915541,-0.001465,-0.036255,0.931167
703,-4.577707,-5.249104,2.014191,-0.000488,-0.064820,0.983291
704,-3.906310,-5.676356,2.014191,0.023072,-0.073610,0.994766
705,-2.197299,-4.943923,1.770047,-0.003784,-0.023926,0.932021
706,-4.089418,-6.530861,1.770047,-0.015991,0.015381,1.012955
707,-5.981537,-7.690547,2.136263,0.005737,0.034058,0.985000
708,-8.484016,-9.094377,1.586938,-0.016724,0.035889,0.986709
709,-12.634470,-10.986496,0.854505,-0.043702,0.051392,1.106706
710,-11.596857,-10.803388,1.098650,0.019898,-0.007568,1.018936
711,-15.442130,-11.169604,0.549325,0.000122,0.035401,0.989029
712,-18.249790,-11.230640,0.793469,0.015381,0.005982,0.985489
713,-22.400244,-10.376135,0.671397,0.027100,0.015259,0.967910
714,-30.823224,-9.948882,1.647974,0.025025,-0.006836,0.958511
715,-35.523003,-9.399557,2.502480,0.018555,-0.030274,0.972183
716,-35.156786,-8.545052,2.807660,0.008301,-0.034058,1.011368
717,-34.058137,-7.202258,2.807660,0.022583,-0.053956,0.975845
718,-36.682689,-7.751583,2.990768,0.028443,-0.025757,1.006119
719,-38.025483,-6.164645,3.601129,0.017090,-0.047974,0.996963
720,-39.063096,-6.652934,3.112840,0.038941,-0.079103,1.000504
721,-37.232013,-5.920500,2.929732,0.014038,-0.052491,1.017472
722,-34.546426,-0.183108,5.249104,0.090089,-0.075929,0.962661
723,-49.134051,2.624552,9.033341,0.026978,-0.111818,1.087053
724,-36.560616,4.272526,8.606088,0.020996,-0.085817,0.994766
725,-37.842374,5.371176,6.042573,0.028931,-0.046876,0.924086
726,-52.246891,2.624552,7.263294,-0.032837,-0.032349,0.969863
727,-54.871443,-0.305180,2.502480,-0.017945,-0.057984,0.970474
728,-56.824598,-2.197299,-4.028382,-0.060548,-0.085817,1.046159
729,-57.557031,0.183108,-5.615320,-0.022950,-0.200809,1.011856
730,-68.970779,2.807660,-27.588312,-0.068727,-0.109743,1.020157
731,-72.571908,7.995727,-46.082246,0.062867,-0.381476,1.116472
732,-38.452735,-0.061036,-24.292363,0.121096,-0.434455,1.059709
733,-3.723201,-7.202258,-3.967346,0.041993,-0.208621,1.101579
734,-6.958114,-6.775006,-5.065995,0.042969,-0.023682,1.036027
735,-32.410163,0.183108,-10.864424,0.049195,0.203983,0.848402
736,-85.877775,9.216449,-19.836728,0.127932,0.354864,1.019669
737,-136.171511,17.639429,-29.663539,-0.073976,0.550546,0.805921
738,-202.334630,9.338521,-46.997787,-0.017334,0.301274,0.181033
739,-249.454490,-37.293050,4.943923,0.033936,0.677867,1.453391
740,-485.420005,-16.723888,-5.737392,0.838025,1.999969,1.178607
741,-712.108034,-46.265354,-23.743038,-0.726940,0.245365,1.847562
742,-870.679789,-129.152361,72.144656,-0.353887,0.017700,1.480491
743,-960.646983,-159.548333,91.371023,-0.061280,0.087160,0.670420
744,-1119.279774,-191.592279,106.019684,1.257710,-2.000031,1.999969
745,-712.291142,-50.110628,155.825132,-1.254658,-1.269429,1.999969
746,175.722896,13.061723,-83.741512,-0.503792,0.231327,1.999969
747,350.896468,54.322118,-57.495995,-0.719127,1.279316,1.999969
748,135.011826,38.147555,-70.618753,-0.651499,0.821668,1.764553
749,16.968032,-39.307240,43.457694,-0.751354,0.625498,0.778698
750,6.042573,-73.731594,64.881361,-0.235111,0.336797,0.597421
751,126.405737,-48.828870,31.311513,-0.214115,0.165652,0.635142
752,164.736400,-31.311513,24.719615,-0.123171,0.517098,0.500618
753,113.344015,-23.987182,24.109255,-0.088136,0.453742,0.773693
754,131.593805,-10.803388,15.686275,-0.093751,0.306767,1.001114
755,184.817273,-3.967346,4.882887,-0.121340,0.336919,0.958999
756,196.597238,-14.648661,0.793469,-0.076661,0.342535,1.001602
757,209.109636,-20.325017,-4.577707,-0.022217,0.262089,1.161883
758,240.115969,-11.718929,-15.014878,0.002930,0.219730,1.262348
759,259.220264,3.479057,-23.926146,-0.036255,0.142458,1.289815
760,273.624781,19.348440,-29.236286,-0.117678,-0.007691,1.221698
761,290.470741,30.334936,-30.273899,-0.159304,-0.104616,1.130999
762,300.419623,34.973678,-27.038987,-0.173098,-0.138064,1.148089
763,305.729763,32.715343,-22.339208,-0.108034,-0.182742,1.227192
764,317.692836,28.503853,-20.141909,-0.015259,-0.186893,1.290303
765,321.965362,30.151827,-23.132677,0.076905,-0.302983,1.206317
766,315.129320,47.302968,-30.151827,0.185916,-0.540658,0.840345
767,299.015793,79.468986,-39.551385,0.262211,-0.579599,0.785290
768,269.779507,91.065843,-44.190127,0.338262,-0.441779,0.997330
769,250.797284,77.515831,-52.918288,0.362676,-0.388556,1.283223
770,253.360800,63.599603,-64.942397,0.362799,-0.365606,1.584741
771,238.895247,71.717403,-72.938125,0.312749,-0.470832,1.832547
772,231.509880,89.906157,-78.248264,0.212406,-0.536507,1.999969
773,233.829252,101.503014,-79.285878,0.052979,-0.627573,1.999969
774,234.134432,99.916075,-69.398032,-0.111330,-0.808484,1.999969
775,256.351568,91.493095,-54.139010,-0.137942,-0.948501,1.999969
776,279.423209,84.290837,-39.673457,-0.030274,-0.998795,1.999969
777,291.691463,82.337682,-28.992142,0.133181,-1.041398,1.999969
778,296.391241,83.314260,-23.926146,0.292485,-1.058854,1.961089
779,290.043488,78.980697,-21.606775,0.356085,-1.019669,1.741482
780,277.347982,62.561990,-22.888533,0.351690,-1.025650,1.640284
781,269.352255,50.843061,-28.442817,0.332403,-1.041154,1.610620
782,256.046387,51.270314,-36.743725,0.221561,-1.144793,1.507469
783,236.942092,62.439918,-43.091478,0.056153,-1.382712,1.320089
784,211.367971,75.318532,-43.701839,-0.000366,-1.748074,1.117815
785,176.699474,91.981384,-36.560616,0.136355,-2.000031,0.950210
786,133.363851,113.405051,-23.437858,0.265019,-2.000031,0.738415
787,104.737926,134.645609,-12.573434,0.365240,-2.000031,0.057740
788,94.239719,123.659113,-0.122072,0.240848,-2.000031,-0.540902
789,31.982910,55.298695,36.499580,0.123781,-2.000031,-0.655406
790,-36.499580,-34.790570,75.074388,0.158083,-1.520287,0.007691
791,-53.650721,-86.793317,95.338369,0.233768,-1.083757,0.887831
792,-56.092164,-89.478904,102.174411,0.176638,-0.552865,1.155047
793,-162.355993,-112.184329,56.031128,0.884169,-1.019059,-0.505257
794,-248.416876,-98.573281,77.698940,0.463020,-0.682750,-0.300298
795,-172.304875,-109.132525,47.608148,0.477913,0.262333,1.190570
796,-170.840009,-109.193561,31.128405,0.316533,1.067155,1.986114
797,-257.572290,-70.740826,41.504540,0.102907,0.461799,0.759045
798,-293.827726,-67.444877,41.626612,0.322271,-0.608652,0.531014
799,-281.864652,-56.702525,38.818952,0.491463,-0.406134,1.999969
800,-230.716411,-29.602502,28.015564,0.626108,-0.187991,1.999969
801,-153.994049,-6.775006,9.155413,0.301884,-0.345098,1.999969
802,-132.082094,-11.352712,11.169604,-0.434455,-0.241947,1.703273
803,-147.158007,-43.640803,36.743725,-0.818006,-0.355596,1.999969
804,-83.192187,-72.510872,45.899138,-0.122805,-0.218631,1.170062
805,-73.548486,-78.614481,34.058137,1.141863,0.318242,1.999969
806,-63.111315,-35.461967,13.305867,0.824598,-0.043091,1.909941
807,-35.461967,-6.713970,5.432212,-0.481941,-0.133913,1.306294
808,-31.494621,-36.377508,12.085145,-0.091920,0.120363,1.128557
809,-28.686961,-32.288090,1.586938,0.535897,0.176272,1.246479
810,-42.114900,-5.432212,1.709010,-0.003174,0.000732,1.027115
811,-35.523003,-10.803388,3.234913,-0.182498,0.066041,0.978531
812,-37.415122,-15.930419,0.793469,0.208743,0.057740,1.302510
813,-27.344167,-4.699779,-2.075227,0.001953,-0.035401,1.084367
814,-23.315785,-1.709010,-1.525902,0.061524,0.078370,1.022232
815,-27.832456,2.807660,1.403830,0.039429,0.027100,1.118425
816,-22.583352,6.408789,2.441444,0.000000,-0.002564,1.062760
817,-19.470512,7.995727,2.502480,0.052369,-0.006714,1.029191
818,-18.432898,10.681315,4.882887,0.029664,0.001587,1.044083
819,-15.136950,11.352712,4.882887,-0.026246,0.019898,0.988663
820,-15.808347,10.131991,4.577707,0.013428,0.047120,0.985489
821,-19.409476,9.765774,4.577707,-0.051881,-0.002564,1.016129
822,-16.540780,6.775006,4.028382,-0.032105,-0.010620,1.021012
823,-12.878614,5.737392,3.234913,-0.008545,-0.009766,1.028824
824,-10.742351,5.004959,3.234913,-0.014771,-0.014160,1.022599
825,-7.751583,3.967346,3.234913,-0.032715,-0.002319,0.997452
826,-5.981537,2.502480,2.929732,-0.040772,0.006348,0.976699
827,-6.897078,0.000000,3.112840,-0.053468,0.011475,0.970962
828,-4.089418,-4.272526,2.746624,-0.035401,0.106935,0.925307
829,-7.995727,-6.591897,2.075227,-0.043336,0.018311,0.940078
830,-10.193027,-9.643702,1.037613,-0.037476,0.003418,0.997696
831,-10.559243,-10.986496,0.488289,-0.013428,0.005859,0.937636
832,-13.305867,-12.329290,0.671397,-0.029786,0.004883,0.977554
833,-12.024109,-12.146181,-1.098650,-0.035157,-0.072145,0.910780
834,-13.672084,-13.000687,0.366217,0.006714,-0.018433,1.020279
835,-14.892805,-12.939651,1.220722,-0.020264,-0.002319,0.987930
836,-17.761501,-14.953841,0.854505,-0.012085,-0.041260,0.981094
837,-18.188754,-15.014878,1.525902,0.032349,-0.045533,1.053971
838,-13.061723,-12.085145,0.427253,-0.000977,-0.044068,1.012345
839,-12.878614,-12.390326,1.159686,-0.002441,0.004517,0.978042
840,-17.578393,-12.512398,0.915541,0.003906,0.009522,0.958022
841,-23.010605,-12.878614,0.854505,0.016724,0.001221,1.000259
842,-22.339208,-11.413748,0.549325,0.009766,-0.021363,0.999039
843,-23.865110,-10.131991,0.915541,0.030274,-0.025269,1.015885
844,-24.963760,-7.873655,1.647974,0.033204,-0.030030,1.010025
845,-24.963760,-6.652934,1.586938,0.020752,-0.045777,0.987320
846,-25.329976,-5.920500,1.525902,0.019898,-0.037598,1.038346
847,-24.780652,-4.821851,1.525902,0.022217,-0.050538,1.018204
848,-22.034028,-4.089418,1.525902,0.070680,-0.037110,0.968887
849,-25.329976,-4.577707,0.671397,0.005127,-0.042969,1.011490
850,-26.794842,-4.821851,0.000000,0.026612,-0.046387,0.975601
851,-31.128405,-4.943923,-0.793469,0.026856,-0.059815,0.973892
852,-31.006332,-5.554284,-1.098650,0.013550,-0.042359,0.980240
853,-31.860838,-6.225681,-1.342794,-0.027100,-0.044923,0.962539
854,-34.363317,-6.652934,2.014191,0.064210,-0.047730,0.999649
855,-47.669184,-1.464866,4.760815,0.009766,-0.122194,0.950332
856,-38.025483,-0.549325,5.493248,0.046876,-0.081788,1.031754
857,-41.260395,2.075227,3.906310,0.019287,-0.071778,0.991226
858,-50.049592,1.586938,6.225681,0.012451,-0.096071,1.005997
859,-48.157473,1.831083,4.211490,-0.006226,-0.064942,1.004898
860,-45.899138,0.976577,-3.479057,-0.036255,-0.072999,0.980362
861,-48.401617,-1.892119,-8.361944,-0.058595,-0.123049,0.964126
862,-46.570535,-4.333562,-8.667124,-0.043336,-0.175784,1.065324
863,-55.603876,-0.427253,-29.053178,-0.005615,-0.112917,0.995743
864,-63.416495,3.173877,-41.809720,0.097292,-0.410040,1.022965
865,-36.560616,-1.098650,-15.197986,0.088502,-0.334966,1.145525
866,-20.019837,-5.127031,-4.577707,0.032349,-0.134768,1.057755
867,-30.945296,-2.258335,-8.789197,0.028321,0.052491,0.957778
868,-64.209964,1.586938,-21.850919,0.081300,0.111574,0.986343
869,-106.874189,9.643702,-26.916915,0.020874,0.213993,0.928969
870,-137.941558,8.239872,-30.151827,-0.003296,0.356085,0.636362
871,-167.299916,-18.249790,-34.058137,-0.191165,0.239994,0.703868
872,-335.576410,-32.898451,-48.584726,0.025757,1.020890,1.466575
873,-553.658351,-13.916228,-52.491035,-0.032349,0.767224,1.999969
874,-702.281224,-66.895552,-17.822538,-0.439582,0.044434,1.045792
875,-839.856565,-133.302815,26.550698,-0.155032,-0.252323,0.960464
876,-909.132525,-176.333257,46.814679,-0.069337,-0.082399,0.815198
877,-1178.301671,-223.819333,143.617914,-0.168826,-1.964385,1.999969
878,-490.852216,-111.390860,122.011139,-1.245991,-1.240742,1.999969
879,279.423209,-50.415808,-55.176623,-0.285649,0.929946,1.999969
880,355.230030,11.413748,-46.387427,-0.689464,1.422873,1.999969
881,158.571756,33.691920,-52.063783,-0.564950,0.628916,1.373312
882,28.076600,1.342794,29.785611,-0.589853,0.500984,0.116823
883,14.831769,-7.995727,48.340581,-0.369268,0.147829,0.144533
884,101.564050,7.690547,35.461967,-0.324712,0.074342,0.215335
885,113.527123,5.676356,41.382467,-0.191043,0.312261,0.216190
886,70.984970,-6.164645,49.073014,-0.106081,0.291997,0.585702
887,93.141070,-8.422980,47.425040,0.014038,0.296513,0.985367
888,137.392233,-7.080186,36.499580,0.182498,0.446296,1.157366
889,151.674678,-5.676356,23.620966,0.270634,0.503182,1.368185
890,174.441138,1.709010,6.958114,0.297734,0.437507,1.528099
891,215.152209,13.672084,-12.146181,0.256229,0.346685,1.457542
892,244.876783,22.217136,-26.672770,0.177859,0.235599,1.307393
893,261.356527,23.987182,-34.546426,0.096315,0.106935,1.232319
894,282.108797,24.719615,-39.612421,0.049683,-0.008789,1.234028
895,299.504082,26.550698,-41.748684,0.035035,-0.101930,1.131365
896,310.246433,26.916915,-42.359045,0.071656,-0.146120,1.031876
897,313.847562,23.193713,-43.762875,0.155642,-0.174441,0.990372
898,313.725490,18.249790,-48.401617,0.220096,-0.210452,0.984268
899,306.767376,20.996414,-58.899825,0.261112,-0.400763,0.733532
900,288.517586,42.908370,-69.703212,0.341802,-0.523690,0.604135
901,260.502022,62.928206,-75.623713,0.251225,-0.429206,0.803357
902,231.509880,61.036088,-79.468986,0.188357,-0.363775,1.170428
903,227.420462,53.711757,-81.971466,0.094972,-0.323491,1.564355
904,220.706493,53.833829,-80.140383,0.073487,-0.310307,1.999969
905,224.124514,69.459068,-76.600290,0.018311,-0.488899,1.999969
906,254.581521,85.755703,-71.046006,-0.123537,-0.654917,1.999969
907,269.840543,91.371023,-55.115587,-0.246586,-0.724376,1.999969
908,271.610590,77.210651,-33.142596,-0.317266,-0.846326,1.999969
909,290.043488,65.552758,-14.160372,-0.245731,-0.936294,1.999969
910,304.631113,69.642176,0.305180,-0.179446,-0.932143,1.999969
911,299.809262,76.356146,11.047532,-0.093385,-1.080827,1.845487
912,297.245747,91.065843,16.662852,0.198001,-1.022599,1.510765
913,265.568017,92.286564,15.747311,0.294682,-0.926406,1.717922
914,244.937819,81.788357,10.498207,0.370123,-1.126482,1.651514
915,243.167773,83.558404,-0.854505,0.375860,-1.233539,1.467308
916,213.870451,79.285878,-7.812619,0.250980,-1.440452,1.419821
917,189.578088,68.665599,-8.361944,0.204715,-1.763088,1.320821
918,179.446098,68.482490,-7.629511,0.385992,-2.000031,0.995743
919,145.082780,76.661326,-9.155413,0.637705,-2.000031,0.576425
920,101.014725,82.887007,-12.695506,0.767590,-2.000031,0.227054
921,75.318532,75.867857,-19.592584,0.667979,-2.000031,-0.168093
922,43.701839,36.926833,-8.484016,0.463264,-2.000031,-0.395636
923,-15.014878,-21.728847,13.550011,0.273808,-1.998932,-0.067628
924,-70.801862,-71.107042,27.222095,0.137697,-2.000031,-2.000031
925,-228.213931,-134.157321,65.186542,0.265873,-1.381735,-0.430182
926,-238.040742,-146.242466,52.368963,0.296147,-0.939956,1.417868
927,-119.996948,-74.219883,27.954528,0.038087,0.824720,1.999969
928,-156.496529,-63.050278,32.837415,0.010986,0.861707,1.061906
929,-272.465095,-90.394446,40.833143,0.203250,-0.028687,0.209476
930,-295.353628,-81.727321,48.096437,0.505623,-0.492927,1.504417
931,-261.417563,-56.336309,39.917601,0.759533,-0.212528,1.999969
932,-210.574502,-12.512398,21.911955,0.555550,-0.344121,1.999969
933,-149.965667,10.437171,11.413748,0.069825,-0.265385,1.770169
934,-153.749905,-21.301595,28.809033,-0.695933,0.085451,1.999969
935,-130.251011,-57.495995,39.856565,-0.312139,-0.127199,1.999969
936,-59.082933,-78.797589,16.418708,0.923720,0.061524,1.999969
937,-34.973678,-26.367590,2.868696,0.665293,-0.020386,1.515648
938,-28.809033,-1.403830,2.319371,-0.433845,0.094850,1.031632
939,-53.223468,-31.433585,8.728161,-0.140993,-0.024781,1.120867
940,-26.855879,-34.668498,-2.502480,0.340948,0.117556,1.270771
941,-33.203632,-17.334249,0.793469,0.037476,0.028077,1.116716
942,-27.832456,-14.831769,-0.122072,-0.030396,-0.027466,1.370504
943,-10.803388,-14.099336,-0.976577,0.106203,0.005493,1.071305
944,-11.779965,-8.667124,-0.793469,0.024781,0.005859,1.048722
945,-7.751583,-9.033341,0.976577,-0.008423,0.007813,1.060075
946,-2.563516,-8.789197,0.244144,0.026490,0.045777,0.959365
947,-10.986496,-6.591897,1.647974,0.034668,0.052125,0.941665
948,-13.672084,-3.906310,2.075227,0.039063,0.066896,0.989517
949,-17.029068,-1.586938,3.234913,0.036988,0.065553,0.992569
950,-20.386053,-0.671397,3.601129,0.011231,0.038819,0.987930
951,-22.583352,-0.183108,2.685588,0.030762,0.051026,1.067155
952,-18.127718,-0.732433,3.051804,0.042237,-0.019776,1.024918
953,-18.982223,-0.915541,2.685588,0.000855,-0.000122,0.962051
954,-18.249790,-2.624552,2.380407,0.005615,0.005249,1.023209
955,-17.090105,-2.807660,2.258335,0.025269,0.009155,1.022232
956,-15.503166,-2.868696,1.709010,-0.032227,0.022705,1.038468
957,-15.075914,-3.051804,2.990768,0.027344,0.020386,0.997696
958,-16.968032,-3.418021,2.990768,0.004028,0.018433,0.974502
959,-21.423667,-4.577707,3.234913,-0.004395,-0.005737,0.997574
960,-16.174563,-4.699779,2.319371,0.008911,-0.001465,0.966445
961,-18.738079,-5.981537,2.319371,-0.006226,0.028199,1.037491
962,-17.883574,-7.934691,2.441444,0.000488,0.022217,1.027237
963,-17.151141,-8.545052,1.220722,0.018311,0.027222,1.042985
964,-16.052491,-8.484016,1.098650,0.018677,-0.015625,1.055558
965,-12.024109,-7.324331,0.671397,0.036133,-0.067506,0.985977
966,-13.244831,-6.591897,0.854505,0.020996,-0.020508,1.020645
967,-12.146181,-6.286717,1.342794,0.016114,-0.038819,0.953994
968,-14.038300,-7.019150,1.159686,-0.001953,-0.006714,1.004654
969,-14.709697,-7.812619,0.915541,0.020020,-0.031373,0.947402
970,-16.601816,-8.728161,0.671397,0.033448,-0.042115,0.968521
971,-17.517357,-9.094377,0.427253,0.025879,-0.049928,0.970474
972,-17.944610,-9.155413,0.122072,0.051637,-0.030030,1.013077
973,-20.325017,-8.300908,0.244144,0.041749,-0.057496,1.020035
974,-17.578393,-5.920500,0.793469,0.070680,-0.031006,1.005264
975,-19.104295,-4.577707,1.403830,0.066407,-0.047364,1.062516
976,-18.554971,-1.709010,2.380407,0.056275,-0.072755,1.016007
977,-15.564202,-0.610361,2.929732,0.040650,-0.040650,0.954360
978,-21.118486,-0.976577,3.112840,0.013184,-0.018555,0.953750
979,-26.001373,-2.685588,2.685588,0.013916,-0.028321,0.933120
980,-28.198672,-4.211490,1.403830,0.028443,-0.032105,0.933608
981,-33.447776,-5.065995,1.220722,0.030152,-0.034424,0.999893
982,-34.302281,-5.737392,0.976577,0.064942,-0.047852,0.975479
983,-36.865797,-4.821851,0.549325,0.038209,-0.052003,1.011612
984,-42.481117,-2.380407,0.000000,0.060426,-0.091310,1.029313
985,-38.696880,-1.647974,-0.793469,0.026001,-0.069215,1.032731
986,-37.354086,0.854505,1.220722,0.083375,-0.036500,0.940078
987,-53.101396,4.394598,6.164645,0.062135,-0.117189,1.042741
988,-50.720989,7.080186,8.300908,0.041627,-0.121584,1.023331
989,-44.068055,8.117800,7.507439,0.041382,-0.102785,0.966079
990,-50.659953,7.446403,6.103609,-0.032471,-0.068482,0.966323
991,-51.697566,3.601129,0.976577,-0.026490,-0.065553,1.058366
992,-52.063783,1.403830,-9.094377,-0.066041,-0.145388,1.046525
993,-43.640803,-1.892119,-14.404517,-0.033326,-0.185061,1.045670
994,-47.302968,3.295949,-33.264668,0.023194,-0.003784,0.934463
995,-57.434958,7.995727,-46.570535,0.086183,-0.284306,0.978653
996,-44.251164,2.075227,-24.841688,0.181277,-0.354986,1.107683
997,-28.625925,-1.770047,-4.272526,0.100832,-0.217044,1.029435
998,-26.184482,2.380407,-5.188067,0.061036,0.070436,0.997330
999,-61.158160,11.779965,-21.484703,0.173342,0.150881,1.028946
1000,-102.845808,24.719615,-24.414435,0.072999,0.285771,0.753185
1001,-149.355306,17.334249,-30.457008,-0.180911,0.366339,0.595834
1002,-185.732815,-15.991455,-24.963760,-0.078248,0.627817,0.574594
1003,-308.171206,-25.024796,-54.139010,-0.161135,0.947768,1.752224
1004,-502.571145,-52.002747,-71.595331,-0.592905,0.408453,1.310201
1005,-654.062715,-155.031662,-7.751583,-0.311284,0.233402,1.252094
1006,-808.667124,-217.349508,17.761501,-0.001465,0.033570,1.075944
1007,-907.667659,-190.981918,50.232700,0.322637,-0.919081,1.999969
1008,-1125.261311,-122.316320,216.433967,-1.514061,-0.604623,1.999969
1009,-265.140764,6.408789,13.977264,-1.132830,-2.000031,1.999969
1010,361.333639,71.290150,-30.701152,-0.615488,0.542245,1.999969
1011,305.241474,50.415808,-18.005646,-1.069596,0.975235,1.792752
1012,111.329824,21.301595,32.410163,-0.654429,0.390753,0.457404
1013,-9.826810,-43.274586,89.967193,-0.370367,0.307012,0.047974
1014,24.353399,-46.814679,91.554131,0.022217,0.284550,0.211429
1015,110.963607,-21.362631,61.158160,0.014893,0.342046,0.296513
1016,87.220569,-12.634470,47.913329,0.233524,0.487190,0.415412
1017,59.021897,-2.075227,36.926833,0.241093,0.427375,0.747082
1018,94.728008,8.178836,16.968032,0.167849,0.396612,0.879896
1019,124.940871,8.606088,1.586938,0.145632,0.469368,0.795422
1020,126.466773,1.159686,-7.690547,0.097292,0.434699,0.881971
1021,141.359579,-3.662165,-15.564202,0.039673,0.379767,1.079362
1022,168.459602,-2.014191,-22.522316,-0.010132,0.362432,1.200214
1023,188.418402,2.380407,-26.184482,-0.064576,0.310307,1.301900
1024,209.292744,11.047532,-27.283131,-0.120974,0.215457,1.327535
1025,232.791638,23.926146,-26.428626,-0.139895,0.142458,1.318746
1026,249.088273,35.217823,-22.766461,-0.130983,0.074098,1.300923
1027,262.882429,41.199359,-18.310826,-0.090455,0.008667,1.353780
1028,277.531090,42.053864,-14.465553,-0.029541,-0.048585,1.432395
1029,294.865339,41.565576,-12.756542,0.031006,-0.073976,1.470603
1030,308.903639,41.626612,-14.343481,0.107424,-0.178714,1.284932
1031,313.847562,41.748684,-18.982223,0.238407,-0.231571,1.028336
1032,301.640345,43.091478,-29.480430,0.404059,-0.367193,0.688609
1033,278.507668,50.659953,-42.847333,0.472908,-0.347173,0.562509
1034,242.130159,60.303655,-57.495995,0.460090,-0.317876,0.657115
1035,214.480812,55.054551,-72.022583,0.398077,-0.180789,1.153216
1036,196.963455,52.979324,-83.680476,0.287358,-0.085573,1.999969
1037,188.967727,60.914015,-89.112688,0.124636,-0.164431,1.999969
1038,229.434653,74.525063,-91.309987,-0.022339,-0.475837,1.999969
1039,282.597086,92.103456,-88.624399,-0.037720,-0.662852,1.999969
1040,283.878843,99.305715,-77.637903,-0.060426,-0.632944,1.999969
1041,267.215991,86.671244,-64.515145,0.014893,-0.755993,1.999969
1042,291.264210,84.229801,-59.449149,0.262089,-0.811780,1.999969
1043,294.804303,93.507286,-58.411536,0.427985,-0.752819,1.999969
1044,280.521859,93.934539,-57.801175,0.468513,-0.800793,1.999969
1045,289.005875,86.976425,-58.655680,0.498909,-0.825086,1.936065
1046,283.512627,73.731594,-57.923247,0.469490,-0.860853,1.767971
1047,267.460136,58.899825,-56.702525,0.343389,-1.030777,1.659693
1048,253.910124,50.415808,-55.664912,0.142824,-1.338033,1.488426
1049,227.603571,55.420768,-51.209277,-0.043091,-1.862699,1.268574
1050,187.624933,79.285878,-40.894179,0.058228,-2.000031,1.097551
1051,122.438392,116.762036,-21.911955,0.358160,-2.000031,0.696300
1052,99.061570,160.402838,-11.108568,0.412238,-2.000031,-0.098634
1053,112.062257,164.431220,2.502480,0.215335,-2.000031,-1.268940
1054,6.591897,67.872129,48.889906,0.026978,-2.000031,-1.203143
1055,-102.418555,-57.984283,107.240406,0.047486,-1.704860,-0.165530
1056,-197.878996,-167.483024,94.056611,1.240620,-1.659083,0.041382
1057,-265.629053,-166.140230,72.693980,1.206806,-0.970718,1.324483
1058,-129.762722,-103.639277,34.912642,0.262455,0.324956,1.999969
1059,-95.155261,-115.236133,19.714656,-0.185916,1.255024,1.999969
1060,-160.097658,-91.371023,39.002060,-0.380011,0.673350,0.022217
1061,-283.512627,-98.146029,56.519417,-0.280156,-0.234745,-0.875624
1062,-345.708400,-116.945144,79.224842,0.219974,-0.340459,1.838285
1063,-345.586328,-85.023270,82.032502,0.902358,-0.529915,1.999969
1064,-168.459602,-20.996414,46.875715,0.992935,-0.397345,1.999969
1065,-92.225528,13.916228,15.564202,0.716564,0.152956,1.969635
1066,-146.181430,16.296635,18.738079,-0.073365,0.023804,1.981598
1067,-110.048066,-3.234913,19.775692,-0.575448,-0.386603,1.607568
1068,-63.111315,-29.968719,24.353399,-0.302861,-0.116335,1.084367
1069,-76.478218,-60.059510,33.447776,0.622934,0.142580,1.966094
1070,-50.843061,-37.170977,18.066682,0.468757,0.075685,1.756985
1071,-29.053178,-17.883574,11.291676,-0.392096,0.106203,0.892348
1072,-52.918288,-39.734493,17.639429,-0.009888,0.105837,1.083146
1073,-48.035401,-35.034714,9.277485,0.282231,0.041993,1.387472
1074,-38.452735,-18.616007,4.455634,0.070069,0.035523,1.252461
1075,-37.354086,-13.794156,4.028382,-0.038575,-0.013916,1.107927
1076,-29.175250,-12.634470,4.821851,0.009888,-0.006470,1.250752
1077,-19.409476,-9.826810,4.028382,0.011719,-0.009155,1.055192
1078,-15.197986,-8.728161,3.479057,0.001099,0.047974,1.098528
1079,-14.526589,-6.530861,3.418021,0.010010,0.020508,1.059586
1080,-10.559243,-5.371176,2.807660,-0.004028,0.047974,1.029435
1081,-10.681315,-4.089418,2.685588,-0.021485,0.014771,1.047990
1082,-8.178836,-3.540093,2.685588,-0.004761,0.032959,1.006607
1083,-8.056764,-2.929732,2.502480,-0.001831,0.031739,0.967544
1084,-9.704738,-3.234913,2.929732,-0.019898,0.029908,0.996475
1085,-9.582666,-3.662165,2.807660,-0.020630,0.037598,0.977188
1086,-11.779965,-4.455634,3.051804,-0.029908,0.036255,0.983536
1087,-12.085145,-5.127031,2.441444,-0.058961,0.019043,0.976333
1088,-11.902037,-6.713970,2.197299,-0.027344,0.026856,1.005020
1089,-11.169604,-5.737392,1.342794,-0.047974,0.152590,1.267720
1090,-5.554284,-7.019150,1.892119,-0.018921,0.042237,0.903578
1091,-13.305867,-8.545052,1.586938,-0.005982,0.002686,0.952773
1092,-10.803388,-8.422980,1.342794,-0.011109,0.015015,1.011856
1093,-11.108568,-8.911269,1.403830,-0.019165,0.024414,0.964614
1094,-14.099336,-9.399557,1.831083,-0.090578,0.149783,1.209247
1095,-10.803388,-11.047532,3.418021,0.027466,0.077882,0.864027
1096,-19.226368,-10.070954,2.868696,0.011353,-0.003174,0.948501
1097,-19.775692,-9.338521,2.502480,-0.019165,-0.006592,1.060807
1098,-17.090105,-8.911269,2.075227,-0.000366,-0.015381,1.008804
1099,-16.906996,-8.056764,2.075227,-0.007691,-0.015137,1.038834
1100,-14.648661,-8.239872,2.136263,-0.066773,0.040528,1.146990
1101,-8.911269,-9.338521,3.051804,0.060304,0.057984,0.838514
1102,-15.259022,-9.399557,2.563516,0.004028,-0.024537,0.957412
1103,-11.535821,-8.606088,1.831083,-0.003662,-0.026490,1.063981
1104,-9.094377,-8.178836,1.647974,-0.007691,-0.007080,1.015640
1105,-11.841001,-8.545052,2.136263,0.011353,-0.009888,0.989029
1106,-11.047532,-8.422980,2.014191,0.007080,0.006836,0.988785
1107,-14.160372,-9.033341,1.647974,-0.020264,0.002564,0.965713
1108,-17.090105,-10.254063,2.014191,0.010742,-0.032105,0.941665
1109,-18.005646,-10.803388,2.685588,-0.001343,0.015259,0.975723
1110,-20.813306,-11.474784,2.868696,0.000366,-0.000977,0.980240
1111,-24.231327,-12.512398,2.868696,0.006592,-0.009277,0.982803
1112,-25.513085,-12.939651,2.197299,0.004639,-0.008667,0.969863
1113,-29.358358,-12.756542,2.014191,0.019532,-0.024292,0.996841
1114,-32.471199,-11.718929,1.709010,0.024048,-0.030274,1.021866
1115,-31.311513,-11.352712,1.098650,0.037598,-0.027832,0.963760
1116,-34.912642,-10.742351,0.915541,0.003662,-0.012696,0.933974
1117,-39.856565,-11.535821,0.732433,0.008179,-0.039918,0.973404
1118,-39.002060,-12.939651,1.892119,0.015015,-0.088014,1.038102
1119,-38.025483,-11.413748,3.540093,0.059083,-0.056153,0.991836
1120,-42.236973,-2.136263,6.469825,0.107546,-0.071168,1.004776
1121,-50.965133,2.685588,10.498207,0.060792,-0.120241,1.078019
1122,-40.955215,6.164645,9.582666,0.052247,-0.074464,0.995377
1123,-46.082246,7.202258,8.728161,0.012940,-0.062867,0.985611
1124,-53.894865,4.821851,8.056764,-0.035889,-0.032593,0.964126
1125,-54.932479,2.685588,2.014191,-0.045899,-0.014893,1.014664
1126,-49.805447,3.173877,-4.638743,-0.020142,-0.129763,1.088762
1127,-52.796216,1.770047,-10.620279,-0.094850,-0.130983,1.040787
1128,-63.843748,11.902037,-38.147555,0.085206,-0.183474,0.869886
1129,-55.603876,15.930419,-39.124132,0.128542,-0.399664,0.925429
1130,-30.090791,1.525902,-15.808347,0.068116,-0.358282,1.136736
1131,-20.325017,-7.141222,-6.347753,0.027222,-0.108400,0.995987
1132,-34.668498,-6.347753,-7.873655,0.027100,0.116823,0.956924
1133,-81.422141,2.990768,-18.554971,0.091310,0.120119,1.021988
1134,-124.696727,7.202258,-19.836728,-0.014160,0.373663,0.817273
1135,-161.074235,-5.737392,-35.095750,-0.048463,0.259037,0.573129
1136,-173.220417,-36.560616,-10.925460,-0.189944,0.713634,1.273701
1137,-361.272602,-49.317159,-31.677729,0.122560,1.442161,1.883940
1138,-603.341726,-47.974365,-66.651408,-0.462531,0.928237,1.417502
1139,-806.958114,-145.754177,-31.067369,-0.603525,-0.307012,1.426658
1140,-918.898299,-238.040742,52.857252,-0.335943,-0.169192,0.830945
1141,-1104.631113,-258.365759,155.397879,1.125994,-2.000031,1.999969
1142,-678.049897,-122.011139,225.101091,-1.173724,-1.073014,1.999969
1143,207.339590,-56.885634,-58.960861,-0.581430,0.191653,1.999969
1144,416.266117,1.342794,-27.100023,-0.965835,1.289693,1.999969
1145,138.612955,9.155413,-35.278859,-0.790051,1.572412,1.664332
1146,-29.358358,-32.593271,70.862898,-0.751965,0.424079,0.174319
1147,-70.069429,-55.298695,92.591745,-0.217777,0.232303,0.356451
1148,49.011978,-17.273213,55.725948,-0.245487,0.088991,0.729625
1149,122.743572,3.356985,45.288777,-0.116457,0.481941,0.526497
1150,77.027543,1.770047,47.302968,-0.019287,0.527108,0.675792
1151,73.365377,1.403830,42.786297,-0.039063,0.375006,0.985000
1152,129.091325,6.836042,31.494621,0.020752,0.401251,1.077287
1153,155.825132,6.042573,22.949569,0.061402,0.456672,1.051530
1154,164.614328,2.685588,15.991455,0.089845,0.397223,1.183612
1155,193.240253,7.690547,5.920500,0.085328,0.333013,1.281392
1156,223.514153,15.197986,-3.906310,0.059815,0.271489,1.241962
1157,241.519799,22.095064,-10.620279,0.016480,0.173831,1.186419
1158,257.511254,29.968719,-14.892805,-0.022095,0.066896,1.138323
1159,273.380636,36.316472,-16.540780,-0.041382,-0.023438,1.075700
1160,283.878843,35.828183,-15.442130,-0.044068,-0.083497,1.010758
1161,291.203174,29.602502,-14.221408,0.016480,-0.080446,1.079484
1162,296.452277,23.804074,-15.869383,0.105104,-0.088258,1.184833
1163,300.846876,27.405203,-23.743038,0.199954,-0.212161,1.075334
1164,291.874571,44.190127,-37.170977,0.304692,-0.398322,0.817884
1165,270.939193,75.257496,-51.575494,0.414801,-0.496712,0.732677
1166,243.289845,95.338369,-63.416495,0.311162,-0.421271,0.759655
1167,220.401312,92.957961,-71.290150,0.165286,-0.378424,1.036637
1168,200.625620,74.219883,-72.022583,0.007446,-0.369757,1.853300
1169,193.179217,68.970779,-66.346227,-0.084840,-0.445686,1.999969
1170,227.969787,74.158846,-62.012665,-0.117678,-0.648814,1.999969
1171,269.962615,93.934539,-60.364691,-0.091798,-0.775402,1.999969
1172,259.708553,106.691081,-51.575494,-0.149294,-0.764294,1.999969
1173,244.266423,96.009766,-36.865797,-0.216190,-0.820325,1.999969
1174,281.315328,80.384527,-25.085832,-0.146487,-0.940688,1.999969
1175,325.322347,81.849393,-21.362631,0.100465,-0.934707,1.930083
1176,306.095979,89.967193,-20.508125,0.375250,-0.814710,1.543481
1177,277.714199,91.859312,-26.306554,0.584237,-0.736095,1.695216
1178,274.357214,86.121920,-38.452735,0.640635,-0.690929,1.873808
1179,273.868925,74.402991,-49.561303,0.593637,-0.720836,1.897490
1180,267.948425,61.829557,-55.848020,0.393194,-0.914931,1.732082
1181,257.816434,52.124819,-56.763561,0.100832,-1.251240,1.403830
1182,229.617762,49.927520,-51.819638,-0.074220,-1.797024,1.006119
1183,188.540475,63.538567,-37.293050,0.043946,-2.000031,0.704845
1184,127.321279,90.211337,-26.306554,0.431037,-2.000031,0.513802
1185,71.778439,126.405737,-27.466239,0.641367,-2.000031,0.018799
1186,77.210651,148.683909,-26.550698,0.333745,-2.000031,-0.644419
1187,11.963073,86.121920,11.047532,-0.017334,-2.000031,-0.752453
1188,-78.675517,-19.165332,69.947356,-0.172854,-1.814359,0.141726
1189,-108.461128,-113.160906,92.774853,0.368902,-1.927886,-1.862821
1190,-225.406271,-164.675364,92.042420,0.998428,-0.618906,0.811292
1191,-185.793851,-122.743572,59.510185,0.185061,-0.386725,1.589014
1192,-90.455482,-108.705272,33.691920,-0.182498,1.026383,1.999969
1193,-116.151675,-123.231861,42.603189,-0.345586,0.640757,0.614145
1194,-232.608530,-111.329824,80.140383,-0.114382,0.068727,-0.847913
1195,-311.284047,-117.494469,88.563363,0.725231,-0.355474,0.368292
1196,-349.370565,-95.155261,88.990616,1.431296,-0.183474,1.999969
1197,-229.434653,-60.608835,48.584726,1.933379,-0.237675,1.999969
1198,-123.964294,-17.944610,-16.418708,0.903212,0.058717,1.880766
1199,-159.487297,-13.122759,-4.394598,-1.206683,-0.145388,1.999969
1200,-134.645609,-53.894865,40.466926,-1.872587,-0.900160,1.512474
1201,-57.434958,-119.752804,49.744411,0.153445,0.063478,1.823270
1202,-70.313573,-113.344015,36.377508,1.999969,0.440558,1.999969
1203,-39.368276,-10.742351,2.868696,0.452399,0.081666,1.359396
1204,-53.955901,-8.239872,6.591897,-1.008804,-0.193729,1.292866
1205,-36.804761,-56.580453,10.864424,0.270146,0.023682,1.293721
1206,-18.921187,-31.006332,-2.380407,0.560678,0.165530,1.214984
1207,-40.772107,-8.545052,6.469825,-0.159670,-0.020508,1.121599
1208,-21.301595,-14.770733,0.854505,-0.010376,-0.060182,1.174823
1209,-10.070954,-11.047532,-2.746624,0.149660,0.153323,0.955825
1210,-31.677729,-2.502480,1.403830,0.017456,0.010010,1.127947
1211,-17.517357,-0.671397,1.220722,0.017945,-0.030884,1.103655
1212,-10.315099,4.089418,0.671397,0.119020,0.084962,0.995621
1213,-20.447089,10.009918,3.418021,0.021607,0.031373,1.024430
1214,-17.822538,11.352712,2.990768,0.030640,0.046509,1.001724
1215,-20.935378,13.244831,3.906310,0.041382,0.031495,1.012589
1216,-22.095064,13.244831,5.127031,-0.011597,0.019776,0.999039
1217,-20.325017,12.146181,4.577707,0.011475,0.038697,1.011246
1218,-21.545739,11.657893,2.075227,-0.055299,-0.040040,0.967056
1219,-20.447089,8.667124,3.234913,-0.057496,0.064820,0.991470
1220,-25.757229,3.967346,3.418021,-0.030152,0.029053,0.994888
1221,-23.559930,1.953155,2.441444,-0.022583,-0.018067,1.021012
1222,-20.630198,1.037613,2.197299,0.001465,-0.024537,1.041886
1223,-17.639429,1.831083,2.014191,-0.002808,-0.004150,1.021988
1224,-17.029068,2.685588,2.014191,0.001831,0.002808,1.005020
1225,-18.493935,4.760815,-0.122072,0.033692,-0.215702,0.780285
1226,-17.029068,3.356985,1.037613,-0.036622,0.032715,1.077165
1227,-19.470512,2.502480,2.319371,-0.005371,-0.011353,1.011612
1228,-16.662852,2.319371,2.014191,-0.016114,-0.024903,0.993545
1229,-15.686275,2.075227,2.014191,-0.021363,-0.019898,0.987808
1230,-16.540780,1.342794,2.014191,-0.023316,-0.026123,0.995010
1231,-17.151141,0.854505,2.075227,-0.014160,-0.023438,0.990738
1232,-16.479744,-0.183108,1.770047,-0.028565,-0.026612,0.987564
1233,-16.479744,-1.586938,1.342794,-0.018433,-0.035279,0.996231
1234,-16.113527,-2.258335,1.159686,-0.004517,-0.046876,1.029801
1235,-13.794156,-2.136263,1.098650,-0.007568,-0.062135,1.009659
1236,-12.451362,-2.075227,1.220722,0.001709,-0.053223,1.023209
1237,-10.925460,-1.220722,1.403830,0.005493,-0.056397,1.016373
1238,-10.437171,-0.366217,1.770047,-0.016480,-0.052735,0.992203
1239,-11.108568,-0.610361,2.258335,-0.006470,-0.036133,0.993912
1240,-11.230640,-0.366217,2.441444,-0.002930,-0.034058,0.974868
1241,-13.550011,-0.915541,2.563516,-0.023682,-0.020264,0.979995
1242,-13.733120,-1.709010,2.197299,-0.008057,-0.012818,0.976822
1243,-15.564202,-3.051804,1.464866,-0.022217,-0.018921,0.986709
1244,-18.310826,-4.760815,1.403830,-0.011719,-0.038941,0.997330
1245,-18.371862,-5.981537,0.793469,-0.019165,-0.040772,0.980362
1246,-22.095064,-7.385367,0.305180,0.006958,-0.021363,0.969497
1247,-28.625925,-7.812619,-0.122072,0.001953,-0.046509,1.000137
1248,-26.184482,-6.225681,-0.610361,-0.006104,-0.041138,0.989151
1249,-30.762188,-5.493248,-0.305180,0.001221,-0.055421,0.960342
1250,-34.058137,-5.188067,-0.122072,-0.007691,-0.044434,0.993179
1251,-36.621653,-5.432212,-0.488289,-0.032837,-0.052369,0.971328
1252,-39.856565,-6.713970,0.915541,-0.036011,-0.055543,0.950698
1253,-44.922560,-6.897078,3.234913,0.002197,-0.133181,1.041276
1254,-45.349813,-6.164645,5.127031,-0.001465,-0.121706,0.995621
1255,-40.466926,-4.943923,5.371176,0.027100,-0.140017,1.035782
1256,-39.124132,-1.403830,4.699779,-0.006836,-0.108034,1.007950
1257,-30.212863,1.525902,0.793469,-0.000122,-0.136599,1.016373
1258,-29.053178,0.915541,0.976577,-0.063844,-0.088991,1.040055
1259,-32.776379,-2.441444,1.098650,-0.096925,0.014649,1.068009
1260,-33.691920,-3.784237,-17.273213,-0.103883,-0.142458,0.980117
1261,-49.134051,-7.873655,-28.137636,-0.113893,-0.018555,1.095476
1262,-76.966506,2.807660,-45.349813,0.053956,-0.251469,1.076188
1263,-56.458381,1.159686,-26.855879,0.125612,-0.420539,1.046281
1264,-21.972992,-8.606088,-5.737392,-0.024903,-0.137087,1.009781
1265,-38.147555,-9.704738,-13.488975,-0.013550,-0.008301,1.021012
1266,-64.576181,-7.812619,-18.982223,0.021118,-0.015503,0.974868
1267,-77.149615,-7.629511,-16.296635,0.056641,-0.037110,0.919570
1268,-100.343328,-7.019150,-6.042573,0.042603,0.181888,0.786023
1269,-123.720150,-9.338521,-19.714656,0.122438,0.276005,0.837659
1270,-168.642710,-12.756542,-33.203632,0.075441,0.637827,1.224872
1271,-323.369192,-11.352712,-49.317159,-0.038209,0.900649,1.338888
1272,-568.307012,-6.591897,-24.109255,-0.381109,0.772595,1.903838
1273,-704.966812,-67.383841,7.934691,-0.558236,0.065187,1.310933
1274,-815.136950,-89.723049,32.959487,0.049561,-0.068605,1.144793
1275,-866.224155,-117.189288,29.907683,-0.008545,-1.083391,1.290669
1276,-1058.243687,-119.081407,184.390021,-1.422263,-0.683604,1.999969
1277,-340.947585,-92.469673,16.540780,-1.265522,-2.000031,1.999969
1278,268.131533,-50.598917,-11.841001,-0.755627,0.658335,1.999969
1279,233.218891,-13.977264,-11.902037,-0.397711,1.189105,1.531884
1280,31.677729,-9.765774,33.264668,-0.653086,0.453376,1.339620
1281,-70.679789,-41.199359,97.474632,-0.379889,0.323980,0.798718
1282,1.647974,-20.752270,87.953002,-0.016724,0.244755,0.623545
1283,100.587472,-0.793469,60.120546,-0.003418,0.425055,0.428962
1284,68.543526,-6.713970,52.674144,0.208255,0.533455,0.546883
1285,44.739452,-8.056764,45.105669,0.243046,0.445319,1.010391
1286,101.503014,-1.831083,26.367590,0.273198,0.475349,1.203265
1287,146.181430,-4.516670,9.277485,0.235966,0.530526,1.140398
1288,159.243153,-16.113527,-0.671397,0.190555,0.447028,1.134051
1289,188.723583,-19.592584,-11.535821,0.131106,0.326299,1.068864
1290,214.480812,-18.554971,-20.996414,0.095827,0.258671,0.968765
1291,222.964828,-19.409476,-25.757229,0.021363,0.163088,0.957534
1292,236.392767,-20.813306,-28.320745,-0.065187,0.061646,1.010269
1293,251.590753,-18.371862,-28.625925,-0.134401,-0.002197,1.073625
1294,260.563058,-14.709697,-25.940337,-0.168826,-0.063478,1.134539
1295,273.197528,-8.239872,-22.583352,-0.172976,-0.115724,1.159930
1296,283.573663,-0.976577,-19.531548,-0.142702,-0.134890,1.233783
1297,287.785153,4.150454,-16.235599,-0.089723,-0.155520,1.416770
1298,298.771649,6.103609,-14.953841,-0.023438,-0.213260,1.502586
1299,313.664454,8.484016,-18.677043,0.069703,-0.273442,1.526757
1300,319.768063,14.099336,-25.940337,0.159915,-0.397833,1.348287
1301,312.382696,27.466239,-36.804761,0.218143,-0.571420,1.066056
1302,296.452277,40.100710,-46.265354,0.241093,-0.600229,0.945815
1303,267.215991,47.852293,-54.139010,0.249027,-0.565560,1.023331
1304,241.458763,40.650034,-60.120546,0.239628,-0.572763,1.277974
1305,226.810101,35.095750,-65.735866,0.169070,-0.530770,1.563134
1306,215.396353,37.170977,-70.130465,0.091188,-0.489143,1.999969
1307,205.996796,51.209277,-70.374609,-0.051392,-0.573373,1.999969
1308,222.415503,66.102083,-66.773480,-0.183597,-0.774182,1.999969
1309,246.585794,76.600290,-58.106355,-0.220951,-0.883192,1.999969
1310,242.801556,75.379568,-44.922560,-0.160769,-0.870497,1.999969
1311,236.697948,70.435645,-33.325704,-0.075441,-0.896620,1.999969
1312,249.454490,72.022583,-27.710384,0.082033,-0.902480,1.999969
1313,254.703594,81.177996,-26.672770,0.214237,-0.873793,1.911406
1314,245.365072,83.253223,-27.405203,0.275761,-0.957290,1.683864
1315,240.909438,79.224842,-29.236286,0.305425,-1.059953,1.482811
1316,230.106050,69.642176,-29.541466,0.292241,-1.155047,1.347311
1317,214.847028,59.754330,-26.977951,0.269413,-1.333883,1.216815
1318,198.245212,53.223468,-22.095064,0.273075,-1.569604,1.001724
1319,174.685283,50.904097,-15.381094,0.353765,-1.840360,0.755871
1320,145.204852,46.936751,-13.305867,0.536507,-2.000031,0.555673
1321,107.911803,46.204318,-14.404517,0.781018,-2.000031,0.220462
1322,68.787671,49.256123,-33.020523,0.711681,-2.000031,0.067628
1323,37.598230,43.762875,-32.654307,0.368170,-2.000031,-0.131472
1324,-5.981537,11.230640,-14.343481,-0.119997,-1.924712,-0.159792
1325,-116.578927,-62.500954,13.855192,-0.048707,-2.000031,-1.406516
1326,-252.262150,-146.913863,52.124819,0.190677,-2.000031,-0.254520
1327,-163.759823,-111.085679,42.725261,0.210575,-0.395270,1.850492
1328,-110.902571,-56.031128,21.728847,-0.256352,0.922988,1.999969
1329,-149.660487,-63.904784,38.513771,-0.363165,0.931167,0.838148
1330,-291.020066,-113.649195,53.467613,-0.018677,-0.068605,0.301640
1331,-290.959030,-95.216297,65.247578,0.419562,-0.508553,1.280293
1332,-256.778820,-64.332036,56.458381,1.061662,-0.094606,1.999969
1333,-206.424048,-33.569848,31.067369,1.261860,-0.090333,1.999969
1334,-122.255283,7.202258,-2.197299,0.399908,-0.065919,1.999969
1335,-99.000534,24.231327,-5.981537,-0.403815,0.049805,1.460349
1336,-145.021744,-3.173877,30.395972,-1.155047,-0.007202,1.973663
1337,-100.892653,-56.092164,46.082246,-0.611826,-0.320439,1.352682
1338,-54.016938,-89.967193,27.710384,0.791028,0.209720,1.999969
1339,-51.148241,-49.256123,5.371176,0.962051,0.083253,1.594995
1340,-39.612421,-15.564202,1.098650,-0.389166,0.112428,1.115496
1341,-65.430686,-46.631571,10.864424,-0.281621,-0.015503,1.097063
1342,-38.879988,-51.514458,1.098650,0.396246,0.061402,1.318746
1343,-35.767147,-30.884260,0.671397,0.151736,0.112551,1.331563
1344,-40.772107,-23.620966,1.770047,-0.024170,-0.102052,1.219989
1345,-4.089418,-19.714656,-4.028382,0.105592,0.075929,1.040787
1346,-23.010605,-14.099336,0.183108,0.141726,0.108766,1.022232
1347,-25.268940,-9.155413,2.014191,-0.024903,-0.014282,1.072892
1348,-14.099336,-6.469825,1.342794,0.114504,0.069093,1.023697
1349,-22.461280,1.647974,3.234913,0.097780,0.037598,1.073625
1350,-20.935378,7.080186,3.784237,0.028565,-0.009033,1.037247
1351,-15.930419,9.460594,3.601129,0.070558,0.022095,1.020890
1352,-18.616007,10.315099,4.089418,0.004150,0.010742,1.036027
1353,-16.540780,8.789197,3.906310,0.031373,-0.008423,1.054582
1354,-10.437171,9.643702,2.441444,0.019409,0.019043,0.995743
1355,-14.221408,7.995727,2.197299,-0.006836,0.013184,0.999283
1356,-11.841001,6.652934,1.342794,0.012818,-0.010742,1.035904
1357,-7.446403,5.859464,1.403830,0.002319,0.107179,1.036759
1358,-6.897078,6.225681,1.770047,0.007080,-0.000122,0.999893
1359,-5.493248,5.859464,1.403830,0.003540,-0.018677,1.016129
1360,-4.333562,4.272526,1.159686,-0.007691,-0.000122,0.991714
1361,-5.188067,2.380407,1.342794,0.005005,-0.010254,1.003677
1362,-2.624552,2.624552,1.403830,0.013062,-0.012451,1.002823
1363,-1.709010,2.258335,1.342794,-0.010376,0.015259,0.968154
1364,-5.188067,0.732433,1.403830,0.006470,0.007446,0.978653
1365,-5.249104,0.366217,1.220722,0.005737,-0.004883,0.995987
1366,-4.577707,0.305180,1.342794,0.014405,-0.006958,0.995743
1367,-5.188067,0.732433,1.586938,0.014893,-0.006836,0.999405
1368,-4.394598,1.037613,1.770047,0.001221,0.005005,0.975723
1369,-5.859464,-0.061036,1.892119,-0.012940,0.024292,0.948867
1370,-10.437171,-2.380407,1.892119,-0.005493,-0.006592,0.927260
1371,-12.756542,-4.272526,2.014191,-0.015869,0.024903,0.971206
1372,-15.869383,-6.591897,1.464866,-0.010620,0.016480,0.968887
1373,-17.883574,-7.446403,0.976577,0.015015,-0.013306,1.005875
1374,-16.235599,-6.652934,0.671397,0.023560,-0.029297,1.008560
1375,-14.953841,-5.859464,0.671397,0.024781,-0.024903,1.009659
1376,-15.197986,-5.249104,0.976577,0.019898,-0.012940,0.986343
1377,-18.738079,-4.882887,1.464866,0.029786,-0.015015,0.991958
1378,-21.179522,-4.211490,1.892119,0.019898,-0.033814,0.995499
1379,-20.691234,-3.540093,1.892119,0.037720,-0.037964,1.021866
1380,-19.348440,-1.953155,1.892119,0.032105,-0.038331,1.003922
1381,-20.508125,-1.403830,2.136263,0.010498,-0.032105,0.960830
1382,-22.522316,-2.136263,2.136263,-0.000610,-0.013062,0.938247
1383,-27.893492,-3.906310,2.136263,0.011841,-0.012451,0.953140
1384,-32.776379,-4.638743,2.014191,0.019287,-0.042237,1.032731
1385,-31.006332,-3.723201,1.831083,0.010132,-0.050172,1.046891
1386,-27.161059,-3.479057,1.037613,0.015259,-0.054688,1.008804
1387,-27.588312,-3.479057,1.220722,-0.011719,-0.049561,0.995987
1388,-25.818265,-4.821851,0.183108,-0.001709,-0.057008,0.994278
1389,-26.245518,-5.737392,-0.793469,0.027344,-0.077028,0.984146
1390,-26.550698,-4.699779,0.732433,0.060914,-0.052735,0.957046
1391,-35.278859,-3.540093,4.333562,-0.032715,-0.095705,0.940078
1392,-32.471199,-4.394598,5.798428,0.068971,-0.082887,0.993668
1393,-34.607462,-2.380407,3.906310,0.000977,-0.072511,1.070207
1394,-39.978637,-0.610361,2.929732,0.022095,-0.087282,0.956558
1395,-39.063096,-0.854505,0.366217,-0.022339,-0.066285,0.986343
1396,-42.481117,-2.075227,-2.929732,0.012818,-0.072389,1.046159
1397,-41.931792,-2.624552,-5.127031,-0.055421,-0.111940,1.033463
1398,-36.255436,-0.732433,-6.469825,-0.066041,-0.047974,0.998184
1399,-29.053178,0.183108,-13.855192,0.054932,-0.204227,0.907851
1400,-41.748684,-1.647974,-23.865110,-0.066041,0.000610,1.053117
1401,-76.539254,7.507439,-48.279545,0.053468,-0.295171,1.102190
1402,-67.566949,6.652934,-29.114214,0.107179,-0.476204,1.068254
1403,-21.545739,-6.225681,-1.647974,0.056764,-0.142458,1.041642
1404,-28.015564,-6.775006,-9.704738,0.051637,0.026734,0.958022
1405,-59.021897,0.671397,-16.723888,0.066285,0.173098,0.909316
1406,-107.850767,2.746624,-20.630198,0.110109,0.074708,0.916396
1407,-118.043793,0.427253,-10.376135,-0.024414,0.378058,0.751232
1408,-178.774701,-7.141222,-47.669184,0.012940,0.284794,0.618418
1409,-239.200427,-20.019837,-41.077287,0.044434,0.975235,0.903700
1410,-446.295872,-19.348440,-78.126192,0.033326,0.603769,1.343160
1411,-603.219654,-91.493095,-42.298009,-0.983169,-0.126711,1.597803
1412,-727.367056,-213.382162,40.650034,-0.368048,-0.150759,1.158221
1413,-801.892119,-267.826352,86.060884,0.059083,-0.337407,0.542245
1414,-964.492256,-268.253605,155.580987,0.910903,-2.000031,1.999969
1415,-646.066987,-156.984817,205.935760,-0.763684,-0.549569,1.999969
1416,98.756390,-96.192874,-29.846647,-0.083497,0.238895,1.999969
1417,301.335164,-4.821851,-40.894179,-0.362066,1.125628,1.999969
1418,115.236133,42.542153,-55.909056,-0.335943,0.854261,1.952056
1419,-36.255436,10.009918,19.958801,-0.549447,0.663462,0.950942
1420,-39.246204,2.075227,39.185168,-0.354253,0.219608,0.848157
1421,82.154574,27.344167,27.466239,-0.318730,0.132448,0.648936
1422,122.011139,27.527276,29.114214,-0.128908,0.399786,0.362799
1423,73.670558,18.005646,36.804761,0.010132,0.385992,0.497444
1424,79.591058,18.738079,35.156786,0.087648,0.315923,0.770642
1425,126.344701,25.696193,23.437858,0.131228,0.377081,0.816907
1426,139.833677,21.362631,16.235599,0.186404,0.425055,0.871717
1427,150.026703,16.540780,9.277485,0.209354,0.384649,1.042863
1428,181.765469,16.662852,-0.976577,0.205081,0.337285,1.118425
1429,205.386435,19.958801,-9.399557,0.186038,0.303349,1.130144
1430,218.204013,22.522316,-15.442130,0.174319,0.213748,1.189960
1431,234.805829,26.001373,-19.531548,0.120851,0.076173,1.241474
1432,254.398413,28.625925,-22.156100,0.126833,-0.032227,1.234028
1433,265.262837,29.297322,-25.635157,0.251469,-0.109987,1.279561
1434,273.319600,32.715343,-33.203632,0.323613,-0.180667,1.370382
1435,286.015106,37.964446,-44.800488,0.377569,-0.265751,1.373922
1436,290.959030,39.978637,-55.664912,0.360967,-0.362310,1.364767
1437,289.982452,40.161746,-63.782712,0.269413,-0.488411,1.333272
1438,288.578622,38.025483,-68.909743,0.188113,-0.586435,1.368795
1439,284.611276,37.109941,-70.191501,0.082643,-0.673228,1.400412
1440,279.056992,40.283818,-67.383841,-0.028199,-0.729259,1.410056
1441,274.784466,41.565576,-60.852979,-0.065187,-0.709483,1.420432
1442,264.469368,41.565576,-55.603876,0.038087,-0.684215,1.503319
1443,252.994583,49.378195,-52.979324,0.068238,-0.679332,1.581933
1444,245.548180,61.341268,-51.941711,0.085206,-0.667491,1.621363
1445,235.965515,69.764248,-49.988556,0.067628,-0.652232,1.639307
1446,226.871138,71.229114,-46.265354,0.033570,-0.651621,1.757107
1447,223.270008,68.177310,-40.711070,0.016602,-0.636484,1.854887
1448,224.429694,62.439918,-36.072328,0.061280,-0.637827,1.884428
1449,225.772488,60.914015,-34.119173,0.120485,-0.632578,1.831693
1450,222.232395,63.660639,-35.156786,0.148806,-0.651377,1.760403
1451,215.213245,69.520104,-37.720302,0.150027,-0.687388,1.664332
1452,203.982605,75.196460,-39.673457,0.142458,-0.749645,1.608667
1453,192.507820,82.337682,-40.222782,0.218143,-0.829236,1.541405
1454,181.155108,87.647822,-39.124132,0.151247,-0.948013,1.493065
1455,169.741360,87.769894,-32.837415,0.067140,-1.117082,1.394430
1456,159.731441,85.755703,-21.606775,0.079469,-1.332296,1.348043
1457,142.092012,85.694667,-7.141222,0.195682,-1.606714,1.267353
1458,129.030289,88.136110,4.455634,0.388922,-2.000031,1.173724
1459,117.738613,98.939498,6.836042,0.604257,-2.000031,0.903334
1460,101.564050,114.686809,1.342794,0.640391,-2.000031,0.336919
1461,82.398718,116.395819,-2.990768,0.461921,-2.000031,-0.280766
1462,2.746624,65.064469,10.376135,-0.067384,-2.000031,-2.000031
1463,-146.913863,-100.099184,62.378882,0.260258,-2.000031,-1.721584
1464,-236.270695,-186.282139,77.515831,0.948501,-2.000031,-0.782483
1465,-152.895399,-133.730068,47.730220,0.671519,0.015503,1.475731
1466,-159.121080,-97.901884,27.527276,0.071534,1.213397,1.999969
1467,-230.655375,-97.474632,43.091478,-0.072755,0.795056,1.817044
1468,-277.897307,-104.066529,45.227741,-0.022339,-0.401373,0.813367
1469,-225.711452,-76.234073,48.889906,0.173831,-0.483894,0.474617
1470,-250.553140,-78.736553,50.782025,0.920302,0.003174,1.630884
1471,-287.418936,-50.415808,38.574807,0.766369,-0.257694,1.999969
1472,-182.009613,-0.488289,20.325017,0.023194,-0.621836,1.989654
1473,-152.712291,-61.463340,28.137636,-0.573373,-0.287236,1.999969
1474,-110.719463,-73.243305,16.113527,0.548836,-0.312383,1.999969
1475,2.990768,-38.269627,4.760815,0.703502,0.103761,1.337911
1476,-47.547112,-5.127031,1.159686,0.056153,0.022950,0.996353
1477,-97.962921,-20.569162,15.014878,-0.260868,-0.103151,0.994400
1478,-52.246891,-25.513085,-1.709010,0.164553,-0.135012,1.590967
1479,-28.564889,-20.325017,-1.586938,0.048829,-0.123049,1.132708
1480,-17.456321,-20.691234,-2.258335,-0.024659,-0.045045,1.037491
1481,-18.310826,-22.461280,-2.624552,0.086549,-0.023072,1.167987
1482,-11.413748,-15.503166,-2.380407,0.105226,-0.033326,1.066911
1483,-8.117800,-9.033341,-1.159686,0.014282,0.014160,0.969619
1484,-14.465553,-7.568475,0.671397,0.042481,0.031617,0.937148
1485,-25.207904,-6.164645,3.601129,0.061769,-0.032471,1.035538
1486,-20.141909,-2.746624,4.211490,0.024414,-0.024781,1.013687
1487,-19.836728,-2.807660,4.943923,0.033448,-0.008667,0.998428
1488,-21.179522,-4.089418,2.807660,0.004761,-0.050172,1.035172
1489,-15.442130,-5.004959,2.868696,0.014160,-0.034546,1.038102
1490,-11.108568,-5.493248,2.136263,0.023194,0.012085,1.022477
1491,-13.305867,-5.920500,1.159686,0.033936,-0.034791,1.022599
1492,-11.474784,-5.798428,1.037613,0.011841,-0.026123,1.004288
1493,-12.268254,-5.798428,1.342794,0.043091,-0.067994,0.998917
1494,-12.207218,-4.516670,1.342794,0.038087,-0.038453,1.040299
1495,-11.169604,-2.929732,1.098650,0.052125,-0.072755,1.031144
1496,-8.850233,-1.159686,2.380407,0.038941,-0.037232,1.022354
1497,-7.263294,-0.366217,2.685588,0.018311,-0.020996,1.002823
1498,-8.056764,-1.159686,2.380407,0.023682,-0.029664,0.996719
1499,-8.850233,-1.342794,1.464866,0.013794,-0.046509,0.984146
1500,-8.728161,-2.258335,1.098650,0.020386,-0.027466,0.992813
1501,-9.643702,-2.990768,0.732433,0.021729,-0.031006,0.995621
1502,-11.291676,-3.356985,0.488289,0.022339,-0.047120,0.997940
1503,-10.498207,-3.356985,0.183108,0.025269,-0.044434,0.975723
1504,-11.902037,-2.807660,0.671397,0.016480,-0.044678,0.994034
1505,-13.794156,-3.418021,0.549325,0.025269,-0.050050,1.011124
1506,-13.427939,-3.051804,0.671397,0.040772,-0.053468,1.019547
1507,-13.000687,-2.746624,0.854505,0.023560,-0.060548,0.999527
1508,-11.474784,-2.929732,0.854505,0.023560,-0.065187,1.003922
1509,-10.437171,-3.112840,0.488289,0.025025,-0.066896,1.015274
1510,-7.873655,-3.173877,0.061036,0.029419,-0.061402,1.008804
1511,-7.202258,-3.234913,-0.305180,0.032715,-0.062013,1.004776
1512,-6.897078,-2.929732,-0.366217,0.035279,-0.062135,1.001724
1513,-7.080186,-2.807660,-0.427253,0.040162,-0.056519,0.996231
1514,-8.178836,-2.197299,-0.244144,0.039185,-0.059815,0.986465
1515,-9.521630,-1.525902,0.183108,0.049195,-0.062135,1.007462
1516,-10.742351,-0.854505,0.305180,0.040284,-0.067994,1.004044
1517,-9.826810,-0.305180,0.549325,0.039796,-0.067628,0.988907
1518,-11.230640,-0.183108,0.976577,0.036500,-0.068360,0.994034
1519,-10.498207,-0.244144,1.342794,0.027466,-0.069093,0.972915
1520,-12.024109,-1.159686,1.525902,0.012696,-0.059571,0.975967
1521,-14.099336,-3.051804,0.854505,0.009155,-0.058350,0.979141
1522,-14.465553,-5.188067,0.183108,0.018677,-0.068482,0.985855
1523,-15.503166,-6.042573,-0.305180,0.043580,-0.074220,1.018326
1524,-15.686275,-4.150454,-0.793469,0.054200,-0.100954,1.037491
1525,-16.845960,-2.685588,-1.037613,0.049683,-0.082887,1.030900
1526,-16.357671,-1.647974,-1.037613,0.053223,-0.076295,1.012467
1527,-18.249790,-0.549325,-0.671397,0.043458,-0.080568,0.990616
1528,-19.775692,-0.244144,-0.610361,0.038087,-0.096559,1.008194
1529,-23.620966,0.854505,0.061036,0.040406,-0.105348,0.906752
1530,-18.982223,0.915541,1.037613,0.039551,-0.105226,1.017716
1531,-17.883574,1.525902,2.319371,0.051392,-0.097292,1.017716
1532,-18.432898,3.295949,4.272526,0.054322,-0.086183,0.992813
1533,-25.757229,4.272526,4.882887,0.003540,-0.082033,0.995132
1534,-26.062409,2.990768,3.479057,0.010132,-0.068605,0.997818
1535,-28.015564,2.441444,1.831083,0.018067,-0.055543,0.982803
1536,-35.950256,2.624552,0.427253,0.023804,-0.078981,0.985489
1537,-38.696880,3.356985,-1.037613,0.015381,-0.092287,1.015396
1538,-37.659266,3.479057,-2.624552,0.027344,-0.099123,1.003433
1539,-37.232013,4.821851,-6.042573,0.007935,-0.130495,1.022477
1540,-35.523003,6.775006,-11.352712,-0.051759,-0.139162,1.052506
1541,-43.396658,9.338521,-27.466239,-0.042603,-0.224369,1.039445
1542,-37.720302,8.422980,-26.001373,0.032105,-0.205447,1.005142
1543,-36.621653,6.897078,-27.038987,0.060792,-0.173220,1.006729
1544,-32.288090,2.502480,-15.808347,0.159548,-0.277714,1.117815
1545,-26.062409,4.638743,2.502480,0.104372,-0.071412,1.004288
1546,-50.537881,13.672084,-6.042573,0.000610,0.169558,0.934096
1547,-97.108415,16.357671,-20.813306,0.045777,0.189700,0.831067
1548,-115.419242,11.108568,-8.117800,-0.048463,0.018433,0.893446
1549,-151.430533,-5.310140,-10.559243,-0.243656,0.116701,0.781506
1550,-199.404898,-14.221408,-4.455634,0.314092,0.635874,0.497078
1551,-335.149157,-17.090105,-46.204318,0.024170,0.142702,1.356222
1552,-455.085069,-63.050278,-2.258335,-0.590341,-0.200809,1.135393
1553,-537.544823,-149.599451,26.123445,-0.180545,-0.288457,1.044450
1554,-586.251621,-182.314794,52.674144,0.150881,-0.361700,1.055436
1555,-625.741970,-185.305562,71.412222,0.228763,-0.345586,0.727428
1556,-654.062715,-180.239567,77.515831,0.822156,-0.902235,1.612451
1557,-664.255741,-174.624247,111.024643,-0.204227,-0.912367,1.999969
1558,-248.233768,-89.539940,3.906310,0.166873,-0.140505,1.999969
1559,113.405051,-31.250477,-70.191501,0.164187,0.821424,1.999969
1560,105.592432,23.071641,-94.422828,-0.000610,1.201556,1.999969
1561,20.447089,-5.188067,-63.660639,-0.475715,0.681041,1.864408
1562,34.912642,-14.953841,-42.969406,-0.487068,0.257206,1.574487
1563,144.716564,7.629511,-36.987869,-0.600961,0.174563,1.013687
1564,161.196307,10.864424,-20.386053,-0.503059,0.257450,0.567880
1565,128.297856,10.620279,-1.525902,-0.437995,0.184695,0.630869
1566,142.641337,14.892805,9.704738,-0.322881,0.149416,0.798352
1567,175.661860,20.813306,13.611048,-0.162234,0.277348,0.889418
1568,180.422675,21.972992,16.235599,0.004639,0.322759,1.084489
1569,191.287099,24.841688,9.521630,0.424323,0.241215,1.355367
1570,216.922255,46.448463,-20.263981,0.534798,0.001343,1.671168
1571,258.793011,78.797589,-46.814679,0.435798,-0.151492,1.315572
1572,277.286946,83.375296,-65.980011,0.396735,-0.289189,1.106950
1573,279.728389,81.727321,-77.332723,0.273320,-0.441535,0.904433
1574,277.409018,70.618753,-82.581827,0.151247,-0.572274,0.845350
1575,273.624781,56.885634,-82.948043,0.067628,-0.671153,0.859754
1576,265.568017,46.326390,-80.201419,0.030884,-0.741711,0.929946
1577,254.947738,44.190127,-77.027543,0.039185,-0.794324,1.060075
1578,239.627680,50.476844,-72.510872,-0.039796,-0.892348,1.221088
1579,229.129473,59.449149,-63.721675,-0.174197,-0.959854,1.322164
1580,227.359426,67.200732,-50.354772,-0.258061,-0.987442,1.371115
1581,221.255818,74.830243,-31.555657,-0.307378,-0.983658,1.422629
1582,212.466621,81.788357,-10.254063,-0.335576,-1.000137,1.536522
1583,207.583734,89.723049,12.085145,-0.317876,-1.070207,1.562036
1584,208.926528,93.324178,33.936065,-0.252567,-1.096086,1.435569
1585,206.240940,90.516518,52.368963,-0.130495,-1.080461,1.275288
1586,195.254444,86.366064,65.796902,-0.030396,-1.036149,1.182025
1587,181.704433,83.497368,73.060197,0.044312,-0.995987,1.199603
1588,169.314107,84.412909,75.196460,0.108278,-0.977676,1.251484
1589,163.759823,96.925307,74.525063,0.678111,-0.875135,1.256733
1590,156.801709,124.086366,58.228428,0.890883,-0.709239,1.087785
1591,129.518578,122.743572,40.344854,0.918715,-0.740002,0.963394
1592,123.537041,111.573968,21.606775,0.853162,-0.708995,0.942519
1593,106.935225,91.981384,8.728161,0.753674,-0.692638,0.986587
1594,98.512245,71.595331,-2.685588,0.640635,-0.706065,1.062516
1595,92.347601,45.654994,-11.841001,0.540780,-0.664561,1.292866
1596,96.498054,19.226368,-23.071641,0.461433,-0.723033,1.407126
1597,110.719463,6.836042,-36.377508,0.390143,-0.796643,1.388571
1598,113.466087,13.977264,-46.997787,0.303838,-0.908949,1.237812
1599,108.644236,30.518044,-52.002747,0.117311,-1.088518,0.957290
1600,99.000534,40.588998,-46.814679,-0.095827,-1.262226,0.612924
1601,78.309300,37.232013,-30.579080,-0.248173,-1.375021,0.372198
1602,52.185855,21.423667,-7.080186,-0.280156,-1.422507,0.366461
1603,32.471199,0.183108,15.747311,-0.205203,-1.428489,0.416632
1604,-19.409476,-46.204318,31.921874,-0.102419,-2.000031,-1.648707
1605,-112.733654,-129.823758,46.021210,0.574228,-1.220722,-0.316777
1606,-32.043946,-78.492409,22.888533,0.303349,0.776745,0.971939
1607,6.469825,1.403830,-3.601129,-0.218631,1.294087,1.389059
1608,-99.183642,-40.833143,32.227054,-0.208743,1.204852,0.501472
1609,-237.247272,-113.038834,34.485389,0.255741,-0.070558,-0.014405
1610,-220.889601,-68.482490,37.170977,0.220340,-0.307622,0.546273
1611,-181.399252,-61.829557,19.897765,0.363531,-0.047120,1.644434
1612,-197.024491,-40.039673,44.190127,-0.860853,0.086549,1.999969
1613,-242.923629,-138.429847,49.439231,0.777600,-0.651011,1.999969
1614,35.889220,-39.978637,-1.464866,0.889296,-0.638193,1.596216
1615,85.938811,15.442130,-38.635843,0.333623,0.395758,1.786770
1616,-80.811780,1.281758,19.165332,-0.550546,-0.086305,0.757092
1617,-7.995727,-4.760815,13.550011,0.038087,0.035401,1.305806
1618,19.043259,4.760815,1.403830,0.211673,0.237552,0.896498
1619,-34.607462,8.545052,6.958114,-0.055177,0.055299,0.963516
1620,-11.108568,5.859464,3.479057,-0.166751,0.094240,0.815686
1621,-23.437858,-4.272526,2.685588,-0.059449,0.137453,0.816785
1622,-42.786297,-10.009918,4.028382,0.015137,-0.012207,1.101579
1623,-23.926146,-7.995727,1.342794,-0.078737,-0.046021,1.106096
1624,-11.963073,-10.864424,0.000000,-0.029664,0.029419,1.043351
1625,-13.000687,-9.338521,0.122072,0.071290,0.038209,1.053727
1626,-13.855192,-3.784237,0.488289,0.013428,-0.006592,1.108293
1627,-7.324331,-1.586938,0.549325,-0.025757,-0.013306,1.097307
1628,1.770047,0.488289,-0.610361,0.029541,0.016846,1.077775
1629,2.319371,4.577707,0.000000,0.021118,0.039063,1.008927
1630,2.014191,7.019150,0.671397,-0.026001,0.054810,0.938003
1631,-2.929732,6.408789,1.342794,-0.014038,0.067628,0.937636
1632,-8.239872,5.432212,1.892119,-0.038575,0.044190,0.998917
1633,-6.897078,4.699779,1.831083,-0.023682,0.018433,1.002579
1634,-4.028382,4.028382,1.525902,-0.037720,0.038331,0.975113
1635,-7.202258,2.441444,1.647974,-0.016724,0.022950,0.992569
1636,-6.225681,2.197299,1.770047,-0.005615,0.018189,1.028946
1637,-4.394598,3.173877,1.709010,-0.009155,0.021118,1.020523
1638,-3.601129,3.295949,1.770047,-0.032349,0.033570,0.995377
1639,-4.272526,2.624552,1.464866,-0.034913,0.036866,0.973404
1640,-5.371176,1.342794,1.342794,-0.036744,0.043702,0.975357
1641,-7.568475,0.183108,0.976577,-0.029541,0.035523,0.981460
1642,-7.934691,-0.488289,0.671397,-0.023682,0.032593,0.987076
1643,-9.521630,-0.976577,0.793469,-0.019654,0.021118,1.009781
1644,-8.239872,-0.488289,0.732433,-0.008423,0.019654,1.024674
1645,-7.873655,0.488289,0.671397,-0.012085,0.008789,1.032486
1646,-5.432212,2.319371,0.305180,0.003174,0.012329,1.051652
1647,-5.004959,4.760815,0.427253,-0.018799,0.007691,1.012467
1648,-2.563516,5.065995,0.183108,-0.031617,0.028565,0.977066
1649,-5.371176,4.272526,0.122072,-0.026856,0.022950,0.988296
1650,-5.920500,3.845274,0.305180,-0.031006,0.007202,1.002579
1651,-3.967346,2.624552,0.122072,-0.060548,0.021363,0.953384
1652,-5.554284,0.061036,-0.122072,-0.038819,0.033814,0.977066
1653,-8.422980,-1.770047,-0.183108,-0.043458,0.008179,0.984756
1654,-5.737392,-2.807660,-0.610361,-0.034058,0.022705,0.981949
1655,-7.812619,-3.784237,-0.915541,-0.021851,0.010254,1.003433
1656,-8.300908,-3.723201,-0.854505,-0.027222,-0.005737,1.028214
1657,-4.028382,-3.112840,-1.098650,-0.018799,-0.000977,1.021866
1658,-3.845274,-2.197299,-0.915541,-0.017090,0.001221,1.023453
1659,-3.234913,-1.281758,-0.549325,-0.013672,-0.008667,1.012833
1660,-1.464866,-0.671397,-0.366217,-0.024537,0.005249,0.982193
1661,-2.990768,-0.915541,0.061036,-0.027710,0.017212,0.980484
1662,-4.516670,-2.014191,0.305180,-0.019409,0.011475,0.996231
1663,-5.554284,-2.075227,0.671397,-0.019532,0.007446,1.000626
1664,-5.188067,-1.892119,0.854505,-0.021118,0.001099,0.999893
1665,-5.188067,-2.319371,0.854505,-0.027100,0.000000,0.994888
1666,-6.469825,-3.112840,0.732433,-0.029908,-0.003784,1.001236
1667,-5.676356,-3.479057,0.549325,-0.018433,-0.002808,1.006973
1668,-5.065995,-3.723201,0.244144,-0.022950,-0.000122,0.995132
1669,-5.432212,-4.089418,0.183108,-0.024292,-0.006958,0.999161
1670,-4.516670,-3.662165,0.244144,-0.025635,0.003662,1.004410
1671,-4.638743,-3.479057,0.183108,-0.019043,-0.002319,0.997940
1672,-5.310140,-3.051804,0.671397,-0.018921,-0.004639,1.020768
1673,-3.784237,-2.380407,0.671397,-0.020508,-0.007202,1.017594
1674,-3.112840,-1.403830,0.671397,-0.017334,-0.001953,1.012222
1675,-3.295949,-1.464866,0.732433,-0.035035,0.003662,0.984756
1676,-3.845274,-2.563516,0.305180,-0.024537,-0.005737,0.996231
1677,-3.173877,-2.990768,-0.183108,-0.011109,-0.018433,1.013443
1678,-1.281758,-2.807660,-0.427253,-0.012329,-0.018921,1.017594
1679,-0.061036,-2.563516,-0.671397,-0.010620,-0.007813,1.021622
1680,-0.061036,-1.831083,-0.732433,-0.001221,-0.006714,1.017716
1681,1.098650,-0.915541,-0.549325,-0.015381,-0.007813,0.999283
1682,0.427253,-0.854505,0.000000,-0.010498,-0.006958,0.994156
1683,0.061036,-0.488289,0.183108,-0.009522,-0.010742,1.008804
1684,0.305180,-0.244144,0.427253,-0.007813,-0.005127,1.002823
1685,0.488289,0.061036,0.488289,-0.015503,-0.005859,1.006363
1686,1.098650,0.000000,0.427253,-0.019776,-0.006226,0.996231
1687,0.793469,-0.122072,0.244144,-0.015137,-0.005249,0.990738
1688,0.305180,-0.366217,0.305180,-0.024048,-0.003784,0.991714
1689,0.427253,-0.915541,0.061036,-0.013916,-0.001831,1.005142
1690,0.061036,-0.915541,0.000000,-0.019898,-0.001587,0.999649
1691,-0.427253,-0.976577,0.000000,-0.021485,-0.005737,1.003677
1692,-0.549325,-1.220722,0.000000,-0.030762,0.006836,0.978164
1693,-2.563516,-2.197299,0.305180,-0.024048,0.004273,0.972061
1694,-4.089418,-3.051804,0.427253,-0.020142,0.008301,0.985733
1695,-5.493248,-3.662165,0.305180,-0.022583,0.000610,0.988907
1696,-5.859464,-4.211490,0.183108,-0.017823,-0.009644,1.002701
1697,-5.554284,-3.967346,0.122072,-0.014038,-0.011963,1.010880
1698,-4.455634,-3.845274,0.061036,-0.014405,-0.017212,1.015640
1699,-3.601129,-3.601129,0.061036,-0.003296,-0.012818,1.007950
1700,-2.990768,-3.234913,-0.244144,-0.000610,-0.020020,1.029923
1701,-1.586938,-2.197299,-0.183108,0.000000,-0.027832,1.036759
1702,0.427253,-1.342794,-0.122072,-0.005982,-0.020752,1.010636
1703,1.098650,-1.159686,-0.244144,-0.016846,-0.016968,1.009537
1704,1.831083,-1.159686,-0.244144,-0.003662,-0.015259,1.006119
1705,2.502480,-1.037613,-0.244144,-0.013550,-0.017334,1.011368
1706,3.173877,-0.854505,-0.183108,0.004883,-0.028077,1.043473
1707,6.713970,0.671397,-0.305180,-0.005493,-0.030640,1.033951
1708,8.300908,1.464866,-0.366217,0.001099,-0.028199,1.049332
1709,11.718929,2.441444,-0.549325,-0.010742,-0.027710,1.032242
1710,14.648661,2.319371,-0.732433,-0.023194,-0.003784,0.992935
1711,13.977264,0.915541,-0.976577,-0.031861,0.017456,0.954971
1712,11.474784,-1.281758,-1.403830,-0.027344,0.009277,0.967666
1713,10.681315,-2.685588,-1.831083,-0.016480,0.017212,0.964981
1714,8.667124,-3.479057,-1.831083,-0.012818,0.022705,0.978286
1715,6.530861,-4.089418,-1.770047,-0.025513,0.033448,0.930434
1716,2.075227,-5.249104,-1.220722,-0.019409,0.044923,0.919936
1717,-4.089418,-6.347753,-0.549325,0.003296,0.017823,0.995010
1718,-3.784237,-4.821851,-0.366217,0.021363,-0.011963,1.041886
1719,0.061036,-2.075227,0.061036,0.014405,0.007568,1.020035
1720,-1.159686,-1.098650,0.244144,0.004273,0.000977,1.005875
1721,-0.427253,-0.427253,0.183108,-0.004517,0.004761,1.011490
1722,-0.061036,-0.183108,0.000000,-0.004517,0.000488,1.005264
1723,0.244144,-0.122072,-0.305180,-0.002441,0.005127,1.001968
1724,1.098650,0.061036,-0.427253,-0.005249,0.011475,1.000259
1725,0.183108,-0.366217,-0.549325,0.000122,0.002075,1.009903
1726,1.159686,0.000000,-0.549325,-0.001221,-0.003784,1.023697
1727,2.380407,0.488289,-0.549325,0.000488,0.003906,1.013809
1728,2.502480,0.976577,-0.305180,0.001465,-0.003174,1.006973
1729,3.906310,1.709010,-0.183108,-0.003296,0.004883,1.011612
1730,4.211490,1.831083,0.000000,-0.009033,0.013184,1.002579
1731,4.394598,2.197299,-0.122072,-0.014527,0.028687,0.983291
1732,3.234913,1.159686,-0.549325,-0.028809,0.044068,0.929702
1733,-2.929732,-0.671397,-0.732433,-0.004883,0.011109,1.001114
1734,-0.915541,-0.183108,-0.671397,0.001709,-0.012573,1.031876
1735,1.159686,0.976577,-0.427253,0.009155,-0.017945,1.040543
1736,4.699779,2.685588,0.061036,0.007813,-0.012696,1.039933
1737,7.812619,3.662165,0.305180,-0.010620,0.004883,0.999893
1738,6.836042,3.906310,0.671397,-0.006104,0.008789,0.997208
1739,8.056764,4.211490,0.976577,-0.011109,0.035157,0.959487
1740,3.723201,3.418021,0.671397,-0.018921,0.028687,0.998306
1741,4.211490,2.990768,0.244144,-0.010620,0.013306,0.993057
1742,6.164645,3.051804,0.000000,-0.014527,0.059449,0.924941
1743,-3.356985,2.014191,0.549325,-0.014405,0.028809,0.990982
1744,-2.624552,1.342794,0.366217,-0.035401,-0.033326,1.053483
1745,7.385367,1.586938,0.000000,-0.023926,0.033570,0.971572
1746,0.915541,-0.976577,0.061036,-0.053468,0.044556,0.913832
1747,-1.709010,-4.394598,-0.122072,-0.034668,0.039185,0.920180
1748,-6.286717,-6.225681,-0.427253,0.014160,-0.004883,1.049088
1749,-1.037613,-4.882887,-0.732433,-0.006714,-0.040284,1.080461
1750,8.422980,-1.403830,-0.427253,0.072755,0.041871,1.009659
1751,-0.183108,2.685588,1.342794,-0.010742,0.015625,1.010391
1752,3.662165,2.441444,1.403830,-0.060304,0.033814,0.949722
1753,0.000000,-0.732433,1.159686,-0.031495,0.056886,0.920424
1754,-4.272526,-4.455634,0.244144,-0.067994,0.075807,0.872694
1755,-14.038300,-11.352712,-1.037613,-0.032593,0.008545,0.989517
1756,-5.432212,-11.841001,-2.746624,0.012451,0.031861,0.998550
1757,-13.183795,-11.657893,-2.197299,0.034913,-0.029908,1.110857
1758,-0.854505,-6.469825,-1.953155,0.031373,-0.032227,1.091691
1759,2.990768,-2.014191,-1.098650,0.027344,0.017456,1.005386
1760,-2.624552,0.000000,0.183108,0.001831,-0.010132,1.035294
1761,5.798428,1.098650,-0.427253,-0.024414,0.075074,0.898085
1762,-12.085145,-2.380407,0.427253,0.001953,-0.029786,1.035782
1763,0.366217,-0.549325,0.061036,0.004028,-0.082887,1.143206
1764,13.305867,1.037613,0.061036,-0.014160,0.019532,0.992081
1765,8.789197,-0.549325,-0.427253,-0.005371,0.054078,0.922011
1766,1.953155,-3.173877,-0.976577,-0.044434,0.055177,0.937514
1767,-0.732433,-5.065995,-1.464866,-0.000488,0.055421,0.939101
1768,-6.591897,-4.821851,-1.342794,0.017456,0.043091,0.964248
1769,-11.108568,-4.211490,-0.976577,-0.010498,-0.011719,1.035050
1770,-4.516670,-3.601129,-1.220722,0.024414,-0.020264,1.045792
1771,-1.892119,-1.586938,-0.732433,0.021607,0.007324,1.010391
1772,-1.892119,-0.183108,-0.183108,-0.005249,0.015869,1.001724
1773,-2.746624,-1.281758,-0.305180,-0.019287,-0.001099,0.980362
1774,-0.793469,-3.173877,-1.037613,0.013672,0.000244,1.019913
1775,-1.403830,-2.990768,-0.793469,0.013184,-0.018433,1.044572
1776,6.530861,-1.403830,-1.403830,0.006104,0.039796,0.998672
1777,-1.281758,-2.197299,-0.671397,-0.007446,0.016358,1.008804
1778,2.624552,-2.258335,-0.915541,-0.000610,0.028687,0.939223
1779,-3.356985,-3.234913,-0.366217,0.002686,0.047852,0.951308
1780,-7.995727,-3.906310,0.000000,0.000610,-0.006958,1.027481
1781,-2.746624,-3.112840,-0.305180,0.018067,0.019165,0.972915
1782,-7.812619,-3.173877,0.000000,-0.007446,0.013428,0.984756
1783,-7.080186,-5.127031,-0.610361,-0.015137,-0.010010,1.013199
1784,-2.990768,-5.798428,-1.647974,0.018555,0.014771,0.996231
1785,-5.493248,-5.554284,-1.892119,0.015259,0.000855,1.025040
1786,-2.624552,-4.028382,-2.075227,0.030152,0.001709,1.033707
1787,-2.014191,-2.197299,-1.586938,0.026246,0.009155,0.999405
1788,-4.394598,-0.854505,-0.854505,0.013916,-0.002319,1.033341
1789,-0.915541,0.122072,-1.281758,-0.010010,0.009766,0.987198
1790,-3.845274,-1.403830,-1.281758,0.001587,-0.009522,1.015518
1791,0.244144,-1.342794,-1.647974,0.012818,0.002564,0.996597
1792,-0.610361,-1.159686,-1.281758,0.009277,0.014893,0.972183
1793,-2.868696,-1.525902,-0.915541,0.009522,-0.002075,1.009659
1794,-1.159686,-0.976577,-0.854505,0.017090,-0.004395,1.009293
1795,-0.183108,-0.915541,-1.098650,0.002441,0.003418,1.003311
1796,-0.732433,-1.647974,-0.976577,0.011597,-0.020996,1.014298
1797,3.845274,-0.549325,-1.098650,0.014893,0.014038,0.986221
1798,0.061036,-0.732433,-0.610361,0.013306,0.025269,0.965225
1799,-2.014191,-0.671397,-0.183108,0.007446,0.016846,0.989273
1800,-3.295949,-0.549325,-0.366217,0.004028,0.002686,0.996597
1801,-3.295949,-0.915541,-0.427253,0.011231,-0.013306,1.019791
1802,0.122072,-0.854505,-0.610361,0.010132,-0.018799,1.010636
1803,1.831083,-0.976577,-0.305180,0.012818,0.003052,0.996353
1804,1.586938,-0.732433,-0.427253,0.009033,0.013062,0.977310
1805,-0.427253,-1.037613,0.000000,0.017945,0.026246,0.965225
1806,-3.356985,-0.854505,0.061036,0.014405,0.010254,0.989883
1807,-3.967346,-0.976577,0.183108,0.000488,0.002197,0.995743
1808,-3.418021,-1.770047,0.000000,0.013916,-0.007691,1.015885
1809,-1.709010,-1.647974,-0.244144,0.021363,0.001709,1.013199
1810,-1.892119,-0.793469,-0.305180,0.017823,-0.001587,1.004288
1811,-2.014191,0.000000,0.061036,0.020630,-0.005249,0.998062
1812,-1.953155,0.793469,0.305180,0.022339,0.005615,0.984878
1813,-3.234913,0.854505,0.671397,0.001465,0.017578,0.983291
1814,-5.554284,0.915541,0.915541,0.029786,0.026246,0.968887
1815,-9.033341,0.793469,0.671397,-0.003906,-0.012818,0.990982
1816,-7.690547,-0.427253,0.305180,0.007813,-0.014038,1.014054
1817,-6.591897,-0.671397,0.122072,0.007080,-0.018799,1.022965
1818,-4.821851,-0.915541,0.366217,-0.000610,-0.015381,0.986954
1819,-4.150454,-1.342794,0.732433,0.015015,-0.006470,0.999893
1820,-4.516670,-1.403830,0.854505,0.003662,-0.010132,1.008194
1821,-3.967346,-1.709010,0.671397,0.012940,-0.000732,0.998917
1822,-5.065995,-1.953155,0.549325,0.008301,-0.013550,1.011368
1823,-3.845274,-1.831083,0.061036,0.014405,-0.013672,1.006241
1824,-3.845274,-1.709010,0.061036,0.015869,-0.014649,1.001968
1825,-3.540093,-1.464866,0.061036,0.012085,-0.009277,1.003433
1826,-3.418021,-1.403830,0.000000,0.013550,-0.015869,1.002457
1827,-2.685588,-1.342794,-0.183108,0.013428,-0.011231,0.990127
1828,-2.441444,-1.464866,-0.122072,0.011841,-0.005982,0.999649
1829,-4.150454,-1.770047,-0.305180,0.012573,-0.018555,1.017838
1830,-2.685588,-1.709010,-0.366217,0.017090,-0.012085,0.992691
1831,-3.662165,-1.525902,-0.305180,0.015015,-0.014160,0.997574
1832,-3.601129,-1.342794,-0.427253,0.017823,-0.012085,1.010147
1833,-3.418021,-1.281758,-0.488289,0.008423,-0.018067,1.000748
1834,-3.540093,-1.037613,-0.610361,0.012573,-0.044556,1.000259
1835,1.098650,-0.427253,-1.464866,0.002930,0.002930,0.995254
1836,-7.690547,-1.709010,-0.122072,0.021729,-0.023194,1.014054
1837,-0.305180,-1.159686,0.000000,0.012940,-0.018067,1.017838
1838,-1.037613,-1.647974,0.305180,0.011231,-0.017212,1.007950
1839,0.488289,-1.403830,0.305180,0.018555,-0.017578,1.017838
1840,0.793469,-0.915541,0.122072,0.016114,-0.015625,0.991470
1841,0.305180,-0.732433,0.000000,0.010986,-0.018921,0.988907
1842,1.281758,-0.427253,-0.427253,0.019654,-0.015503,0.998062
1843,1.525902,-0.122072,-0.488289,0.012818,-0.020508,0.999283
1844,2.258335,0.000000,-0.915541,0.019165,-0.015381,0.998306
1845,1.709010,0.366217,-0.976577,0.015991,-0.007202,0.995132
1846,0.427253,0.183108,-1.342794,0.008423,-0.016846,1.007584
1847,1.709010,-0.122072,-1.403830,0.021118,-0.012573,1.003555
1848,0.732433,0.000000,-1.647974,0.019043,-0.014160,1.006363
1849,2.319371,0.671397,-2.685588,0.025391,-0.014038,1.015885
