Packet number,Gyroscope X (deg/s),Gyroscope Y (deg/s),Gyroscope Z (deg/s),Accelerometer X (g),Accelerometer Y (g),Accelerometer Z (g)
0,-0.549325,0.122072,0.061036,0.002075,-0.005371,0.999893
1,-0.610361,0.183108,0.000000,-0.000244,0.003906,0.996231
2,-0.549325,0.122072,0.061036,0.002808,-0.002441,0.998062
3,-0.793469,0.061036,0.122072,-0.005982,0.001709,0.994766
4,-1.220722,-0.061036,0.061036,-0.002808,-0.002197,1.003433
5,-0.671397,-0.244144,0.000000,0.002075,-0.002808,1.003189
6,-0.854505,-0.061036,0.061036,-0.001343,-0.004639,0.996353
7,-0.610361,-0.061036,0.061036,-0.002319,-0.001831,0.998795
8,-0.427253,0.122072,0.061036,0.008545,0.002441,0.998306
9,-0.732433,0.000000,0.061036,0.000122,0.000610,0.999893
10,-0.488289,0.061036,0.061036,-0.005859,0.000244,0.995010
11,-0.793469,0.061036,0.122072,0.000366,-0.000977,0.998428
12,-0.793469,0.061036,0.122072,0.000000,-0.002319,1.002701
13,-0.732433,-0.061036,0.061036,-0.000855,-0.001465,0.998917
14,-0.671397,0.122072,0.061036,-0.002319,-0.003784,0.996597
15,-0.183108,-0.427253,0.000000,0.010986,0.008667,1.000137
16,-1.159686,0.427253,-0.122072,-0.005127,0.003784,0.998550
17,-0.549325,-0.366217,0.122072,0.011719,-0.006348,1.014176
18,0.000000,0.671397,0.000000,-0.014038,0.004150,0.988174
19,-1.525902,-0.427253,0.122072,0.011109,-0.000244,1.005264
20,-0.427253,0.488289,0.000000,-0.007080,0.003662,0.992569
21,-1.220722,0.000000,0.061036,-0.000610,-0.006470,0.997208
22,-0.793469,0.061036,0.000000,-0.000488,0.002930,1.001480
23,-0.976577,0.000000,0.061036,0.006592,-0.004395,1.004654
24,-0.854505,0.305180,0.061036,0.000610,-0.000244,0.997574
25,-0.793469,0.244144,0.122072,-0.002319,0.000977,0.991714
26,-0.915541,0.122072,0.061036,-0.002441,0.000977,1.001480
27,-0.183108,0.244144,0.061036,-0.002075,0.003906,0.996231
28,-0.976577,0.000000,0.122072,-0.001709,-0.004883,0.995377
29,-0.061036,0.183108,0.122072,-0.008789,-0.002564,0.995743
30,-0.549325,-0.244144,0.000000,0.011475,0.000732,0.993057
31,-1.098650,-0.061036,0.061036,-0.007202,-0.001465,1.003433
32,-0.366217,-0.061036,0.061036,0.001953,0.005493,0.997086
33,-0.976577,-0.061036,0.000000,0.001831,-0.000488,0.996353
34,-0.488289,0.061036,0.000000,0.004273,0.005005,0.993301
35,-1.098650,0.061036,0.122072,-0.004395,0.002441,0.997574
36,-0.427253,0.122072,0.061036,0.001831,0.000244,1.000748
37,-0.671397,0.122072,0.000000,-0.000244,0.004150,0.997574
38,-0.671397,0.061036,0.183108,0.002564,-0.001587,1.003189
39,-0.366217,0.183108,0.122072,0.003540,-0.003052,0.998062
40,-0.549325,0.122072,0.122072,-0.000122,0.005371,1.002579
41,-0.244144,0.061036,0.000000,0.002564,-0.002808,0.996353
42,-0.244144,0.122072,0.061036,-0.004639,-0.000488,0.995254
43,-0.244144,0.183108,0.061036,0.000000,0.000000,1.002335
44,-0.244144,0.183108,0.122072,-0.003418,0.002686,0.995743
45,-0.549325,0.183108,0.061036,-0.000977,-0.000488,1.001480
46,-0.366217,0.061036,0.122072,0.003540,0.001221,1.000748
47,-0.488289,0.244144,0.061036,0.001221,0.001587,0.993545
48,-0.610361,0.183108,0.061036,-0.000366,-0.000977,1.001236
49,-0.183108,0.366217,0.122072,0.005127,-0.004150,1.002701
50,0.000000,0.549325,0.061036,-0.005127,-0.000366,1.004044
51,0.061036,0.671397,0.061036,-0.001465,-0.000610,0.996475
52,0.122072,0.732433,0.122072,-0.000122,0.006348,1.005875
53,0.183108,0.671397,0.000000,-0.001099,0.003296,1.004288
54,0.549325,0.671397,0.000000,0.001587,0.009277,0.995132
55,0.000000,0.671397,0.000000,-0.003418,-0.001709,0.984878
56,-0.061036,0.244144,0.183108,0.003296,0.004883,0.995865
57,-0.183108,0.427253,0.000000,-0.000732,0.007691,0.990372
58,-0.549325,0.244144,0.122072,0.000366,0.006714,0.990982
59,-1.159686,0.122072,0.244144,0.001587,0.000244,0.997330
60,-0.732433,0.488289,0.122072,-0.006348,0.003540,0.997818
61,-0.854505,0.366217,0.183108,0.002686,0.001709,1.000504
62,-0.732433,0.488289,0.183108,0.001953,0.004639,0.996719
63,-0.915541,0.488289,0.061036,0.000244,-0.004273,1.004898
64,-0.244144,0.366217,0.061036,-0.000977,0.003784,0.994888
65,-0.427253,0.366217,0.000000,0.001221,0.008911,0.999649
66,-0.854505,0.427253,0.061036,-0.011353,-0.003174,0.994522
67,0.061036,0.305180,0.000000,0.000610,0.004761,0.998184
68,-0.915541,0.183108,0.000000,-0.004639,0.001709,1.001114
69,-0.427253,0.061036,0.000000,0.002319,0.005005,0.993057
70,-0.732433,0.061036,0.000000,-0.003906,0.007568,0.990982
71,-1.281758,-0.061036,0.000000,0.000855,0.006470,0.988418
72,-2.014191,-0.183108,0.000000,0.001709,0.009277,0.997208
73,-2.075227,-0.061036,0.000000,-0.004639,0.001221,1.010391
74,-2.075227,-0.061036,0.000000,0.004028,-0.000610,0.995987
75,-1.770047,0.183108,0.061036,-0.003418,0.004883,1.004166
76,-1.770047,0.061036,0.061036,-0.004761,-0.001099,1.000992
77,-1.403830,0.122072,0.061036,-0.003174,0.001099,1.005386
78,-1.098650,0.183108,0.000000,-0.001831,0.000855,0.993790
79,-1.098650,0.061036,0.000000,-0.012451,-0.001221,1.002945
80,-0.976577,-0.061036,0.000000,-0.002686,0.005982,0.991470
81,-1.159686,-0.244144,0.000000,-0.002564,-0.000977,0.999771
82,-0.732433,-0.183108,0.000000,-0.004883,0.007813,0.995865
83,-1.220722,-0.305180,0.000000,-0.002930,0.006104,0.987808
84,-1.403830,-0.366217,0.000000,-0.001465,0.000000,1.000137
85,-1.647974,-0.366217,0.061036,0.004028,-0.003174,0.999039
86,-1.220722,-0.183108,-0.122072,0.003174,0.009766,0.992203
87,-1.586938,-0.061036,0.061036,-0.004273,0.003906,1.002457
88,-1.220722,-0.061036,0.000000,0.000977,0.001465,0.994034
89,-1.220722,0.000000,0.061036,-0.003174,0.006592,1.001724
90,-1.098650,0.122072,0.183108,0.000855,0.007935,1.001236
91,-0.976577,0.061036,0.122072,-0.001709,0.002197,0.992813
92,-1.159686,-0.061036,0.183108,-0.004883,-0.003052,1.001480
93,-0.488289,-0.061036,0.000000,-0.003906,-0.000610,0.980728
94,-1.403830,-0.366217,0.061036,-0.007935,-0.004150,0.998062
95,-0.854505,-0.488289,-0.183108,0.002319,0.001587,0.999039
96,-0.976577,-0.671397,0.000000,-0.008301,0.003052,1.002579
97,-0.976577,-0.732433,0.000000,0.001465,0.001953,1.005753
98,-1.037613,-0.732433,-0.122072,-0.003540,0.001831,0.988174
99,-1.098650,-0.854505,0.000000,0.001099,0.004517,0.991958
100,-0.915541,-0.793469,0.000000,-0.003174,-0.001465,0.999405
101,-1.159686,-0.732433,0.000000,-0.005982,0.003540,0.983902
102,-1.220722,-0.976577,0.000000,0.006226,0.002197,1.000259
103,-1.098650,-0.732433,0.000000,0.000122,0.001953,0.999283
104,-1.098650,-0.732433,-0.122072,0.004639,0.007202,1.003433
105,-1.281758,-0.488289,-0.183108,0.010010,-0.005615,1.026627
106,0.671397,0.183108,-0.366217,-0.008057,0.001221,1.003922
107,-0.427253,-0.427253,-0.244144,0.006104,-0.004761,1.005020
108,1.647974,0.183108,-0.244144,-0.008301,0.005859,0.980972
109,0.061036,-0.244144,-0.122072,-0.003418,0.001953,0.981582
110,0.610361,-0.244144,-0.122072,0.002441,0.005737,1.004410
111,-0.244144,-0.244144,0.183108,-0.010010,-0.003052,1.002090
112,0.732433,-0.427253,0.183108,0.009400,0.009277,0.991958
113,-1.586938,-0.488289,0.305180,-0.020874,-0.010864,1.014420
114,0.854505,-0.915541,0.244144,0.014893,0.003906,1.009903
115,0.488289,-0.366217,0.305180,-0.011475,-0.006226,1.011490
116,2.807660,-0.793469,0.366217,0.018921,-0.000122,1.017105
117,3.173877,-0.305180,0.244144,-0.015869,-0.001831,1.000137
118,3.845274,-0.732433,0.183108,0.005493,0.009277,1.002945
119,3.418021,-0.671397,0.183108,-0.002564,0.006104,0.997940
120,3.173877,-0.732433,0.122072,0.017334,0.008179,1.025650
121,4.638743,-0.671397,0.061036,-0.002197,0.023560,0.978408
122,0.671397,-1.220722,0.244144,0.002564,0.011719,0.973159
123,1.281758,-0.793469,0.244144,0.001465,0.004273,1.002579
124,1.709010,-0.793469,0.244144,0.005005,0.006714,0.997452
125,1.831083,-0.610361,0.305180,0.005005,0.009766,1.000992
126,1.647974,-0.671397,0.488289,0.007202,0.012573,0.999405
127,1.831083,-0.488289,0.366217,-0.000855,0.014649,1.000504
128,1.709010,-0.305180,0.305180,-0.002930,0.015015,0.981949
129,0.610361,-0.427253,0.305180,-0.003052,0.015503,0.993423
130,0.366217,-0.671397,0.366217,-0.000244,0.018677,0.980484
131,-0.854505,-0.854505,0.244144,0.003662,0.018311,0.987686
132,-1.281758,-1.037613,0.183108,0.006104,0.010620,1.000870
133,0.061036,-0.732433,0.244144,0.000610,0.015625,1.000381
134,0.000000,-0.732433,0.244144,0.004639,0.009522,0.998062
135,0.671397,-0.549325,0.366217,0.000366,0.011719,0.991470
136,0.122072,-0.671397,0.305180,0.006348,0.013306,0.994278
137,0.427253,-0.427253,0.305180,0.005615,0.020386,0.994034
138,0.000000,-0.549325,0.305180,0.008789,0.016968,0.985611
139,-0.244144,-0.183108,0.244144,-0.004273,0.012451,0.991348
140,0.427253,-0.183108,0.244144,0.012451,0.017578,1.005264
141,-0.061036,0.122072,0.549325,0.009766,0.010376,1.001968
142,0.366217,0.183108,0.549325,0.006958,0.011353,0.995132
143,0.061036,0.671397,0.671397,0.002808,0.001221,1.008194
144,1.770047,0.854505,0.671397,0.005127,0.008545,1.003677
145,1.831083,1.220722,0.854505,0.010132,0.012085,1.000504
146,2.014191,1.647974,0.793469,-0.004028,0.015259,0.990005
147,1.525902,1.220722,0.549325,0.002808,0.019654,0.977066
148,1.098650,0.671397,0.305180,-0.005005,0.036622,0.971695
149,-0.732433,-0.244144,0.122072,-0.009522,0.041016,0.955459
150,-3.845274,-1.037613,-0.122072,-0.000610,0.027710,0.977432
151,-3.356985,-1.403830,-0.244144,-0.001221,0.022095,0.982803
152,-4.760815,-1.586938,-0.183108,0.016236,0.007813,1.010391
153,-3.479057,-0.488289,0.366217,0.004273,-0.015259,1.046525
154,1.342794,0.488289,0.549325,0.015869,-0.004028,1.038224
155,3.234913,1.647974,0.793469,0.021118,0.000000,1.017838
156,5.493248,2.075227,0.793469,0.003662,0.018921,0.985000
157,5.920500,1.831083,0.549325,0.003906,0.039307,0.970596
158,4.150454,1.342794,0.183108,-0.008789,0.034302,0.965225
159,2.685588,0.854505,0.000000,0.007324,0.037842,0.984024
160,0.732433,1.220722,0.000000,-0.006592,0.029908,0.979385
161,-0.366217,0.671397,0.122072,0.002564,0.040894,0.968887
162,-3.723201,0.000000,0.000000,-0.007691,0.029908,0.991836
163,-2.868696,-0.488289,0.000000,-0.017090,0.020142,0.999161
164,-3.967346,-0.793469,0.305180,0.006104,0.014160,1.005753
165,-2.624552,-0.671397,0.488289,-0.007935,0.013428,0.990982
166,-2.014191,-0.671397,0.488289,-0.003784,0.013550,1.011124
167,-1.037613,-0.610361,0.671397,0.010376,0.013428,1.001968
168,-0.183108,-0.854505,0.488289,-0.009400,0.038453,0.964736
169,-3.967346,-1.831083,0.305180,-0.005127,0.035401,0.968399
170,-5.737392,-2.380407,0.183108,0.007813,0.020630,0.985855
171,-5.920500,-2.441444,0.122072,0.011963,0.020752,1.000504
172,-6.042573,-1.647974,0.366217,0.014649,0.013184,0.983047
173,-6.591897,-1.464866,0.549325,0.004517,0.019532,0.986099
174,-7.690547,-1.403830,1.037613,0.004395,0.006958,1.007218
175,-6.652934,-1.159686,1.220722,0.012329,0.011841,1.016617
176,-6.652934,-0.976577,1.403830,0.008301,0.004883,1.010636
177,-5.249104,-0.488289,1.159686,0.006104,0.010376,0.998672
178,-5.493248,-0.610361,1.220722,-0.001343,0.013794,0.989395
179,-6.347753,-1.281758,1.037613,-0.004273,0.012940,0.975967
180,-6.775006,-2.075227,0.793469,-0.008789,0.027955,0.964981
181,-9.765774,-3.418021,0.671397,-0.005982,0.014282,0.981582
182,-10.254063,-4.211490,0.549325,0.005005,0.000122,1.003799
183,-9.216449,-4.211490,0.366217,0.013550,-0.002930,0.998917
184,-8.911269,-4.211490,0.427253,0.015015,0.006958,1.008316
185,-8.484016,-3.784237,0.061036,0.014405,0.002808,0.996475
186,-9.155413,-3.906310,0.183108,0.014160,0.004028,0.975479
187,-9.460594,-4.394598,0.549325,0.001343,0.023560,0.958267
188,-14.770733,-5.432212,0.854505,0.005615,0.004761,0.978042
189,-15.747311,-6.164645,1.220722,0.009522,-0.003540,0.980362
190,-16.235599,-7.080186,1.220722,0.012085,-0.003174,0.973037
191,-17.517357,-7.507439,1.464866,0.013794,-0.000244,0.971206
192,-19.958801,-7.751583,1.464866,0.015625,-0.015991,1.001236
193,-19.226368,-7.141222,1.342794,0.033448,-0.023926,1.013321
194,-17.639429,-6.042573,1.403830,0.012573,-0.011475,1.004166
195,-18.860151,-5.676356,1.525902,0.022461,-0.024414,1.004898
196,-18.860151,-5.493248,1.525902,0.020020,-0.009888,0.979019
197,-24.231327,-5.004959,1.892119,0.020508,-0.013672,0.992813
198,-24.597543,-4.760815,2.014191,0.007691,-0.034302,0.968765
199,-26.550698,-5.554284,1.831083,0.013428,-0.028931,1.012345
200,-27.405203,-5.981537,2.014191,0.023438,-0.039673,0.978775
201,-28.931106,-5.432212,2.502480,0.033570,-0.052857,1.012589
202,-28.870069,-4.150454,3.479057,0.031617,-0.078004,1.039567
203,-24.902724,-3.112840,5.249104,0.032105,-0.039673,1.033951
204,-22.156100,-0.549325,6.042573,0.054200,-0.039918,0.951675
205,-26.306554,0.610361,7.141222,0.076783,0.015625,1.049088
206,-27.771420,4.089418,7.141222,0.007813,-0.016236,1.005997
207,-32.715343,2.624552,5.798428,0.024414,-0.046143,0.982437
208,-31.128405,2.868696,4.394598,0.020752,-0.029297,0.970596
209,-38.513771,3.295949,3.234913,0.031495,-0.071046,0.999527
210,-36.804761,3.479057,2.380407,0.011475,-0.065431,0.981216
211,-37.415122,2.746624,1.770047,0.008301,-0.035401,1.017838
212,-43.457694,4.638743,-0.366217,0.036378,-0.046876,0.917250
213,-49.927520,4.882887,1.586938,-0.014038,-0.030640,0.948379
214,-56.336309,4.211490,-0.793469,0.023804,-0.085939,0.994156
215,-61.707485,5.615320,-2.380407,0.007935,-0.130861,1.048844
216,-60.791943,4.516670,-4.089418,0.018799,-0.195071,0.997940
217,-55.481804,5.432212,-3.784237,0.050172,-0.170413,1.066178
218,-47.119860,4.211490,-3.295949,0.082521,-0.201297,1.049699
219,-38.086519,7.629511,-1.342794,0.009033,-0.061402,0.981338
220,-47.669184,7.751583,-3.601129,0.012818,-0.041871,0.949722
221,-61.158160,11.352712,-6.042573,0.057252,-0.027100,0.872206
222,-70.435645,12.024109,-1.342794,-0.012451,0.039673,0.820813
223,-98.023957,7.751583,-2.563516,0.021607,0.146365,0.868544
224,-168.642710,18.616007,-2.441444,0.128786,0.135988,0.968032
225,-182.558938,12.329290,-10.315099,-0.061524,0.663706,0.999527
226,-400.091554,36.804761,2.075227,0.328496,0.277958,1.349264
227,-508.796826,68.909743,32.104982,0.215824,0.096071,1.708278
228,-506.782635,84.718090,-14.892805,0.425666,-0.120363,1.952667
229,-576.974136,131.898985,1.037613,0.185794,0.185183,1.269306
230,-614.084077,169.253071,16.906996,-0.255253,-1.272114,1.999969
231,-621.835660,172.365911,113.221942,-2.000031,0.659678,1.999969
232,-36.499580,19.592584,-45.593957,-0.880629,-0.668833,1.999969
233,165.590906,12.756542,-31.311513,-0.694713,1.030900,1.722072
234,-21.728847,-47.974365,18.554971,-0.223026,0.717418,1.401389
235,-49.195087,-55.237659,42.603189,0.298589,0.364508,1.028336
236,70.557717,-56.092164,3.112840,0.533700,0.635874,0.611093
237,37.476158,-51.087205,-33.875029,0.598032,0.637095,0.542855
238,5.188067,-21.179522,-50.232700,0.388678,0.491218,0.775891
239,42.542153,-8.667124,-76.050965,0.106935,0.425788,0.906996
240,55.298695,-7.751583,-83.924620,-0.173587,0.457038,0.953994
241,64.698253,-19.592584,-78.736553,-0.377935,0.353033,1.164813
242,98.512245,-32.654307,-68.116274,-0.492561,0.335088,1.286030
243,125.062943,-38.757916,-53.711757,-0.525277,0.312627,1.234028
244,146.364538,-36.316472,-39.307240,-0.528206,0.243290,1.117082
245,163.637751,-27.161059,-26.184482,-0.518196,0.183841,0.979995
246,172.671092,-15.442130,-13.794156,-0.489998,0.135866,0.926772
247,180.788891,-4.760815,-2.807660,-0.431159,0.104250,0.910048
248,189.700160,3.112840,6.469825,-0.365118,0.087648,0.963760
249,195.254444,7.385367,14.404517,-0.249393,0.089723,1.070329
250,206.485084,9.155413,18.432898,-0.108400,0.092287,1.109392
251,216.128786,10.070954,17.212177,0.046265,0.107179,1.144549
252,221.805142,15.320058,11.841001,0.145754,0.079591,1.192157
253,227.603571,23.865110,4.272526,0.159915,0.021729,1.179828
254,230.411231,30.640116,-2.136263,0.134157,-0.053223,1.135637
255,228.763256,34.363317,-5.432212,0.063600,-0.116213,1.167376
256,225.345235,37.048905,-6.591897,0.045655,-0.194095,1.157122
257,221.316854,40.711070,-6.897078,0.063355,-0.229129,1.138201
258,213.199054,40.833143,-6.713970,0.098878,-0.198611,1.199725
259,203.982605,35.339895,-8.178836,0.145022,-0.114137,1.480369
260,199.893187,29.724575,-12.756542,0.209232,-0.093385,1.929229
261,211.184863,29.907683,-19.958801,0.230594,-0.120485,1.999969
262,229.068437,32.349126,-32.776379,0.259037,-0.269047,1.999969
263,239.078355,34.912642,-41.748684,0.171511,-0.341680,1.888090
264,238.040742,33.691920,-46.326390,-0.015991,-0.423835,1.919463
265,242.984665,29.663539,-43.762875,-0.150881,-0.472297,1.999969
266,254.093233,26.916915,-37.537194,-0.212772,-0.530282,1.921782
267,258.487831,26.794842,-29.541466,-0.156985,-0.556649,1.698268
268,250.858320,30.334936,-22.766461,-0.080323,-0.578500,1.541772
269,239.444572,35.339895,-18.066682,-0.017334,-0.606332,1.476097
270,229.190509,39.063096,-14.892805,-0.007568,-0.635630,1.440940
271,216.128786,40.894179,-10.742351,-0.020264,-0.693736,1.323140
272,203.860533,38.818952,-5.981537,-0.003052,-0.752941,1.162005
273,185.244526,33.691920,-2.685588,0.038819,-0.788952,1.100481
274,163.332570,27.161059,-2.441444,0.112673,-0.863661,1.304341
275,149.965667,23.865110,-7.507439,0.224125,-1.027970,1.344137
276,142.214084,25.513085,-20.019837,0.399664,-1.261616,1.191058
277,127.260243,35.706111,-37.537194,0.531868,-1.518456,0.954849
278,105.897612,51.697566,-54.322118,0.513802,-1.790921,0.639780
279,81.727321,60.608835,-60.425727,0.295903,-1.949126,0.283696
280,50.171664,52.246891,-50.659953,0.005493,-1.887480,0.020508
281,11.047532,18.554971,-28.992142,-0.236820,-1.853666,-0.229496
282,-91.737240,-72.510872,-4.455634,-0.081910,-2.000031,-1.518090
283,-199.832151,-163.698787,17.395285,0.364141,-2.000031,-0.373053
284,-262.516213,-159.121080,15.075914,0.562997,-2.000031,0.233890
285,-156.069276,-96.620127,6.225681,-0.034058,-0.274784,1.999969
286,-135.500114,-67.078660,4.089418,-0.376959,0.842664,1.999969
287,-187.502861,-57.495995,16.540780,-0.462531,0.526864,1.209369
288,-237.369345,-75.379568,26.489662,-0.119997,-0.230472,0.303716
289,-256.290532,-55.359731,36.560616,0.015259,-0.226200,1.614649
290,-265.140764,-38.757916,46.143282,0.253544,-0.099367,1.999969
291,-186.465248,-30.884260,32.532235,0.289067,-0.360723,1.999969
292,-85.084306,-4.333562,20.202945,-0.017823,-0.053223,1.145403
293,-121.217670,11.108568,28.503853,-0.190799,0.099489,0.636851
294,-178.042268,-24.658579,46.326390,-0.230594,-0.089479,1.987579
295,-116.517891,-45.227741,38.574807,-0.066529,-0.375982,1.786526
296,-30.151827,-69.642176,26.428626,0.461677,0.226200,1.999969
297,-52.124819,-45.410849,9.704738,0.764294,-0.029053,1.638575
298,-12.695506,-6.530861,8.056764,-0.148928,0.146487,0.929824
299,-55.359731,-23.865110,10.620279,-0.250492,0.203616,0.998062
300,-58.533608,-34.607462,3.540093,0.276982,-0.010986,1.277363
301,-36.133364,-12.207218,-1.770047,0.117189,0.066041,1.125505
302,-52.368963,-8.422980,1.342794,-0.177005,0.013794,1.037369
303,-41.992828,-17.090105,-0.244144,0.000488,-0.033448,1.181659
304,-27.527276,-11.779965,-1.953155,0.092531,0.045533,1.124651
305,-34.851606,-5.798428,0.061036,0.002441,-0.010986,1.076432
306,-26.123445,-3.845274,0.000000,0.067506,-0.020386,1.129900
307,-20.935378,2.685588,0.793469,0.062379,0.014038,1.059709
308,-20.019837,6.286717,1.709010,-0.005005,0.008301,1.036759
309,-17.761501,6.225681,2.197299,0.007324,0.004639,1.028580
310,-15.136950,7.507439,2.563516,-0.058961,0.055665,1.108904
311,-14.038300,5.371176,3.784237,0.068238,0.020752,0.847669
312,-14.526589,6.408789,2.014191,-0.044434,-0.035645,0.995865
313,-11.108568,4.882887,1.892119,-0.033082,0.007568,1.033707
314,-10.925460,3.479057,1.525902,-0.030396,0.003906,1.004654
315,-9.704738,1.525902,0.915541,-0.020264,-0.016846,1.006851
316,-7.019150,0.488289,0.671397,-0.021363,-0.008545,1.021012
317,-4.943923,0.183108,0.549325,-0.019654,-0.016358,1.025162
318,-2.441444,-0.366217,0.549325,-0.019287,-0.007080,1.007462
319,-1.342794,-0.854505,0.671397,-0.018311,0.003662,0.973648
320,-2.746624,-1.464866,0.427253,-0.037110,0.023560,0.973770
321,-5.920500,0.000000,-2.319371,0.067994,-0.221683,0.616709
322,-3.173877,-2.258335,0.915541,-0.058228,0.099733,1.056046
323,-10.254063,-3.967346,1.159686,-0.020142,0.002319,0.987808
324,-6.469825,-4.394598,0.671397,-0.012940,-0.000122,0.962173
325,-9.094377,-4.089418,1.342794,-0.019287,0.000610,0.991226
326,-9.582666,-4.577707,0.976577,-0.019776,-0.001099,0.999283
327,-9.277485,-4.699779,0.671397,-0.006958,-0.013550,1.019425
328,-8.667124,-3.784237,0.549325,-0.006714,-0.024659,1.029801
329,-6.530861,-2.868696,0.671397,0.004028,-0.022339,1.024308
330,-6.164645,-1.159686,0.427253,-0.113039,0.152590,1.393088
331,-5.310140,-0.061036,0.732433,-0.033448,-0.010986,1.156023
332,-7.141222,-1.586938,0.732433,-0.004273,-0.039307,0.910780
333,-7.324331,-1.464866,1.342794,0.011353,-0.019898,0.970474
334,-7.812619,-1.586938,1.831083,-0.036866,0.009766,0.965591
335,-11.718929,-4.028382,1.586938,-0.010132,-0.005127,0.971817
336,-12.268254,-5.188067,1.647974,-0.026001,-0.015381,0.995621
337,-13.550011,-6.775006,1.586938,-0.029541,0.001221,0.965103
338,-15.747311,-8.545052,1.403830,-0.022339,-0.019165,0.975113
339,-17.212177,-9.765774,0.732433,-0.004273,0.002197,0.974990
340,-21.667811,-9.948882,0.305180,-0.014649,-0.002564,0.935439
341,-28.015564,-10.376135,0.244144,0.017578,0.002319,0.964614
342,-34.058137,-8.789197,1.098650,0.028809,-0.009277,0.995010
343,-37.537194,-7.202258,1.525902,-0.003540,-0.006348,0.993179
344,-41.443503,-7.080186,1.403830,0.039796,0.002564,0.955703
345,-47.730220,-4.089418,2.563516,0.020630,-0.037964,1.020890
346,-47.852293,-2.197299,3.479057,0.005493,-0.106203,1.035294
347,-39.551385,-0.854505,6.103609,-0.006470,-0.054322,0.972671
348,-46.204318,1.586938,7.934691,0.034913,-0.128664,1.001724
349,-41.809720,3.295949,10.742351,0.007446,-0.110597,1.000626
350,-36.926833,3.173877,9.155413,0.011841,-0.077394,1.076432
351,-38.330663,4.089418,7.507439,-0.060548,-0.068971,0.944594
352,-42.603189,0.244144,4.699779,-0.031006,-0.033936,0.992569
353,-48.706798,-0.427253,0.488289,-0.062013,-0.066041,1.037980
354,-57.740139,-3.234913,-3.051804,-0.050172,-0.087404,0.974136
355,-71.839475,-4.821851,-7.934691,-0.011597,-0.103273,0.945815
356,-74.464027,-6.897078,-10.803388,-0.012696,-0.214237,1.063859
357,-69.092851,-2.624552,-6.530861,0.067262,-0.294926,1.109392
358,-44.495308,-4.699779,-2.319371,0.029541,-0.213260,1.010513
359,-31.921874,-6.408789,-7.446403,-0.007813,-0.157473,1.010025
360,-42.236973,-5.615320,-9.704738,0.024903,-0.134279,1.013687
361,-48.218509,-3.418021,-13.305867,0.076417,-0.079591,0.897353
362,-49.805447,2.258335,-11.902037,-0.036622,0.276371,0.887709
363,-93.018997,1.953155,-20.508125,-0.007446,0.336553,0.752453
364,-138.124666,-5.981537,-28.686961,0.157595,0.159304,0.689708
365,-182.070649,-10.437171,-11.596857,-0.099001,1.033097,1.251850
366,-391.180285,-20.325017,-27.038987,-0.067384,0.931533,1.614771
367,-603.219654,-2.502480,-14.953841,-0.405646,0.113527,1.549828
368,-686.350805,-31.433585,-9.643702,-0.258183,0.186282,1.382712
369,-771.618219,-42.175937,-14.221408,0.165408,0.017578,1.275044
370,-890.333410,-53.223468,3.784237,-0.180667,-0.339239,0.701793
371,-1025.650416,-19.958801,133.119707,-0.714000,-2.000031,1.999969
372,-264.103151,-25.268940,62.867170,-1.811795,-0.984512,1.999969
373,308.049134,-19.897765,-30.395972,-1.044327,1.026383,1.999969
374,187.380789,-44.678416,-5.004959,-0.932387,1.503929,1.999969
375,-2.563516,-66.224155,54.810407,-0.474250,0.578378,1.046403
376,50.049592,-46.509499,81.910430,-0.215824,0.199344,0.351080
377,136.171511,-49.256123,58.533608,-0.006958,0.549813,-0.077028
378,66.956588,-47.364004,41.565576,0.240848,0.425055,0.249638
379,36.743725,-13.855192,40.650034,0.266728,0.429816,0.653819
380,83.070115,2.685588,12.878614,0.217899,0.464973,0.928481
381,101.075761,8.728161,-3.967346,0.092287,0.555184,0.974624
382,110.231174,-0.793469,-12.817578,-0.033082,0.438117,1.119402
383,148.561837,-14.038300,-18.249790,-0.106813,0.407355,1.197284
384,174.563211,-23.132677,-21.362631,-0.155764,0.402716,1.328756
385,194.399939,-21.606775,-23.437858,-0.176638,0.309575,1.430930
386,225.406271,-11.291676,-27.038987,-0.175662,0.210208,1.481346
387,250.553140,5.920500,-28.870069,-0.208011,0.092042,1.311666
388,267.277028,19.409476,-27.527276,-0.236088,-0.040162,1.100847
389,277.836271,23.132677,-22.278172,-0.228397,-0.127199,0.871351
390,280.338750,18.310826,-16.418708,-0.168948,-0.155520,0.831312
391,278.141451,9.826810,-11.474784,-0.087892,-0.125490,0.922622
392,278.995956,8.178836,-13.183795,0.037720,-0.149783,1.053361
393,276.188296,21.911955,-21.057450,0.147219,-0.237186,1.004532
394,266.178378,46.387427,-32.104982,0.192020,-0.366094,0.961196
395,252.628367,69.153887,-39.490349,0.142580,-0.407843,1.010880
396,238.406958,76.905470,-43.335622,0.065919,-0.382818,1.156268
397,229.373617,72.999161,-43.335622,-0.075563,-0.343389,1.492454
398,223.270008,73.670558,-36.499580,-0.248051,-0.380255,1.896025
399,223.270008,84.596017,-22.949569,-0.351324,-0.492561,1.999969
400,233.829252,94.239719,-7.263294,-0.383307,-0.637827,1.999969
401,246.219577,100.221256,8.178836,-0.336065,-0.742321,1.999969
402,243.778134,100.526436,24.597543,-0.257939,-0.764294,1.999969
403,241.092546,93.385214,39.002060,-0.129274,-0.834485,1.999969
404,255.924315,88.746471,43.335622,0.105959,-0.888075,1.970611
405,256.839857,90.577554,43.213550,0.186526,-0.797742,1.963531
406,247.135119,87.220569,40.466926,0.237064,-0.813489,1.970977
407,254.825666,82.398718,34.241245,0.240970,-0.824109,1.875517
408,254.398413,73.365377,27.893492,0.232425,-0.807874,1.772732
409,246.036469,62.500954,20.996414,0.213382,-0.863905,1.708766
410,244.022278,53.589685,12.634470,0.212772,-0.922011,1.609277
411,237.125200,48.401617,3.601129,0.199954,-0.999893,1.479881
412,222.964828,42.847333,-5.859464,0.199222,-1.128923,1.367453
413,207.766842,38.818952,-15.991455,0.210697,-1.329488,1.351095
414,187.441825,36.926833,-27.466239,0.369268,-1.624048,1.300191
415,167.605097,48.645762,-44.373236,0.525399,-2.000031,1.034806
416,143.495842,74.464027,-61.585412,0.532357,-2.000031,0.485115
417,115.785458,90.699626,-66.895552,0.341680,-2.000031,-0.290532
418,72.388800,65.674830,-54.993515,0.155764,-2.000031,-0.876722
419,0.610361,-3.906310,-33.447776,0.021607,-2.000031,-0.771130
420,-57.495995,-73.182269,-12.695506,-0.038331,-1.786404,-0.032959
421,-140.871290,-146.791791,-6.836042,-0.243412,-2.000031,-2.000031
422,-232.913710,-232.791638,25.696193,0.170535,-0.655283,0.518807
423,-166.994736,-239.688716,4.394598,-0.044068,0.061646,1.999969
424,-135.317006,-135.622187,30.823224,-1.012833,1.352926,1.999969
425,-251.102464,-116.823072,43.030442,-1.499901,0.163577,0.996475
426,-286.381323,-131.593805,83.985657,-0.449104,-0.537728,-0.428962
427,-288.822766,-131.715877,88.746471,0.688365,-0.398932,0.846815
428,-340.154116,-85.450523,99.855039,1.540551,0.022827,1.999969
429,-285.893034,-63.050278,59.510185,1.999969,-0.329107,1.999969
430,-123.414969,-6.775006,-5.188067,1.245136,-0.077272,1.999969
431,-139.284352,22.705425,-6.591897,-0.641733,0.050294,1.999969
432,-184.878309,-8.606088,33.752956,-1.426658,-0.733288,1.999969
433,-61.158160,-78.004120,22.156100,-0.157595,-0.306157,1.744656
434,-46.814679,-81.666285,0.915541,1.410422,0.086915,1.868681
435,-55.664912,-7.690547,9.155413,0.295903,0.030396,1.268940
436,-59.327077,-10.803388,11.718929,-0.753429,-0.051392,1.141497
437,-33.386740,-51.819638,3.234913,0.269535,0.015991,1.300923
438,-20.263981,-32.227054,-2.929732,0.367437,0.088136,1.258442
439,-37.232013,-12.085145,1.770047,-0.152468,-0.082155,1.065080
440,-15.075914,-20.019837,-0.549325,0.047608,-0.039185,1.046525
441,-15.381094,-18.371862,-0.244144,0.081666,0.063966,1.008560
442,-27.405203,-12.817578,2.014191,0.046387,-0.026612,1.159930
443,-12.817578,-8.545052,3.356985,0.084596,-0.036378,1.077653
444,-6.469825,-0.061036,4.577707,0.090333,0.054810,1.038468
445,-14.221408,4.028382,6.225681,0.029908,0.000122,1.029068
446,-6.042573,5.004959,5.065995,0.046509,0.030518,0.978653
447,-12.634470,7.202258,5.371176,0.038453,0.028321,0.998062
448,-10.986496,7.446403,4.882887,0.005859,0.016968,0.961685
449,-12.634470,5.859464,4.028382,-0.000732,0.043458,0.941787
450,-18.677043,3.601129,3.418021,-0.016480,0.024048,0.940810
451,-22.522316,1.586938,2.319371,-0.014649,0.018555,0.960098
452,-26.062409,-0.061036,2.014191,-0.004517,-0.009522,1.026505
453,-25.513085,2.624552,-0.183108,0.128420,-0.241093,0.803235
454,-15.259022,1.831083,1.464866,-0.014527,0.000122,1.178485
455,-19.714656,0.610361,2.319371,-0.001587,-0.014405,0.944839
456,-20.569162,-0.061036,2.136263,0.025757,-0.013428,0.991226
457,-19.958801,0.000000,1.770047,0.008057,0.008911,0.990005
458,-24.292363,-0.549325,1.403830,0.020752,-0.025635,0.986099
459,-25.207904,-0.183108,1.159686,0.018189,-0.029786,1.006607
460,-25.574121,0.915541,0.366217,0.009277,-0.015503,0.963149
461,-30.762188,1.281758,-0.122072,0.018311,-0.029541,0.993545
462,-32.532235,2.441444,-0.610361,0.024903,-0.044190,1.013443
463,-32.593271,4.089418,-0.854505,0.033204,-0.028321,1.008560
464,-34.912642,5.615320,-1.953155,-0.017823,-0.089601,1.032853
465,-34.302281,4.638743,-1.464866,-0.009155,-0.065187,1.187030
466,-32.349126,5.737392,0.305180,-0.009766,-0.091310,1.091447
467,-25.757229,6.164645,0.915541,0.013306,-0.116579,1.034806
468,-20.935378,6.408789,1.525902,0.010742,-0.110475,1.019303
469,-18.432898,5.615320,2.075227,-0.005493,-0.099977,0.988418
470,-17.761501,4.211490,2.319371,0.012818,-0.070558,0.997086
471,-20.019837,3.967346,2.075227,-0.015137,-0.077638,0.977310
472,-19.653620,3.295949,1.709010,0.001831,-0.084596,1.003311
473,-20.996414,3.418021,1.647974,0.008667,-0.083375,0.993668
474,-20.141909,3.540093,1.098650,0.009155,-0.077150,0.978164
475,-24.414435,2.868696,1.342794,-0.019165,-0.061402,0.963027
476,-28.686961,1.709010,1.159686,-0.023194,-0.086549,0.972305
477,-34.302281,0.427253,2.380407,-0.011719,-0.113283,1.015274
478,-32.410163,1.342794,2.807660,-0.007935,-0.145266,0.984756
479,-27.588312,1.831083,3.234913,-0.005737,-0.093263,0.979019
480,-33.508812,1.525902,3.662165,-0.021851,-0.106569,0.976699
481,-35.645075,0.244144,3.234913,-0.026368,-0.108034,0.954604
482,-37.598230,-2.380407,2.014191,-0.016968,-0.112551,0.966445
483,-45.349813,-2.929732,2.990768,-0.019532,-0.130373,0.988785
484,-49.195087,-1.586938,4.577707,0.000488,-0.188602,1.078874
485,-39.917601,1.281758,4.882887,-0.017334,-0.200320,1.031388
486,-33.142596,4.394598,1.342794,-0.050538,-0.198367,1.171893
487,-33.997101,-0.366217,3.601129,-0.056764,-0.202029,0.962051
488,-32.593271,-1.220722,-2.258335,-0.061280,-0.133913,1.006241
489,-32.532235,-6.958114,-11.963073,-0.015747,-0.180911,0.977920
490,-26.001373,-11.108568,-14.587625,-0.004517,-0.288457,1.099748
491,-20.019837,-10.803388,-12.024109,0.016480,-0.204471,1.030289
492,-21.911955,-9.399557,-10.559243,0.078004,-0.254398,1.087053
493,-11.291676,-5.676356,-2.136263,0.041627,-0.253300,1.041886
494,-9.521630,-4.394598,-1.037613,0.014771,-0.146609,1.029557
495,-19.287404,-1.098650,-7.324331,0.071046,-0.191531,1.003677
496,-15.503166,4.089418,1.403830,0.081666,-0.073854,0.980606
497,-22.278172,7.446403,-0.122072,-0.113161,0.092287,0.904433
498,-55.786984,2.807660,-13.733120,-0.003418,0.194949,0.849012
499,-90.638590,-6.469825,-23.620966,-0.122683,0.427741,0.778576
500,-155.764096,-7.385367,-36.621653,-0.034668,0.055909,0.666636
501,-328.984512,-23.071641,-19.104295,0.036378,1.267353,1.218402
502,-575.326162,0.854505,-17.151141,0.121218,0.226444,1.164202
503,-707.225147,-16.479744,9.033341,-0.110231,0.291752,1.453635
504,-787.792783,-54.139010,-4.760815,0.118776,-0.228397,1.507469
505,-901.991302,-67.872129,12.878614,-0.312383,-0.195071,0.654185
506,-983.962768,-77.515831,49.195087,0.119753,-2.000031,1.999969
507,-753.856718,-19.714656,141.237507,-1.054826,-2.000031,1.999969
508,241.886015,-18.493935,-80.872816,-0.346929,0.356085,1.999969
509,353.521019,-9.094377,-95.887694,-0.526986,1.373434,1.999969
510,83.436332,-50.904097,-21.667811,-0.536995,1.130632,1.722316
511,-19.348440,-45.716030,20.202945,-0.387701,0.243290,0.898451
512,150.514992,-32.593271,13.672084,-0.240848,0.226200,0.670665
513,182.619974,-26.367590,2.136263,-0.178958,0.518441,0.039429
514,86.121920,-19.714656,7.934691,-0.045899,0.354498,0.372198
515,88.380255,-4.150454,8.728161,-0.103639,0.242924,0.772229
516,148.439765,-5.798428,0.488289,-0.138674,0.363043,0.905531
517,153.871977,-15.747311,0.427253,-0.202029,0.411017,0.956435
518,166.079194,-26.367590,1.098650,-0.197391,0.279179,1.042374
519,203.860533,-28.381781,-1.586938,-0.198611,0.263432,0.978531
520,216.739147,-21.789883,-4.760815,-0.212528,0.241215,0.908461
521,218.692302,-10.803388,-6.103609,-0.284306,0.135988,1.041276
522,234.317540,-1.525902,-5.127031,-0.358526,0.053101,1.144427
523,251.163500,3.906310,-1.281758,-0.395758,0.005982,1.306172
524,262.882429,10.070954,4.577707,-0.386236,-0.068360,1.486839
525,283.939879,21.423667,9.948882,-0.375738,-0.172488,1.509667
526,302.861067,34.058137,14.770733,-0.311894,-0.278447,1.423972
527,311.772335,45.349813,19.348440,-0.218631,-0.379644,1.156634
528,311.833371,50.965133,21.362631,-0.088746,-0.463996,0.839368
529,294.193942,55.237659,21.057450,0.071168,-0.525765,0.709850
530,270.328832,56.153201,17.578393,0.187869,-0.547250,0.792493
531,254.764630,51.636530,9.582666,0.284916,-0.423835,0.966934
532,236.881056,50.415808,-6.225681,0.366094,-0.303349,1.349020
533,218.631266,56.214237,-20.202945,0.329229,-0.252079,1.988556
534,212.161440,58.472572,-29.114214,0.266484,-0.331670,1.999969
535,237.613489,54.749371,-40.161746,0.280888,-0.529793,1.999969
536,277.409018,50.110628,-55.420768,0.197391,-0.683726,1.866850
537,264.408331,53.040360,-60.791943,0.034180,-0.719738,1.654200
538,229.312581,57.190814,-59.082933,-0.121096,-0.776379,1.999969
539,232.913710,59.143969,-52.429999,-0.234379,-0.809094,1.999969
540,263.309682,60.914015,-45.349813,-0.204715,-0.852430,1.999969
541,287.785153,64.637217,-38.147555,-0.089113,-0.884047,1.936309
542,279.240101,70.374609,-32.959487,0.045777,-0.883070,1.522118
543,257.084001,74.647135,-31.189441,0.143313,-0.879652,1.456809
544,240.482185,73.121233,-32.471199,0.203372,-0.877333,1.600366
545,234.012360,68.787671,-35.339895,0.229374,-0.912245,1.661280
546,229.373617,68.909743,-38.452735,0.211063,-1.010758,1.556420
547,215.579461,73.365377,-39.429313,0.152224,-1.208026,1.278828
548,192.202640,77.759976,-37.476158,0.147219,-1.484886,0.999039
549,157.106889,81.910430,-34.668498,0.267582,-1.882719,0.838758
550,116.823072,89.662013,-31.067369,0.410285,-2.000031,0.660777
551,90.577554,95.338369,-28.625925,0.480720,-2.000031,0.316411
552,77.210651,83.619440,-24.719615,0.468269,-2.000031,-0.205325
553,34.546426,38.452735,-14.221408,0.456672,-1.886503,-0.496834
554,-26.001373,-28.992142,0.000000,0.471687,-1.439719,-0.079225
555,-66.346227,-78.187228,7.812619,0.379400,-1.138933,0.716808
556,-68.787671,-92.530709,9.155413,0.130129,-0.902846,1.303853
557,-129.152361,-121.766995,16.235599,-0.625864,-1.618799,-1.575952
558,-249.027237,-213.199054,57.984283,-0.038209,-0.447883,0.456794
559,-157.473106,-166.140230,41.016251,-0.001221,-0.223270,1.999969
560,-81.788357,-36.499580,56.153201,-0.720470,1.119524,1.654078
561,-243.656062,-74.219883,76.661326,-0.446662,0.461433,-0.500008
562,-329.655909,-112.794690,92.530709,0.698985,-0.317021,-0.190433
563,-323.857481,-79.896239,82.948043,1.557519,0.011597,1.944121
564,-367.254139,-62.806134,56.153201,1.999969,-0.305669,1.999969
565,-195.742733,-18.188754,-5.127031,1.433005,-0.514290,1.999969
566,-94.605936,12.573434,-28.931106,-0.995132,-0.246830,1.999969
567,-165.590906,-15.259022,23.682002,-2.000031,-0.827161,1.708156
568,-80.079347,-104.921035,57.679103,-0.807263,-0.459724,0.896620
569,-80.018311,-135.927367,39.429313,1.999969,0.599985,1.999969
570,-52.491035,-29.297322,-1.647974,1.403220,-0.290532,1.625025
571,-10.620279,20.080873,9.399557,-1.223407,0.202762,1.089860
572,-66.102083,-55.664912,5.798428,-0.011475,-0.046143,0.978897
573,-22.583352,-41.626612,-7.751583,0.813611,0.095949,1.470237
574,-48.645762,1.281758,3.234913,-0.114626,-0.057008,1.284565
575,-24.353399,-10.620279,-0.427253,-0.047730,-0.087160,1.154803
576,-6.713970,-10.498207,-4.089418,0.231937,0.080323,1.095476
577,-22.217136,4.028382,1.037613,0.019165,-0.028809,1.084855
578,-6.408789,4.882887,0.732433,0.057374,0.034913,1.034806
579,-10.559243,10.681315,0.976577,0.128664,0.080201,0.994522
580,-18.860151,17.822538,2.563516,0.026368,0.003052,1.033097
581,-12.390326,17.334249,2.746624,0.017456,0.021851,1.058366
582,-11.291676,18.310826,3.356985,0.054200,0.021607,1.023941
583,-10.803388,19.592584,3.906310,-0.007202,0.014649,0.996231
584,-10.437171,17.578393,4.272526,-0.028321,0.041749,0.947646
585,-13.244831,14.892805,3.906310,-0.011475,0.038575,0.969375
586,-15.686275,12.695506,4.394598,-0.028077,-0.011231,1.004166
587,-10.376135,9.216449,3.662165,-0.036622,0.004761,0.971206
588,-10.070954,5.371176,3.356985,-0.027588,0.014405,0.964736
589,-10.620279,1.770047,2.990768,-0.051148,0.003784,0.963027
590,-9.887846,-2.624552,2.380407,-0.038697,0.007202,0.966079
591,-10.559243,-5.737392,1.647974,-0.011231,0.022827,0.975967
592,-11.718929,-7.080186,1.403830,-0.024537,0.006226,0.975845
593,-13.488975,-8.178836,1.403830,0.007080,0.001831,0.986954
594,-13.733120,-7.446403,1.037613,-0.047730,0.088136,1.179217
595,-13.977264,-7.629511,1.464866,-0.017334,0.009400,0.986221
596,-19.348440,-10.254063,2.197299,0.005493,-0.019165,0.918715
597,-19.165332,-10.925460,2.685588,-0.015991,-0.004761,0.980850
598,-20.752270,-12.756542,2.441444,-0.014893,-0.006104,1.013809
599,-21.728847,-11.291676,-0.305180,0.127810,-0.185061,0.652598
600,-18.982223,-12.878614,1.098650,0.015137,0.020996,1.090959
601,-22.339208,-12.878614,0.671397,0.012085,-0.023682,0.985122
602,-21.301595,-12.207218,0.244144,0.026368,-0.026978,0.994156
603,-22.095064,-10.254063,0.183108,0.045045,-0.043214,1.044572
604,-18.860151,-8.361944,-0.122072,0.023072,-0.041016,1.032609
605,-18.738079,-7.080186,-0.183108,0.030640,-0.058961,1.021744
606,-15.442130,-5.676356,0.183108,0.027832,-0.044434,1.021256
607,-15.320058,-5.127031,0.244144,0.010986,-0.025391,0.994278
608,-17.517357,-5.493248,0.183108,0.013428,-0.030762,0.989517
609,-18.554971,-6.286717,0.000000,0.012329,-0.031495,1.000992
610,-19.470512,-6.652934,-0.549325,0.029053,-0.030884,0.986099
611,-20.996414,-6.469825,-1.281758,0.011475,-0.027955,0.988540
612,-24.536507,-6.286717,-1.770047,0.041138,-0.057740,1.011124
613,-23.498894,-5.432212,-1.525902,0.014038,-0.083253,1.016129
614,-20.386053,-4.699779,-0.671397,0.032593,-0.071412,1.024430
615,-18.066682,-4.211490,0.000000,0.027955,-0.074708,1.004288
616,-18.738079,-4.455634,0.366217,0.000732,-0.050050,0.961074
617,-22.156100,-6.347753,0.366217,0.006104,-0.016236,0.937148
618,-29.724575,-7.751583,2.258335,0.031495,0.042481,0.854871
619,-45.166705,-2.807660,4.760815,0.094606,-0.010254,1.091081
620,-57.984283,2.075227,6.836042,0.020142,-0.105592,0.966934
621,-51.270314,2.624552,8.178836,0.061158,-0.088991,0.996597
622,-62.439918,7.080186,10.620279,0.045289,-0.084474,1.007462
623,-71.778439,10.131991,11.596857,-0.033204,-0.129763,1.126238
624,-67.383841,8.178836,9.277485,0.027100,-0.134157,0.918715
625,-68.055238,8.117800,6.713970,-0.016236,-0.135988,1.052262
626,-74.464027,7.995727,4.577707,-0.024170,-0.250492,1.005386
627,-54.627298,1.342794,0.488289,0.000000,-0.229862,0.984146
628,-32.410163,-5.432212,-15.686275,0.010864,-0.173709,1.026261
629,-27.283131,-10.070954,-15.197986,0.147707,-0.271366,1.057633
630,-27.954528,1.281758,1.037613,0.057252,-0.150515,1.002701
631,-52.002747,3.356985,-5.493248,0.002197,0.086305,0.937148
632,-38.025483,3.540093,-8.056764,0.105226,0.182498,0.914931
633,-74.708171,7.873655,-13.122759,0.036133,0.457771,0.728893
634,-133.424887,0.122072,-34.668498,-0.132204,0.141726,0.695567
635,-172.671092,-22.888533,-18.677043,-0.001465,0.485847,0.646250
636,-320.378424,-41.626612,-9.033341,-0.119265,0.835340,1.207904
637,-544.747082,-51.392386,-0.183108,-0.296025,0.255253,1.631617
638,-663.889525,-116.823072,33.569848,-0.262699,0.212650,1.747097
639,-728.099489,-149.721523,27.283131,0.215824,0.008301,1.106340
640,-873.060197,-150.148775,37.903410,0.182986,-0.102174,0.972305
641,-931.166552,-92.591745,115.846494,0.554086,-2.000031,1.999969
642,-546.639200,-40.955215,176.699474,-0.918227,-0.795789,1.999969
643,308.415351,7.385367,-69.642176,-0.178470,0.802258,1.999969
644,349.004349,34.546426,-83.741512,-0.235233,1.215229,1.649805
645,98.573281,-7.263294,-24.658579,-0.617929,0.914076,1.008194
646,-28.198672,-7.446403,23.926146,-0.473030,0.159670,0.168826
647,83.375296,-23.254749,22.156100,-0.262821,0.021729,0.198367
648,125.246052,-18.860151,22.705425,-0.219608,0.477790,0.072755
649,48.096437,-16.235599,24.780652,-0.028565,0.422248,0.371954
650,50.232700,-0.549325,19.592584,0.041138,0.344854,0.801648
651,108.461128,11.169604,5.127031,-0.010132,0.490974,1.022110
652,112.794690,12.939651,-0.122072,-0.185916,0.489631,1.169574
653,133.058671,7.385367,0.976577,-0.257450,0.313481,1.312520
654,180.422675,4.211490,3.112840,-0.313481,0.264530,1.244282
655,202.822919,5.615320,7.263294,-0.283452,0.213138,1.064591
656,212.222477,14.282444,10.193027,-0.268925,0.101442,0.997208
657,224.307622,26.916915,12.512398,-0.229984,0.024781,1.095232
658,233.768215,38.941024,15.442130,-0.164309,-0.026368,1.150896
659,247.318227,46.204318,17.639429,-0.070924,-0.080446,1.170184
660,259.037156,49.744411,19.653620,0.009033,-0.115480,1.105486
661,263.492790,43.579767,18.921187,0.193362,-0.147097,1.086076
662,263.981079,36.682689,9.399557,0.381109,-0.251225,1.169207
663,272.465095,39.551385,-4.638743,0.450202,-0.249149,1.210834
664,272.404059,41.931792,-21.240558,0.505257,-0.280034,1.246357
665,267.154955,44.617380,-35.950256,0.479622,-0.352056,1.300191
666,264.469368,43.457694,-46.448463,0.328008,-0.436652,1.382956
667,263.370718,38.696880,-50.659953,0.122316,-0.471565,1.540551
668,263.431754,35.889220,-47.425040,-0.066407,-0.494148,1.719509
669,265.751125,36.133364,-40.283818,-0.139162,-0.527840,1.832425
670,270.084688,42.908370,-32.471199,-0.181399,-0.543709,1.897124
671,269.840543,51.453422,-24.536507,-0.147341,-0.570077,1.924468
672,270.511940,60.730907,-17.395285,-0.064820,-0.598398,1.936187
673,271.549554,65.796902,-11.902037,0.031250,-0.614145,1.848539
674,269.535363,64.759289,-8.545052,0.153445,-0.621958,1.711818
675,264.652476,56.153201,-7.934691,0.265263,-0.616953,1.608667
676,255.863279,45.288777,-10.864424,0.348394,-0.572763,1.578149
677,245.975433,35.889220,-17.639429,0.373907,-0.545541,1.618433
678,235.172045,30.884260,-26.794842,0.333623,-0.525032,1.697414
679,226.016632,30.212863,-36.926833,0.259648,-0.555550,1.761257
680,219.058518,32.166018,-47.486076,0.169070,-0.634409,1.763210
681,207.339590,40.344854,-56.885634,0.199954,-0.797253,1.715114
682,194.583047,51.575494,-68.238346,0.224613,-1.049332,1.559472
683,181.887541,64.881361,-82.154574,0.376837,-1.346822,1.336812
684,158.022431,82.581827,-99.732967,0.606943,-1.719875,1.106096
685,119.508660,106.263828,-116.273747,0.631357,-2.000031,1.000748
686,84.840162,134.279393,-118.287938,0.381964,-2.000031,0.785534
687,78.431373,140.077821,-102.479591,0.099367,-2.000031,0.160525
688,70.618753,99.244678,-70.313573,-0.125612,-2.000031,-0.542367
689,10.376135,10.254063,-29.175250,-0.171511,-2.000031,-0.577279
690,-51.575494,-73.731594,5.920500,-0.290532,-2.000031,-0.625620
691,-166.323339,-198.733501,35.767147,-0.048585,-2.000031,-1.412009
692,-258.182651,-282.475013,56.275273,0.554452,-1.089250,0.857801
693,-121.889067,-202.456703,39.185168,0.051514,0.200809,1.999969
694,-120.790417,-75.013352,58.716716,-0.723400,1.334615,1.999969
695,-259.281300,-94.117647,83.802548,-0.286381,0.310307,0.043214
696,-272.648203,-126.588846,81.605249,0.890272,-0.493904,-0.154055
697,-263.981079,-73.426413,71.229114,1.462058,0.067750,1.338277
698,-322.331579,-61.158160,50.354772,1.696925,0.094606,1.999969
699,-236.697948,-13.733120,10.498207,1.066300,-0.595712,1.999969
700,-87.586786,11.535821,-15.625238,-0.756603,-0.266361,1.216449
701,-185.671778,-26.306554,35.523003,-2.000031,-0.426276,1.763333
702,-146.181430,-117.006180,60.547799,-0.411994,-0.409430,1.935332
703,-72.693980,-140.932326,9.399557,1.999969,0.096803,1.999969
704,-29.846647,-16.906996,0.732433,0.790051,0.044800,1.422385
705,-59.937438,4.516670,14.099336,-1.121843,0.068482,0.838880
706,-68.177310,-60.364691,6.591897,0.184695,-0.020020,1.183124
707,-40.588998,-34.790570,-10.009918,0.685679,-0.106081,1.420920
708,-47.364004,-0.244144,3.418021,-0.343511,-0.057130,1.200336
709,-20.141909,-25.329976,-0.793469,0.066285,0.000610,0.987808
710,-29.114214,-14.526589,0.305180,0.198978,0.033814,1.170550
711,-28.686961,-5.493248,2.746624,-0.022583,-0.083619,1.109636
712,-12.878614,-7.019150,1.892119,0.076051,0.011963,1.012589
713,-21.057450,-1.220722,3.356985,0.102052,0.009766,1.058000
714,-19.653620,1.647974,4.699779,0.013794,-0.009277,1.042985
715,-15.625238,1.709010,4.028382,0.062379,-0.013428,1.014176
716,-15.320058,4.638743,4.455634,0.028443,-0.007691,1.025650
717,-14.038300,4.150454,4.028382,0.044556,-0.008423,1.021500
718,-15.625238,5.554284,3.479057,0.003418,0.002564,0.987198
719,-17.212177,4.272526,3.356985,-0.002808,-0.002075,0.982803
720,-16.540780,2.807660,3.356985,0.026856,-0.032105,1.022843
721,-13.122759,2.990768,3.234913,-0.001709,-0.035767,1.000748
722,-11.535821,0.915541,2.990768,-0.008301,-0.007568,0.987076
723,-12.634470,-1.098650,2.563516,0.010010,-0.023438,1.022354
724,-10.925460,-1.709010,2.014191,0.017090,-0.036744,1.036027
725,-7.568475,-2.197299,1.342794,0.022339,-0.025269,0.990494
726,-7.568475,-2.014191,0.793469,0.019654,-0.040772,0.991470
727,-8.300908,-2.075227,0.854505,0.010498,-0.032715,1.001602
728,-7.629511,-3.356985,0.732433,-0.003174,-0.004517,0.968643
729,-10.070954,-4.577707,0.854505,0.020508,-0.014038,0.982437
730,-10.009918,-4.699779,1.037613,0.013794,-0.038331,1.014054
731,-9.216449,-4.882887,0.915541,0.025391,-0.032349,0.999161
732,-9.704738,-4.882887,0.793469,0.014771,-0.020996,0.982681
733,-11.413748,-5.981537,0.305180,0.008423,-0.014160,0.975479
734,-14.221408,-7.141222,-0.366217,0.017823,-0.021118,0.974014
735,-16.296635,-7.446403,-0.915541,0.022705,-0.033082,1.001724
736,-16.479744,-7.385367,-0.854505,0.028443,-0.035157,0.980606
737,-18.616007,-7.141222,-0.671397,0.031983,-0.024659,0.975723
738,-22.644388,-6.347753,-0.305180,0.028199,-0.037842,0.994034
739,-22.522316,-5.615320,0.000000,0.047242,-0.049073,1.003433
740,-24.231327,-4.516670,0.000000,0.044678,-0.053223,0.983658
741,-25.085832,-3.784237,0.000000,0.046143,-0.055421,1.023575
742,-23.498894,-3.051804,-0.244144,0.035645,-0.051637,0.997086
743,-24.902724,-3.540093,-0.732433,0.037476,-0.048951,0.979507
744,-27.832456,-3.295949,-0.732433,0.034058,-0.076661,0.993301
745,-28.076600,-2.441444,-0.549325,0.073365,-0.101320,1.004410
746,-28.625925,-0.671397,-0.122072,0.033570,-0.067018,0.992325
747,-29.297322,-0.366217,0.061036,0.042237,-0.070924,0.918959
748,-33.203632,-0.488289,-0.244144,0.009644,-0.044068,0.954238
749,-42.786297,0.000000,-0.427253,0.045777,-0.042481,0.991226
750,-49.561303,1.525902,-0.793469,0.042969,-0.081788,0.976822
751,-51.026169,3.356985,0.183108,0.074830,-0.077150,0.983169
752,-65.064469,7.995727,2.868696,0.019776,-0.102907,0.994522
753,-66.102083,10.009918,3.906310,0.056397,-0.157839,1.033463
754,-57.679103,9.765774,6.225681,0.013550,-0.179934,1.058488
755,-54.077974,14.587625,7.934691,0.082399,-0.259770,0.904555
756,-44.800488,13.672084,10.498207,-0.010620,-0.188235,1.006729
757,-40.039673,11.779965,11.169604,0.050294,-0.201175,1.003067
758,-38.513771,12.024109,11.291676,-0.055787,-0.165774,1.001602
759,-38.635843,8.972305,4.821851,-0.046632,-0.180056,1.017105
760,-35.339895,2.685588,-6.713970,-0.045289,-0.235843,0.996719
761,-21.606775,-3.723201,-11.535821,-0.002808,-0.241825,1.027970
762,-10.803388,-8.056764,-15.197986,0.048585,-0.211185,1.026505
763,-9.033341,-6.958114,-9.948882,0.107301,-0.251347,1.067033
764,-14.892805,0.427253,1.403830,0.055299,-0.135134,1.040665
765,-42.298009,7.873655,-7.751583,0.038575,-0.041260,1.089738
766,-33.997101,11.779965,-7.568475,0.147219,-0.127321,0.945693
767,-17.578393,15.381094,-10.864424,-0.013550,0.278202,0.872084
768,-60.914015,8.239872,-17.395285,-0.021363,0.327764,0.797131
769,-128.236820,8.545052,-27.710384,-0.038819,0.292973,0.554818
770,-167.788205,-17.212177,-20.019837,-0.234745,0.071778,0.757702
771,-352.605478,-49.500267,-2.380407,-0.212894,1.020279,1.300679
772,-580.453193,-42.725261,27.893492,-0.169680,0.340826,1.250385
773,-720.225834,-94.911116,47.791257,0.049439,-0.134157,1.556664
774,-774.792096,-114.015412,38.696880,0.213382,-0.057862,1.250629
775,-895.582513,-118.287938,41.260395,0.029541,-0.104372,0.765393
776,-989.394980,-104.066529,104.859998,0.680674,-2.000031,1.999969
777,-403.204395,-67.505913,131.532769,-1.035294,-0.251102,1.999969
778,321.355001,-40.222782,-77.943084,-0.397589,1.248554,1.999969
779,314.946212,-15.625238,-65.491722,-0.321538,1.186908,1.948150
780,106.752117,-88.441291,-41.626612,-0.564340,0.871962,1.140032
781,48.950942,-94.666972,-1.037613,-0.364385,0.221439,0.237186
782,139.284352,-93.202106,-3.479057,-0.275395,0.244388,0.079957
783,131.410697,-85.511559,-15.014878,-0.196170,0.466438,0.083742
784,75.074388,-54.444190,-16.174563,-0.115236,0.356573,0.521614
785,87.098497,-21.545739,-23.254749,-0.194461,0.341192,0.950942
786,133.302815,-6.164645,-31.494621,-0.285893,0.426398,1.233173
787,154.848554,-8.422980,-31.006332,-0.434089,0.412726,1.308736
788,178.957809,-19.409476,-26.245518,-0.463386,0.298711,1.301289
789,214.541848,-18.493935,-21.301595,-0.443610,0.229618,1.171771
790,230.167086,-5.737392,-16.906996,-0.464729,0.156008,1.003311
791,233.951324,10.498207,-11.596857,-0.481453,0.035279,0.975601
792,244.632639,26.428626,-4.577707,-0.529305,-0.043214,0.939223
793,251.407645,39.002060,5.371176,-0.519173,-0.100221,0.939345
794,252.872511,48.584726,17.090105,-0.409918,-0.136233,1.025895
795,260.196841,57.984283,25.391012,-0.184451,-0.103883,1.146258
796,267.093919,67.078660,26.550698,0.035523,-0.096193,1.228168
797,269.779507,75.562676,22.278172,0.231815,-0.173220,1.172625
798,265.262837,86.305028,11.596857,0.336919,-0.312993,1.228901
799,264.896620,96.437018,5.920500,0.429938,-0.350103,1.323018
800,262.821393,89.051652,-1.525902,0.498177,-0.363775,1.362203
801,267.948425,72.755016,-13.183795,0.624277,-0.404669,1.170550
802,261.356527,63.050278,-28.442817,0.667247,-0.407111,1.067765
803,232.913710,65.186542,-38.757916,0.592538,-0.421881,1.168475
804,204.226749,63.477531,-47.180896,0.401984,-0.405158,1.636622
805,196.597238,57.007706,-53.101396,0.256718,-0.416144,1.999969
806,208.438239,59.266041,-57.068742,0.098024,-0.579721,1.999969
807,234.256504,70.252537,-58.594644,-0.046265,-0.762707,1.999969
808,231.143664,80.872816,-50.049592,-0.191531,-0.763439,1.993439
809,218.387121,74.525063,-35.400931,-0.266850,-0.787976,1.999969
810,233.890288,61.707485,-21.545739,-0.192630,-0.765148,1.999969
811,251.041428,51.636530,-13.550011,0.020264,-0.737682,1.999969
812,254.642557,51.514458,-13.061723,0.199100,-0.715953,1.866117
813,250.247959,57.373922,-19.775692,0.335576,-0.712657,1.705959
814,245.181964,65.430686,-30.273899,0.373053,-0.715953,1.574487
815,236.209659,71.168078,-41.504540,0.371710,-0.748425,1.505882
816,225.101091,77.515831,-49.988556,0.363043,-0.802136,1.474266
817,214.785992,83.497368,-54.016938,0.294194,-0.915785,1.362203
818,202.883955,82.337682,-52.368963,0.178103,-1.102068,1.125505
819,185.305562,75.379568,-45.227741,0.063966,-1.332418,0.900282
820,157.289998,72.388800,-33.508812,0.017823,-1.591211,0.759899
821,122.682536,74.769207,-19.226368,0.010254,-1.887602,0.644785
822,89.600977,78.004120,-4.089418,0.029419,-2.000031,0.524056
823,60.242618,71.229114,13.855192,-0.010498,-2.000031,0.440192
824,41.809720,48.706798,34.485389,-0.005615,-1.913970,0.211917
825,18.554971,14.404517,54.749371,0.070192,-1.503075,0.078370
826,-19.226368,-18.799115,69.581140,0.284550,-1.107317,0.204715
827,-48.950942,-52.674144,77.210651,0.575937,-0.701549,0.581918
828,-54.871443,-83.924620,72.755016,0.822522,-0.370733,1.151873
829,-62.500954,-105.043107,48.645762,1.370871,-0.417121,-2.000031
830,-210.147250,-110.963607,2.685588,1.237201,-0.937026,-0.100099
831,-276.249332,-125.062943,-9.521630,0.469490,-1.490379,-0.290532
832,-99.916075,-98.756390,-20.813306,0.078492,0.760021,1.919463
833,-189.150835,-35.278859,-22.705425,-0.706798,0.890517,0.743175
834,-379.278248,-39.246204,9.948882,-0.783459,0.112306,0.733532
835,-395.819028,-51.209277,28.625925,-0.008911,-0.774548,1.999969
836,-276.859693,-32.837415,19.775692,0.602304,-0.605966,1.999969
837,-169.497215,-4.028382,5.798428,0.397345,-0.368780,1.999969
838,-111.268788,12.939651,17.090105,-0.638193,0.165042,1.999969
839,-139.589532,-5.615320,34.729534,-1.099382,-0.442145,1.077287
840,-115.053025,-53.589685,52.124819,-0.347173,-0.220829,1.090837
841,-101.258869,-85.511559,48.523690,0.713024,0.296635,1.999969
842,-73.243305,-66.346227,19.409476,0.766735,-0.077272,1.869413
843,-36.133364,-43.152514,8.911269,-0.097047,0.116579,1.366110
844,-63.965820,-53.772793,10.070954,0.058717,0.190555,1.173846
845,-51.453422,-40.894179,1.831083,0.403571,0.085817,1.485740
846,-51.270314,-16.540780,0.061036,0.039063,-0.041260,1.118914
847,-44.983597,-14.831769,0.671397,-0.045045,0.023804,1.276509
848,-40.283818,-11.841001,0.122072,0.136721,-0.087160,1.149798
849,-25.146868,-3.112840,1.159686,0.036866,-0.000244,1.179339
850,-23.437858,-0.183108,3.479057,0.015137,-0.022217,1.103044
851,-14.892805,1.159686,2.014191,0.067628,0.032715,1.032731
852,-18.677043,4.333562,3.051804,0.006836,0.006226,1.029191
853,-15.991455,3.418021,2.563516,0.001709,0.003540,1.019059
854,-14.160372,3.479057,2.136263,0.046021,0.020996,1.010513
855,-16.296635,5.737392,2.563516,-0.018677,-0.004150,0.984756
856,-15.136950,5.065995,2.990768,-0.009033,0.012329,1.001846
857,-16.418708,4.821851,3.540093,-0.025635,0.008667,0.970962
858,-17.395285,3.418021,3.723201,-0.017700,0.008545,1.001602
859,-18.249790,2.685588,4.394598,-0.013428,-0.011353,1.018692
860,-16.296635,2.441444,3.112840,-0.056641,0.185306,1.454124
861,-12.878614,2.319371,3.479057,-0.028809,-0.037232,1.030655
862,-15.991455,-0.976577,2.746624,-0.023316,-0.055665,0.913100
863,-13.305867,-1.892119,2.990768,-0.027832,-0.011963,1.016983
864,-13.672084,-3.112840,2.929732,-0.032959,-0.000977,1.008072
865,-13.488975,-4.760815,2.258335,-0.038941,-0.025635,0.986587
866,-13.977264,-4.516670,-0.854505,0.092042,-0.237430,0.622202
867,-9.765774,-6.286717,1.831083,-0.016602,0.041260,1.106340
868,-14.831769,-7.446403,2.014191,-0.020020,-0.009888,0.970352
869,-15.381094,-8.484016,1.770047,0.010986,-0.018433,0.973037
870,-14.831769,-7.873655,1.831083,-0.018189,-0.012329,0.989029
871,-18.249790,-8.117800,-0.976577,-0.054566,-0.075074,0.973892
872,-12.817578,-8.056764,1.403830,0.023560,-0.010742,1.018570
873,-15.686275,-8.361944,1.159686,-0.003052,-0.034424,1.041520
874,-12.756542,-8.361944,0.305180,0.013062,-0.059205,1.001114
875,-11.413748,-7.995727,0.793469,0.004883,-0.035645,0.997696
876,-13.183795,-7.934691,1.403830,0.019532,-0.026001,1.021500
877,-13.366903,-7.202258,1.159686,0.004028,-0.044312,1.019547
878,-13.550011,-5.798428,-0.549325,0.078737,-0.130861,0.886122
879,-11.902037,-5.432212,0.488289,-0.025391,-0.015259,1.160296
880,-15.320058,-6.164645,0.488289,0.009644,-0.049439,1.014908
881,-13.672084,-5.554284,0.000000,0.023072,-0.093141,0.974502
882,-14.343481,-4.699779,0.305180,0.028931,-0.050294,1.006729
883,-16.235599,-3.540093,0.793469,0.030274,-0.047852,1.000748
884,-14.221408,-3.173877,1.220722,0.019898,-0.054932,0.941054
885,-20.752270,-3.295949,2.014191,0.019043,-0.045289,0.941299
886,-24.780652,-3.784237,2.746624,0.013794,-0.019532,0.963394
887,-30.640116,-2.502480,3.662165,0.022217,-0.031861,0.962295
888,-38.269627,-1.709010,5.127031,-0.005249,-0.059937,0.964981
889,-37.476158,-2.380407,4.760815,0.041016,-0.031495,0.959243
890,-46.997787,-1.525902,6.347753,-0.005982,-0.037598,0.960464
891,-51.880674,-2.624552,7.690547,0.022217,-0.086671,0.964614
892,-51.819638,1.037613,7.385367,0.072999,-0.121584,1.105852
893,-47.791257,4.760815,9.155413,0.003418,-0.134768,1.014786
894,-46.509499,4.882887,9.521630,0.009400,-0.127443,1.022965
895,-47.058824,7.080186,10.070954,-0.003540,-0.115358,1.012100
896,-50.598917,10.315099,5.798428,-0.087770,-0.161379,1.171283
897,-51.941711,2.258335,3.906310,-0.035523,-0.114015,0.937148
898,-58.899825,0.488289,-3.051804,-0.029053,-0.087404,0.992569
899,-61.768521,-0.427253,-7.995727,0.016602,-0.209110,1.023697
900,-49.744411,-1.098650,-5.859464,0.041627,-0.218509,0.995254
901,-37.964446,-1.586938,-4.943923,0.009888,-0.220829,1.035538
902,-32.104982,-5.432212,-5.859464,0.058473,-0.210575,1.057755
903,-28.686961,-1.281758,-1.953155,0.042969,-0.204837,1.049332
904,-34.302281,0.000000,-2.502480,-0.000122,-0.105715,0.950332
905,-36.560616,0.610361,-10.681315,0.059693,-0.069947,0.934340
906,-41.260395,3.356985,-8.850233,-0.011597,0.348760,0.861097
907,-96.803235,8.239872,-22.095064,0.019043,0.407965,0.729381
908,-137.758450,-1.586938,-32.654307,0.168948,0.169314,0.706676
909,-221.011673,-13.061723,-8.667124,0.028809,1.145892,1.171893
910,-487.006943,-4.089418,-16.052491,0.156985,1.333761,1.501610
911,-750.438697,11.230640,20.325017,0.082643,0.586679,1.527001
912,-864.576181,-23.071641,19.226368,0.424201,-0.391852,1.499657
913,-911.818113,-10.742351,56.824598,-0.361822,-0.921279,1.991730
914,-971.267262,1.037613,206.912337,-1.109026,-0.907729,1.999969
915,-112.367437,-66.590372,-27.710384,-0.894179,-1.781521,1.999969
916,373.296712,-13.061723,-75.440604,-0.064454,0.708873,1.999969
917,207.522698,-63.660639,-75.196460,-0.632822,0.833631,0.912856
918,-58.838788,-20.813306,7.934691,-0.112306,0.579843,-0.107179
919,-50.354772,8.545052,44.373236,-0.139406,0.300420,0.233524
920,33.875029,-13.672084,6.469825,-0.022461,0.334112,0.514778
921,29.724575,-10.742351,3.112840,0.054932,0.663828,0.703136
922,12.329290,-11.718929,-4.577707,0.113039,0.548104,0.975601
923,66.224155,-8.178836,-17.578393,0.082155,0.593759,1.032975
924,95.155261,-8.972305,-26.733806,0.019776,0.664439,0.977798
925,106.630045,-11.352712,-31.921874,-0.047852,0.562387,1.069108
926,141.176471,-11.291676,-34.790570,-0.098268,0.526375,1.249897
927,172.854200,-10.742351,-36.438544,-0.124514,0.442145,1.201190
928,199.404898,-7.507439,-36.316472,-0.129030,0.333135,1.072770
929,217.166400,-3.418021,-35.217823,-0.123049,0.242069,0.898451
930,228.336004,0.732433,-33.325704,-0.126589,0.168582,0.821180
931,235.843442,2.868696,-31.006332,-0.114015,0.119631,0.821302
932,242.252232,2.990768,-28.809033,-0.106081,0.111208,0.892592
933,247.989624,2.807660,-27.038987,-0.073121,0.135622,1.108537
934,257.816434,6.958114,-28.137636,-0.034546,0.087037,1.277852
935,272.343023,18.432898,-31.189441,-0.015625,0.006714,1.228290
936,278.507668,31.189441,-33.936065,-0.037476,-0.116823,1.085588
937,274.174105,42.908370,-33.691920,-0.087526,-0.227909,0.988663
938,265.079728,50.598917,-30.762188,-0.122072,-0.263066,1.068376
939,255.008774,54.627298,-25.085832,-0.133425,-0.250370,1.270283
940,250.125887,57.434958,-20.508125,-0.056275,-0.183963,1.660670
941,249.698634,62.439918,-15.930419,-0.061891,-0.148318,1.999969
942,257.816434,63.050278,-11.779965,-0.061402,-0.246220,1.999969
943,276.737621,61.341268,-8.972305,-0.037476,-0.269902,1.999969
944,286.381323,60.181582,-5.371176,-0.055299,-0.322515,1.999969
945,295.475700,58.045319,-1.892119,-0.047608,-0.471443,1.999969
946,311.100938,62.867170,-3.418021,-0.035279,-0.650034,1.999969
947,303.410391,71.229114,-1.098650,-0.036500,-0.595590,1.999969
948,281.742580,67.322805,1.342794,-0.012451,-0.621225,1.999969
949,291.508354,66.895552,-1.586938,0.202762,-0.605600,1.999969
950,297.917144,72.755016,-9.643702,0.328985,-0.612680,1.999969
951,291.569390,75.867857,-17.517357,0.421393,-0.715465,1.999969
952,284.245060,75.013352,-24.597543,0.451911,-0.841077,1.865385
953,265.873198,71.961547,-29.663539,0.384039,-1.083268,1.703273
954,240.238041,66.956588,-33.386740,0.260014,-1.551171,1.401389
955,207.705806,63.721675,-37.964446,0.252811,-2.000031,1.050065
956,150.698100,71.656367,-49.561303,0.495857,-2.000031,1.003677
957,84.718090,109.559777,-70.130465,0.670054,-2.000031,0.911879
958,82.520790,163.698787,-81.300069,0.361334,-2.000031,0.303593
959,94.178683,147.768368,-59.937438,-0.159060,-2.000031,-0.852796
960,16.113527,33.508812,-12.207218,-0.457282,-2.000031,-1.097917
961,-102.967880,-104.982071,38.818952,-0.208377,-2.000031,-2.000031
962,-225.223163,-207.034409,66.651408,0.404425,-1.432273,-0.081178
963,-303.959716,-199.404898,51.026169,0.177615,-1.374289,1.506859
964,-158.266575,-117.433433,56.702525,-0.544076,0.282475,1.999969
965,-124.513619,-92.225528,66.285191,-0.505623,0.955337,1.676539
966,-221.560998,-108.583200,80.140383,0.188357,0.450935,-0.178836
967,-336.491951,-110.841535,83.558404,1.125628,-0.140505,-0.055543
968,-367.315175,-75.928893,70.984970,1.722194,-0.276371,1.999969
969,-335.759518,-47.974365,39.002060,1.935332,-0.224369,1.999969
970,-207.156481,-2.624552,-14.953841,1.119768,-0.328252,1.999969
971,-149.477379,28.564889,-31.494621,-0.896254,-0.307988,1.999969
972,-189.150835,3.356985,27.466239,-2.000031,-0.521004,1.999969
973,-117.311360,-105.653468,53.650721,-1.064591,-0.729137,1.492454
974,-53.955901,-149.782559,21.789883,1.999969,0.620127,1.999969
975,-39.551385,-23.132677,-6.408789,1.334859,-0.355474,1.521019
976,-14.770733,27.649348,14.648661,-1.365133,0.157595,0.829847
977,-70.801862,-61.829557,8.178836,-0.104128,-0.091676,0.882826
978,-24.292363,-51.819638,-7.507439,0.963394,0.193118,1.728420
979,-58.960861,-1.892119,6.591897,-0.136843,-0.161257,1.054948
980,-22.888533,-19.653620,2.868696,-0.138918,-0.100099,1.159442
981,-4.882887,-24.170291,-2.075227,0.217777,0.080690,1.065202
982,-25.940337,-13.122759,1.464866,0.031495,-0.021729,1.124407
983,-6.103609,-13.000687,0.671397,0.062379,-0.009155,1.027726
984,-6.652934,-8.545052,0.793469,0.103273,0.102296,0.936416
985,-21.667811,-4.211490,3.356985,0.054810,-0.004273,1.028580
986,-11.902037,-2.441444,2.685588,0.066529,0.009522,0.999527
987,-15.686275,0.244144,2.807660,0.072511,0.028443,0.999405
988,-18.616007,2.502480,2.990768,0.042725,-0.012085,1.038712
989,-16.174563,3.845274,2.990768,0.045899,-0.003418,1.023209
990,-16.723888,4.516670,2.990768,0.002808,-0.013672,1.006119
991,-15.808347,2.685588,2.014191,0.021118,-0.003174,0.929702
992,-16.357671,0.732433,2.441444,0.005982,-0.001465,0.995987
993,-18.127718,-2.075227,1.342794,-0.027344,-0.016846,0.961807
994,-18.066682,-4.394598,1.098650,0.031250,0.019287,0.996719
995,-18.432898,-4.638743,1.098650,0.027710,-0.004517,1.001114
996,-19.165332,-4.211490,0.549325,0.032593,-0.049195,0.980972
997,-19.104295,-4.455634,0.427253,0.025757,-0.038575,0.987564
998,-20.447089,-4.516670,0.244144,0.026978,-0.021973,0.984878
999,-22.339208,-4.577707,0.122072,0.027466,-0.028687,0.990616
1000,-23.315785,-4.760815,-0.122072,0.028931,-0.030640,1.019547
1001,-23.071641,-4.333562,-0.244144,0.036622,-0.044800,1.010636
1002,-21.667811,-3.662165,-0.183108,0.020874,-0.040650,1.000137
1003,-22.583352,-4.150454,-0.549325,0.032105,-0.021485,0.990249
1004,-24.536507,-4.272526,-0.732433,0.031983,-0.017212,0.974990
1005,-28.747997,-4.028382,-0.793469,0.051392,-0.040162,0.990494
1006,-29.907683,-3.662165,-0.976577,0.041993,-0.054566,1.005264
1007,-31.189441,-3.051804,-0.732433,0.040894,-0.049683,1.013931
1008,-31.128405,-3.234913,-0.366217,0.043946,-0.077638,1.001602
1009,-28.809033,-1.647974,0.183108,0.043336,-0.079713,1.005753
1010,-28.625925,-1.159686,1.342794,0.036866,-0.101320,0.993545
1011,-24.353399,0.915541,2.075227,0.059449,-0.092164,1.018692
1012,-24.780652,2.624552,3.234913,0.041016,-0.074586,1.012100
1013,-23.865110,2.380407,3.723201,0.021485,-0.081422,0.980240
1014,-26.428626,2.380407,2.929732,0.022705,-0.090578,0.978775
1015,-26.916915,1.953155,2.380407,0.037110,-0.081666,1.009171
1016,-27.588312,1.647974,1.037613,0.024170,-0.070192,0.980972
1017,-33.203632,2.136263,1.037613,0.060914,-0.075196,0.985977
1018,-35.645075,5.371176,3.051804,0.047242,-0.099001,1.010758
1019,-40.466926,5.188067,4.699779,0.056397,-0.087160,0.978897
1020,-43.640803,8.422980,4.577707,0.025757,-0.040772,1.015152
1021,-56.885634,8.422980,4.455634,0.047852,-0.109499,0.916640
1022,-57.862211,9.216449,5.065995,0.039673,-0.143679,1.138689
1023,-51.575494,11.230640,7.019150,0.022705,-0.191409,1.007828
1024,-40.466926,12.329290,8.850233,0.045777,-0.187015,1.055558
1025,-37.232013,12.207218,11.291676,-0.025635,-0.167849,1.014420
1026,-37.659266,11.902037,8.911269,-0.040040,-0.183230,0.977676
1027,-35.278859,5.615320,0.366217,-0.052247,-0.149783,0.989517
1028,-28.259709,-0.305180,-7.629511,0.010620,-0.250370,1.014298
1029,-18.554971,-2.990768,-6.836042,0.013916,-0.225834,1.043229
1030,-12.451362,-4.516670,-9.826810,0.016724,-0.163577,1.009171
1031,-14.343481,-5.188067,-7.568475,0.076051,-0.211795,1.082170
1032,-18.738079,0.427253,-1.831083,0.067506,-0.176638,1.047745
1033,-30.029755,5.615320,-5.004959,0.001831,-0.098634,1.027726
1034,-35.461967,4.760815,-6.958114,0.106691,-0.085206,0.913588
1035,-31.006332,13.244831,-11.230640,0.032837,0.095094,1.026139
1036,-45.471885,7.995727,-17.273213,0.023438,0.321294,0.744640
1037,-96.253910,2.868696,-41.870756,-0.046021,0.483772,0.679210
1038,-157.106889,-12.634470,-37.598230,-0.146487,0.131106,0.794934
1039,-309.391928,-29.419394,-22.522316,0.016358,0.753429,0.913710
1040,-506.294347,-32.715343,-16.601816,-0.085695,0.490486,1.918975
1041,-666.453040,-74.158846,28.259709,-0.598276,0.438972,1.820096
1042,-750.133516,-128.236820,5.371176,0.181155,-0.222538,1.181292
1043,-875.074388,-128.358892,19.409476,0.138186,-0.088258,1.021744
1044,-938.612955,-69.581140,110.292210,0.559701,-2.000031,1.999969
1045,-413.336385,-17.151141,136.232548,-1.048112,0.195071,1.999969
1046,333.012894,15.625238,-84.534981,-0.059937,1.159442,1.999969
1047,330.022126,20.874342,-111.940185,-0.317266,0.997940,1.412741
1048,105.958648,-21.423667,-35.889220,-0.510506,0.936416,0.263676
1049,-26.611734,-26.977951,3.418021,-0.330938,0.082765,-0.285771
1050,65.980011,-35.156786,6.836042,-0.202029,0.143679,0.189212
1051,91.737240,-30.029755,-0.732433,-0.089357,0.545907,0.305913
1052,34.729534,-12.878614,-3.845274,0.026368,0.459846,0.680064
1053,62.928206,1.342794,-12.329290,-0.042115,0.403815,0.967178
1054,110.231174,1.831083,-19.592584,-0.205814,0.502083,1.116716
1055,117.982757,-8.178836,-15.503166,-0.303227,0.436896,1.154070
1056,150.514992,-18.860151,-10.681315,-0.323857,0.329961,1.167376
1057,183.047227,-17.090105,-7.446403,-0.298100,0.296880,1.039933
1058,192.813001,-0.122072,-5.188067,-0.258549,0.215702,0.955337
1059,201.052873,22.705425,-2.990768,-0.208988,0.134768,0.951308
1060,212.771801,39.002060,-0.427253,-0.190066,0.056275,0.927504
1061,220.645457,44.129091,4.882887,-0.184085,-0.009155,0.896010
1062,227.969787,42.053864,12.756542,-0.153811,-0.043946,0.946181
1063,235.233082,35.278859,19.653620,-0.054078,-0.052125,1.019425
1064,243.106737,31.067369,22.766461,0.084108,-0.041016,1.141375
1065,249.576562,31.677729,20.569162,0.244877,-0.063355,1.258320
1066,257.816434,34.607462,14.099336,0.332647,-0.090822,1.355245
1067,268.986038,36.499580,4.272526,0.354009,-0.133791,1.361227
1068,276.371405,37.598230,-4.943923,0.315312,-0.174807,1.396750
1069,274.906539,39.002060,-11.596857,0.281743,-0.248051,1.427756
1070,277.164874,42.908370,-17.273213,0.228031,-0.336919,1.349508
1071,273.746853,50.782025,-21.728847,0.178714,-0.400885,1.171893
1072,256.351568,59.815366,-22.461280,0.126345,-0.390875,1.175555
1073,230.899519,60.852979,-20.019837,0.093507,-0.360845,1.474022
1074,219.668879,50.354772,-17.212177,0.128420,-0.273930,1.999969
1075,221.560998,34.790570,-19.104295,0.195804,-0.237308,1.999969
1076,249.088273,30.884260,-26.916915,0.261357,-0.338994,1.999969
1077,286.015106,33.630884,-39.612421,0.227909,-0.404181,1.999969
1078,293.156329,40.711070,-48.584726,0.135744,-0.476448,1.999969
1079,286.686503,46.570535,-53.406577,0.049317,-0.604257,1.920806
1080,283.512627,51.941711,-55.115587,0.026490,-0.650401,1.809354
1081,267.948425,56.763561,-55.481804,0.054078,-0.677012,1.819730
1082,254.642557,66.407263,-55.970092,0.120119,-0.754650,1.768215
1083,245.365072,77.821012,-57.618067,0.187259,-0.839124,1.616602
1084,222.964828,82.398718,-57.557031,0.228275,-0.944839,1.579370
1085,198.794537,75.928893,-58.045319,0.237797,-1.233295,1.588403
1086,182.192721,71.351186,-60.242618,0.330327,-1.662623,1.599268
1087,148.683909,85.694667,-64.698253,0.524178,-2.000031,1.673610
1088,116.700999,131.471733,-67.139696,0.577890,-2.000031,1.174823
1089,136.110475,178.225376,-66.712444,0.327031,-2.000031,0.000732
1090,131.227588,158.388647,-41.016251,-0.015747,-2.000031,-1.349630
1091,31.067369,52.735180,3.601129,-0.189578,-2.000031,-1.547875
1092,-84.657053,-67.017624,49.927520,-0.101564,-1.759426,-0.317632
1093,-113.710231,-115.846494,71.656367,-0.066041,-1.329122,0.866346
1094,-116.273747,-117.433433,71.778439,0.317510,-1.268818,-2.000031
1095,-229.556725,-140.199893,60.303655,-0.068116,0.029175,0.911025
1096,-223.575189,-137.453269,65.735866,-0.257084,-0.274418,1.119280
1097,-133.974212,-88.502327,80.445563,-0.136965,1.031754,1.569482
1098,-281.864652,-105.714504,86.121920,0.367926,0.574228,0.515023
1099,-371.343557,-109.071489,85.511559,1.328878,-0.394659,0.780407
1100,-324.650950,-69.153887,59.632258,1.738674,-0.291142,1.999969
1101,-303.471427,-41.687648,26.428626,1.763088,-0.051514,1.999969
1102,-241.886015,15.381094,-9.216449,0.681285,-0.535409,1.999969
1103,-131.105516,37.598230,-7.568475,-1.472313,-0.375738,1.999969
1104,-175.478752,-33.630884,33.020523,-2.000031,-0.825818,1.894682
1105,-56.885634,-117.677577,54.139010,-0.035279,-0.143679,1.648341
1106,-59.571221,-121.705959,16.113527,1.999969,0.473396,1.999969
1107,-62.500954,0.427253,4.150454,0.622324,-0.161379,1.188861
1108,-47.852293,4.394598,14.404517,-1.240009,0.086915,0.936660
1109,-72.144656,-68.787671,8.484016,0.171511,-0.085817,1.009171
1110,-35.584039,-47.852293,-4.333562,0.788952,0.123781,1.731594
1111,-58.960861,-13.855192,1.098650,-0.267704,-0.206180,1.089372
1112,-13.244831,-29.236286,-1.342794,-0.002686,-0.001465,1.106584
1113,-18.799115,-26.245518,-1.770047,0.187747,0.094972,0.973770
1114,-41.260395,-14.404517,0.854505,0.002930,-0.103517,1.148455
1115,-13.305867,-14.099336,1.159686,0.088991,-0.038331,1.107683
1116,-12.085145,-8.545052,1.831083,0.110475,0.055787,0.973526
1117,-26.062409,-3.784237,3.662165,0.050416,-0.032715,1.060075
1118,-13.488975,-3.051804,3.112840,0.051881,-0.009522,1.024186
1119,-16.296635,-1.342794,3.112840,0.072267,-0.003662,1.039933
1120,-15.808347,1.281758,3.540093,0.055665,-0.022705,1.048600
1121,-8.728161,1.037613,2.807660,0.037110,0.014038,0.976089
1122,-13.550011,0.610361,2.136263,0.027588,-0.016968,0.969863
1123,-15.259022,-0.671397,1.831083,0.011231,-0.019654,0.980728
1124,-15.075914,-2.075227,1.342794,0.045045,-0.002075,0.984512
1125,-18.738079,-1.281758,1.647974,0.036866,-0.022217,0.979385
1126,-16.723888,-1.892119,1.586938,0.024537,-0.058473,1.007095
1127,-15.991455,-2.197299,1.831083,0.057984,-0.044556,1.023209
1128,-13.855192,-0.305180,2.075227,0.047242,-0.017823,1.008316
1129,-16.662852,-0.244144,2.380407,0.040894,-0.023560,1.008804
1130,-15.014878,0.061036,1.770047,0.048829,-0.021729,0.993912
1131,-17.090105,0.305180,1.220722,0.038331,-0.008667,0.964126
1132,-21.972992,-0.183108,0.793469,0.037110,-0.010010,0.961807
1133,-28.503853,-0.549325,0.549325,0.032593,-0.042359,0.989273
1134,-28.259709,-1.159686,0.427253,0.021973,-0.053712,1.019669
1135,-26.855879,-0.732433,0.488289,0.054078,-0.047364,1.026139
1136,-27.710384,0.671397,0.854505,0.040772,-0.069459,1.017838
1137,-24.902724,1.770047,0.671397,0.040528,-0.061280,1.051164
1138,-21.972992,3.173877,0.427253,0.070924,-0.078248,1.021378
1139,-22.400244,5.554284,1.037613,0.072023,-0.076905,1.034073
1140,-20.996414,7.751583,2.441444,0.052003,-0.086183,1.018692
1141,-15.625238,7.873655,2.929732,0.027832,-0.065187,0.988052
1142,-17.151141,5.859464,2.685588,0.025879,-0.068971,0.969253
1143,-17.334249,5.188067,2.441444,0.024903,-0.088502,0.998550
1144,-15.259022,4.272526,2.319371,0.038087,-0.077150,0.997452
1145,-15.808347,4.394598,2.258335,0.018799,-0.069581,0.973159
1146,-19.287404,3.356985,1.831083,0.028809,-0.083619,0.974868
1147,-20.935378,3.540093,2.075227,0.052491,-0.096437,1.028458
1148,-19.287404,5.188067,2.136263,0.041749,-0.103883,1.004288
1149,-17.822538,5.432212,2.563516,0.021607,-0.086427,0.973404
1150,-19.958801,5.065995,2.075227,0.023072,-0.068605,0.974502
1151,-23.559930,5.859464,2.563516,0.019532,-0.080079,0.999771
1152,-24.902724,5.432212,2.685588,0.032105,-0.089601,0.975723
1153,-23.620966,5.981537,2.807660,0.037476,-0.068482,0.968643
1154,-31.982910,6.408789,2.929732,0.011719,-0.097536,1.009537
1155,-32.837415,6.897078,3.723201,0.014649,-0.098390,0.982437
1156,-36.438544,6.652934,4.455634,0.014282,-0.098146,0.950210
1157,-44.922560,7.873655,5.798428,0.025757,-0.130251,1.011612
1158,-47.302968,10.559243,8.300908,-0.003784,-0.180911,0.969619
1159,-46.387427,9.216449,10.070954,0.004150,-0.147463,1.046891
1160,-46.448463,10.803388,10.193027,-0.000977,-0.168582,1.005264
1161,-42.420081,9.521630,6.713970,-0.032593,-0.177859,0.991226
1162,-41.992828,4.943923,0.061036,-0.061402,-0.108644,0.967666
1163,-42.603189,-0.061036,-9.216449,0.017212,-0.186038,0.978775
1164,-38.025483,-0.854505,-9.826810,0.030518,-0.242191,1.014176
1165,-27.405203,-4.394598,-6.836042,0.012818,-0.192996,1.021500
1166,-25.635157,-4.577707,-8.789197,0.064210,-0.260380,1.088151
1167,-19.653620,-2.136263,-2.502480,0.056641,-0.231693,1.029801
1168,-18.921187,-0.610361,-3.295949,-0.022217,-0.120974,0.981704
1169,-29.968719,-1.647974,-9.948882,0.073365,-0.167483,0.992935
1170,-24.536507,4.394598,-2.685588,-0.004395,-0.032105,0.898695
1171,-51.270314,5.188067,-8.545052,0.011841,0.239628,0.883925
1172,-74.586099,6.775006,-10.498207,0.000488,0.446906,0.690929
1173,-141.725795,-0.488289,-25.391012,0.101198,0.467292,0.583017
1174,-197.451743,-17.456321,1.464866,0.172000,0.810681,0.836561
1175,-440.741588,-19.409476,9.704738,0.131228,1.181170,1.837919
1176,-665.598535,-11.413748,45.838102,-0.357794,0.499519,1.475120
1177,-769.726101,-55.603876,31.555657,0.157961,-0.273808,1.229633
1178,-841.077287,-39.734493,48.218509,0.071534,-0.194827,1.132097
1179,-888.563363,-44.800488,76.661326,0.272221,-2.000031,1.999969
1180,-724.071107,-5.065995,168.764782,-0.789807,-1.377584,1.999969
1181,101.564050,-19.897765,-71.046006,-0.206790,-0.006592,1.999969
1182,309.514000,15.564202,-83.985657,0.051881,0.589975,1.999969
1183,128.786145,-47.608148,-43.030442,-0.438727,1.181170,1.415671
1184,-25.391012,-56.946670,-4.333562,-0.082277,0.366949,0.230716
1185,38.269627,-54.139010,-5.615320,-0.034302,0.141360,0.283818
1186,82.093538,-40.222782,-18.249790,0.002686,0.519905,0.243046
1187,34.180209,-23.315785,-24.414435,0.039307,0.505867,0.571786
1188,37.537194,-12.329290,-29.968719,-0.058595,0.411627,0.870375
1189,88.685435,-20.752270,-36.072328,-0.229007,0.490974,1.061418
1190,106.874189,-38.269627,-31.555657,-0.384649,0.516121,1.285664
1191,132.875563,-53.528649,-24.353399,-0.408209,0.402350,1.466331
1192,183.657588,-52.491035,-20.630198,-0.455451,0.363653,1.525292
1193,211.917296,-37.537194,-15.869383,-0.538094,0.256962,1.405173
1194,233.340963,-15.747311,-8.911269,-0.570809,0.062013,1.208148
1195,254.825666,5.798428,-0.183108,-0.555428,-0.084718,0.929702
1196,260.563058,20.752270,9.826810,-0.436530,-0.174197,0.677134
1197,257.450217,28.442817,18.982223,-0.327520,-0.224857,0.575814
1198,253.055619,31.128405,26.489662,-0.227176,-0.234867,0.692027
1199,247.867552,29.907683,31.738766,-0.063233,-0.218021,0.897230
1200,249.027237,30.518044,31.250477,0.107912,-0.194339,1.150774
1201,254.947738,33.691920,24.597543,0.291997,-0.159792,1.377218
1202,259.220264,38.025483,12.390326,0.436652,-0.190555,1.551415
1203,269.962615,43.457694,-4.455634,0.512093,-0.285771,1.640650
1204,279.056992,48.340581,-21.301595,0.462898,-0.387701,1.680323
1205,281.925689,51.392386,-33.936065,0.316777,-0.514534,1.696437
1206,282.475013,52.918288,-38.452735,0.104372,-0.655406,1.678981
1207,284.794385,50.598917,-35.095750,-0.086305,-0.744762,1.571557
1208,283.634699,44.922560,-26.123445,-0.242435,-0.774426,1.348775
1209,271.000229,32.166018,-15.320058,-0.240482,-0.734020,1.254658
1210,253.543908,30.334936,-7.263294,-0.196414,-0.664683,1.214862
1211,236.026551,33.752956,-4.150454,-0.134157,-0.567636,1.295308
1212,216.678111,42.114900,-3.356985,-0.100832,-0.489509,1.511742
1213,206.912337,47.730220,-3.295949,-0.068727,-0.439460,1.813748
1214,211.429007,46.997787,-3.051804,-0.017578,-0.394537,1.999969
1215,221.927214,44.190127,-4.577707,0.080812,-0.390387,1.999969
1216,230.716411,44.373236,-9.765774,0.169558,-0.396368,1.942168
1217,232.120241,49.134051,-18.493935,0.238285,-0.433234,1.840848
1218,229.739834,56.519417,-29.358358,0.254032,-0.484627,1.725734
1219,224.612802,62.561990,-40.588998,0.275639,-0.505501,1.627222
1220,213.504234,64.209964,-52.979324,0.353643,-0.570687,1.618921
1221,198.611429,70.557717,-66.590372,0.420294,-0.757702,1.541405
1222,187.014572,76.661326,-82.093538,0.407233,-1.062760,1.419211
1223,162.722210,82.154574,-91.798276,0.275395,-1.551415,1.308614
1224,130.861372,85.450523,-91.126879,0.193240,-2.000031,1.353048
1225,98.939498,97.718776,-80.567636,0.227176,-2.000031,1.301534
1226,91.859312,114.259556,-63.111315,0.162722,-2.000031,0.614267
1227,110.048066,110.902571,-37.659266,0.089357,-2.000031,-0.608408
1228,54.810407,51.514458,4.089418,-0.017945,-2.000031,-1.259785
1229,-51.392386,-53.101396,53.162432,0.042725,-2.000031,-0.776745
1230,-195.071336,-202.090486,30.762188,0.984756,-2.000031,-1.272847
1231,-213.504234,-200.198367,41.260395,1.220478,-0.161257,1.511498
1232,-144.716564,-126.710918,13.611048,-0.127810,0.724254,1.999969
1233,-100.282292,-99.000534,24.414435,-0.602182,1.314229,1.418723
1234,-269.718471,-98.329137,39.063096,-0.711925,0.183719,-0.123903
1235,-349.370565,-89.417868,68.055238,-0.298222,-0.478279,0.077150
1236,-350.713359,-90.028229,80.018311,0.749523,-0.385992,1.999969
1237,-314.702068,-54.200046,63.233387,1.685451,-0.222782,1.999969
1238,-173.769741,3.967346,18.371862,1.432517,-0.233524,1.999969
1239,-118.959335,45.166705,-9.521630,0.306889,0.203006,1.649317
1240,-190.371557,50.354772,23.743038,-1.364279,0.158328,1.999969
1241,-158.999008,-18.554971,40.711070,-1.430076,-0.879652,1.617456
1242,-23.498894,-88.258183,29.846647,0.725475,0.218387,1.999969
1243,-38.208591,-51.514458,-1.831083,1.690700,0.091920,1.999969
1244,-12.146181,34.302281,6.347753,-0.419318,0.142580,0.821302
1245,-60.669871,-6.836042,14.648661,-0.736461,0.024292,0.860853
1246,-40.405890,-39.429313,3.662165,0.512581,0.051148,1.492088
1247,-20.019837,-5.859464,-2.502480,0.186160,0.059693,1.146990
1248,-34.119173,-2.502480,2.929732,-0.374029,-0.039429,0.924086
1249,-22.156100,-21.240558,1.098650,0.123903,-0.005371,1.209857
1250,-12.268254,-8.239872,1.342794,0.089601,0.036866,1.116716
1251,-14.526589,-4.333562,3.112840,-0.104616,0.010620,1.009903
1252,-8.911269,-7.568475,2.685588,0.060304,0.030152,1.081071
1253,-7.019150,-1.953155,2.014191,0.007568,0.056275,0.996353
1254,-10.803388,-1.403830,2.258335,-0.032227,0.043824,0.974746
1255,-11.413748,-1.159686,2.014191,0.037476,0.043091,1.031510
1256,-11.718929,1.953155,2.136263,-0.002075,0.023560,1.011368
1257,-11.047532,1.831083,2.136263,-0.038331,0.036011,0.974136
1258,-12.390326,0.610361,2.197299,-0.024537,0.035889,0.981094
1259,-13.916228,0.061036,2.258335,-0.024659,0.028809,0.982315
1260,-14.160372,-0.366217,2.258335,-0.036988,0.035645,0.960952
1261,-16.906996,-1.342794,1.709010,-0.141238,0.255985,1.472557
1262,-13.916228,-4.394598,1.403830,-0.008911,-0.044556,0.860121
1263,-22.156100,-8.300908,0.732433,-0.037720,-0.033448,0.937148
1264,-19.104295,-9.033341,0.915541,-0.027222,-0.000732,1.036759
1265,-17.273213,-9.277485,0.732433,-0.037354,-0.003906,1.000626
1266,-17.883574,-7.873655,0.305180,-0.088258,0.227909,1.511986
1267,-15.075914,-4.516670,0.976577,0.003906,-0.048585,1.026993
1268,-19.409476,-5.920500,1.525902,-0.012329,-0.031983,0.955337
1269,-15.197986,-4.272526,2.014191,-0.002930,-0.011231,1.021866
1270,-15.442130,-3.845274,2.319371,-0.014527,-0.009400,1.027726
1271,-14.221408,-4.089418,2.014191,-0.011109,-0.020996,1.010025
1272,-13.305867,-4.577707,1.770047,-0.012329,-0.022950,1.017350
1273,-12.451362,-4.699779,1.770047,-0.000366,-0.031128,1.025772
1274,-9.948882,-4.638743,1.709010,-0.017945,-0.019043,0.990127
1275,-10.864424,-5.859464,1.464866,-0.020386,-0.003418,0.969375
1276,-13.122759,-6.897078,1.342794,-0.007446,-0.007080,0.989761
1277,-13.794156,-6.591897,0.671397,-0.083864,0.082765,1.291157
1278,-11.352712,-5.065995,0.915541,-0.005493,-0.041993,1.087053
1279,-13.061723,-5.798428,2.136263,-0.001709,-0.048829,0.907973
1280,-13.672084,-6.408789,2.136263,-0.020020,-0.018677,0.964126
1281,-16.968032,-7.934691,2.075227,0.006836,-0.020996,1.007950
1282,-16.968032,-7.202258,1.647974,0.025269,-0.043824,1.045182
1283,-14.404517,-5.737392,1.464866,0.018189,-0.035523,1.011246
1284,-15.075914,-4.516670,1.342794,0.001709,-0.015747,0.997940
1285,-19.226368,-4.150454,1.586938,0.003540,0.010498,0.940200
1286,-25.146868,-4.455634,1.770047,-0.004028,-0.002441,0.971817
1287,-30.884260,-4.150454,1.892119,0.001587,-0.025269,1.004410
1288,-32.959487,-2.990768,2.502480,0.015503,-0.044312,0.995987
1289,-33.386740,-1.586938,2.868696,0.004639,-0.058595,1.000626
1290,-34.180209,-1.586938,3.112840,-0.000122,-0.054200,0.977554
1291,-33.142596,-1.281758,3.112840,0.006104,-0.024537,0.952773
1292,-46.509499,-0.305180,4.943923,-0.009766,-0.048463,0.983169
1293,-43.030442,-1.037613,4.943923,-0.071534,-0.060182,0.901991
1294,-47.180896,-3.906310,5.004959,0.030274,-0.064088,1.014176
1295,-53.284504,-2.319371,8.484016,-0.012818,-0.085817,1.067155
1296,-48.035401,2.258335,7.141222,0.022827,-0.139895,0.969009
1297,-45.654994,2.319371,8.606088,-0.015625,-0.031617,1.031388
1298,-55.542840,2.746624,5.371176,-0.011353,-0.064332,0.991958
1299,-65.369650,3.662165,4.333562,-0.041138,-0.082887,0.987442
1300,-75.440604,4.211490,1.831083,-0.094606,-0.133913,1.159686
1301,-85.389487,1.525902,-5.188067,-0.038941,-0.216190,1.049454
1302,-69.336996,-0.488289,-5.981537,0.033814,-0.306279,1.057145
1303,-46.387427,0.854505,-7.202258,0.061036,-0.240604,1.004654
1304,-31.738766,-4.211490,-6.836042,0.036500,-0.214725,1.117693
1305,-31.677729,-2.136263,-2.990768,0.031739,-0.237186,1.003189
1306,-32.532235,0.915541,-0.793469,-0.004883,-0.123171,1.009903
1307,-39.307240,-1.342794,-13.366903,0.075685,-0.138552,0.907240
1308,-34.485389,4.943923,-10.193027,-0.037842,0.366217,0.868421
1309,-81.239033,3.295949,-21.362631,-0.021729,0.451057,0.675303
1310,-136.049439,-1.525902,-39.429313,0.200443,0.364508,0.518685
1311,-223.941405,-2.319371,-9.277485,0.043458,1.046891,1.054337
1312,-473.579004,3.356985,-28.076600,0.245853,1.084001,1.596460
1313,-698.619059,30.762188,4.333562,-0.079103,0.553109,1.982452
1314,-794.079500,-10.254063,-11.413748,0.121828,-0.293706,1.352926
1315,-881.849394,1.647974,15.014878,-0.128420,-0.578622,0.894911
1316,-951.979858,-3.662165,96.498054,-0.574960,-2.000031,1.999969
1317,-676.340887,-21.118486,183.657588,-1.746731,-1.298604,1.999969
1318,138.796063,-70.374609,-35.461967,-0.733654,0.169192,1.999969
1319,236.575875,-43.213550,-7.629511,-0.620371,1.276265,1.999969
1320,14.038300,-89.295796,22.583352,-0.392828,0.905409,1.999969
1321,-66.163119,-55.542840,72.083619,-0.012451,0.323735,1.220600
1322,87.403677,-34.302281,49.683375,0.146609,0.412726,0.923964
1323,143.801022,-15.625238,14.526589,0.317998,0.628305,0.545785
1324,80.262455,4.882887,4.394598,0.401862,0.529915,0.729137
1325,74.158846,26.306554,-2.319371,0.247196,0.386358,0.747082
1326,135.378042,18.860151,-19.592584,0.149538,0.374517,0.711070
1327,143.495842,-0.305180,-22.095064,-0.066773,0.393439,0.644297
1328,142.275120,-27.771420,-18.066682,-0.086915,0.267460,0.778332
1329,176.821546,-44.861524,-16.784924,-0.099611,0.301884,0.948501
1330,190.188449,-51.148241,-17.212177,-0.073732,0.309575,1.061540
1331,203.128099,-44.678416,-20.325017,-0.051270,0.238041,1.230243
1332,227.054246,-30.762188,-25.146868,-0.100954,0.191897,1.289693
1333,247.806516,-16.357671,-27.100023,-0.162356,0.118654,1.179461
1334,260.502022,-6.103609,-27.038987,-0.223514,-0.008057,1.041764
1335,272.770275,1.709010,-22.644388,-0.263676,-0.066163,1.001236
1336,277.653162,4.821851,-15.747311,-0.244388,-0.084108,1.113787
1337,283.756771,7.263294,-9.887846,-0.161257,-0.100465,1.341085
1338,297.001602,9.399557,-7.446403,-0.040772,-0.129519,1.471214
1339,314.274815,9.826810,-11.169604,0.113161,-0.222782,1.361105
1340,325.139239,12.085145,-22.705425,0.281498,-0.348882,0.933486
1341,310.185397,26.611734,-40.894179,0.395636,-0.567636,0.518563
1342,278.263523,49.378195,-51.819638,0.344732,-0.498177,0.578744
1343,235.416190,49.439231,-59.754330,0.212161,-0.414557,1.003555
1344,225.833524,35.034714,-65.125505,0.096681,-0.325933,1.569116
1345,227.847715,30.945296,-68.665599,-0.065675,-0.294560,1.999969
1346,228.458076,44.190127,-65.247578,-0.182620,-0.401495,1.999969
1347,247.501335,58.838788,-59.815366,-0.250492,-0.549081,1.999969
1348,273.563745,68.055238,-51.880674,-0.297490,-0.638437,1.999969
1349,285.038529,65.796902,-38.086519,-0.293950,-0.684581,1.999969
1350,302.433814,57.068742,-24.963760,-0.146365,-0.819104,1.999969
1351,339.360647,57.373922,-22.034028,0.084352,-0.898695,1.999969
1352,339.848936,66.651408,-24.597543,0.260990,-0.880262,1.787991
1353,311.528191,70.740826,-30.884260,0.390997,-0.894179,1.605127
1354,290.287633,67.689021,-40.833143,0.406989,-0.911269,1.702907
1355,275.761044,67.383841,-50.293736,0.379644,-0.969375,1.810941
1356,256.961929,67.139696,-57.007706,0.303105,-1.197528,1.720119
1357,238.529030,65.247578,-61.463340,0.241825,-1.627344,1.412131
1358,205.935760,70.557717,-64.698253,0.402716,-2.000031,1.115129
1359,142.092012,86.121920,-71.229114,0.694347,-2.000031,0.885878
1360,89.173724,123.537041,-81.849393,0.791028,-2.000031,0.339971
1361,95.826658,145.143816,-88.380255,0.467659,-2.000031,-0.519173
1362,60.486763,90.455482,-65.857939,0.013184,-2.000031,-1.160906
1363,-40.161746,-21.728847,-20.325017,-0.216312,-2.000031,-0.465705
1364,-136.781872,-124.269474,21.972992,-0.484016,-2.000031,-2.000031
1365,-233.585107,-239.383536,62.195773,0.243900,-0.686900,0.697154
1366,-178.103304,-193.545434,54.261082,0.200198,-0.143801,1.999969
1367,-94.972152,-88.502327,56.092164,-0.490120,1.036515,1.999969
1368,-142.458228,-95.094224,67.322805,-0.472786,0.812634,0.333013
1369,-263.187610,-125.673304,83.497368,0.370123,0.105837,-0.333745
1370,-313.176165,-102.052338,81.300069,0.738537,-0.273198,0.434943
1371,-323.674372,-82.459754,77.088579,0.940810,-0.112795,1.999969
1372,-300.846876,-63.355459,60.608835,1.143572,-0.310185,1.999969
1373,-164.126040,-29.419394,28.442817,0.628428,-0.346441,1.999969
1374,-132.265202,-18.738079,18.554971,-0.116457,0.034546,1.652613
1375,-174.929427,-16.418708,33.081559,-0.574472,-0.199344,1.564965
1376,-149.111162,-58.167391,54.322118,-0.646983,-0.071778,1.892729
1377,-115.724422,-93.812467,45.654994,0.659434,0.167971,1.999969
1378,-80.506600,-70.801862,-4.150454,1.615381,-0.374029,1.999969
1379,6.103609,6.286717,-7.995727,-0.095827,0.127565,1.218769
1380,-79.896239,-15.442130,11.047532,-0.566537,0.099733,1.099260
1381,-58.777752,-43.884947,6.347753,0.320439,-0.118166,1.282124
1382,-22.217136,-21.850919,-7.263294,0.416022,0.024781,1.345480
1383,-45.166705,-1.770047,1.892119,-0.154421,-0.049561,1.064469
1384,-21.972992,-15.991455,-0.793469,-0.000366,0.036255,1.039811
1385,-30.151827,-12.573434,0.366217,0.137087,0.019532,1.076310
1386,-28.076600,-5.554284,1.342794,0.049683,-0.038331,1.078874
1387,-19.714656,-4.394598,2.441444,0.091554,0.037598,1.018814
1388,-23.254749,-2.563516,3.784237,0.074464,0.002319,1.028214
1389,-19.775692,-0.610361,3.906310,0.056641,-0.023316,1.014420
1390,-20.447089,0.610361,4.150454,0.059205,0.036866,1.011246
1391,-21.667811,-0.183108,3.784237,0.033814,-0.011353,1.025162
1392,-18.005646,-1.892119,3.112840,0.030396,-0.001221,1.022477
1393,-18.310826,-1.281758,2.685588,0.045045,-0.010010,1.028214
1394,-16.113527,0.000000,2.563516,0.017090,-0.001221,0.995254
1395,-17.212177,-0.976577,2.319371,0.038209,-0.006470,1.001968
1396,-17.883574,-0.610361,2.563516,0.023682,0.003540,0.977554
1397,-18.310826,-2.258335,2.197299,0.037964,0.008667,0.981827
1398,-20.691234,-2.014191,1.525902,0.051637,-0.029419,1.019425
1399,-18.982223,-1.953155,1.403830,0.039551,-0.029175,0.998428
1400,-16.540780,-2.563516,1.037613,0.019287,-0.011719,0.979507
1401,-19.653620,-4.211490,0.122072,0.011475,-0.036866,0.980484
1402,-20.141909,-5.554284,-0.305180,0.032715,-0.041382,1.009659
1403,-19.043259,-5.676356,-0.305180,0.041749,-0.038941,1.029679
1404,-17.334249,-5.249104,-0.427253,0.030274,-0.054566,1.026749
1405,-15.442130,-5.004959,-0.488289,0.043336,-0.064576,1.015763
1406,-14.953841,-4.577707,-0.244144,0.055299,-0.059205,1.023819
1407,-11.230640,-3.723201,0.000000,0.045655,-0.055421,1.012955
1408,-10.254063,-3.601129,-0.305180,0.033326,-0.043946,1.012833
1409,-11.047532,-3.723201,0.000000,0.041016,-0.045289,0.991226
1410,-11.108568,-4.333562,-0.671397,0.033326,-0.042359,0.965347
1411,-14.892805,-4.943923,-1.098650,0.030884,-0.032105,0.991104
1412,-16.968032,-4.882887,-0.915541,0.048463,-0.054078,1.004044
1413,-15.991455,-5.127031,-0.366217,0.058717,-0.060304,0.969986
1414,-17.090105,-4.577707,-0.244144,0.052491,-0.054200,0.994522
1415,-19.592584,-4.028382,0.305180,0.053468,-0.085084,1.009293
1416,-14.587625,-3.540093,0.854505,0.060182,-0.078004,1.014176
1417,-14.465553,-2.624552,1.342794,0.062867,-0.056153,0.996109
1418,-14.587625,-1.464866,1.159686,0.088869,-0.053834,1.050065
1419,-15.320058,0.427253,1.098650,0.056886,-0.087404,0.997818
1420,-15.075914,1.281758,1.403830,0.062013,-0.058350,0.985122
1421,-19.836728,2.319371,1.464866,0.054932,-0.052857,0.973037
1422,-23.254749,2.258335,1.586938,0.035279,-0.052613,0.975723
1423,-26.306554,1.770047,1.464866,0.041260,-0.063478,0.976577
1424,-29.602502,1.831083,1.586938,0.040894,-0.067018,0.971939
1425,-33.020523,2.197299,1.586938,0.057618,-0.081666,0.998306
1426,-36.316472,2.624552,1.770047,0.019532,-0.082643,1.007584
1427,-35.828183,3.295949,2.685588,0.118410,-0.044068,0.955581
1428,-44.983597,9.460594,5.249104,0.003906,-0.069703,0.997452
1429,-48.584726,9.094377,6.225681,0.098512,-0.147463,1.019913
1430,-44.922560,11.779965,10.070954,0.057862,-0.098024,1.001846
1431,-53.101396,14.587625,11.413748,0.052613,-0.125368,0.933486
1432,-56.885634,14.343481,12.085145,0.025391,-0.126345,1.030167
1433,-48.157473,12.878614,9.277485,0.014282,-0.172366,0.981949
1434,-38.269627,7.873655,6.042573,-0.000488,-0.112306,0.965591
1435,-43.640803,8.178836,1.525902,-0.022827,-0.173831,1.033951
1436,-48.279545,5.737392,-4.150454,-0.046632,-0.196170,0.996353
1437,-34.912642,-2.502480,-10.925460,-0.012818,-0.198489,1.002579
1438,-23.254749,-7.446403,-22.827497,0.089723,-0.181643,0.979751
1439,-15.442130,-6.530861,-16.357671,0.167971,-0.237430,1.072282
1440,-23.926146,4.516670,2.380407,0.138674,-0.137209,1.079850
1441,-48.035401,14.953841,-3.540093,0.120485,0.053223,1.005264
1442,-47.547112,21.606775,-10.925460,0.073732,0.066041,0.811536
1443,-59.815366,15.930419,-7.934691,-0.011841,0.384283,0.818006
1444,-132.692454,12.207218,-25.452049,-0.163577,0.193851,0.528450
1445,-179.751278,-24.353399,-18.371862,-0.166629,0.314580,0.536995
1446,-343.389029,-51.087205,0.122072,-0.095583,1.149920,1.222919
1447,-549.324788,-58.655680,49.073014,-0.464363,0.186770,0.734630
1448,-669.199664,-165.712978,45.227741,-0.149050,-0.221805,1.929961
1449,-726.695659,-193.972686,39.673457,0.232059,-0.440681,1.005997
1450,-815.625238,-170.229648,65.125505,0.346685,-0.060426,1.002213
1451,-896.253910,-115.724422,124.452583,0.922622,-2.000031,1.999969
1452,-440.619516,-40.833143,158.754864,-0.582284,0.024292,1.999969
1453,221.377890,-7.202258,-70.862898,-0.112917,1.006729,1.999969
1454,256.229496,17.090105,-88.502327,-0.452766,1.417136,1.999969
1455,81.483177,-13.916228,-18.249790,-0.561776,1.043839,1.254902
1456,-21.301595,-28.259709,8.056764,-0.546517,0.234501,0.674205
1457,94.605936,-35.156786,13.061723,-0.340826,0.104372,0.480720
1458,139.650568,-24.475471,14.648661,-0.265019,0.498299,0.384283
1459,73.731594,-10.009918,16.357671,-0.139284,0.426642,0.686046
1460,78.614481,10.864424,11.963073,-0.154543,0.194095,0.992447
1461,141.603723,24.170291,6.042573,-0.219730,0.292363,1.085954
1462,151.308461,22.888533,5.798428,-0.176883,0.311284,1.048600
1463,167.544060,19.714656,5.554284,-0.117311,0.208499,1.055924
1464,200.686656,18.860151,2.685588,-0.076295,0.214969,1.034928
1465,212.527657,21.301595,-0.610361,-0.057496,0.186282,1.071427
1466,224.490730,26.428626,-3.112840,-0.042237,0.095338,1.140642
1467,246.829938,35.889220,-5.615320,-0.024903,0.012085,1.122454
1468,256.839857,45.532921,-5.310140,-0.043580,-0.076905,1.058366
1469,263.675898,51.392386,-2.441444,-0.020142,-0.188724,0.960708
1470,268.436713,52.552071,0.305180,0.094240,-0.205325,1.009049
1471,268.192569,52.124819,-1.892119,0.260624,-0.217777,1.181415
1472,276.920729,55.786984,-9.765774,0.462043,-0.196902,1.301534
1473,277.897307,56.153201,-22.827497,0.576913,-0.270878,1.450950
1474,277.775235,52.429999,-35.889220,0.554208,-0.382330,1.461570
1475,287.663081,45.716030,-49.317159,0.535653,-0.496345,1.444358
1476,289.677272,38.818952,-60.852979,0.432013,-0.565927,1.481346
1477,283.573663,35.645075,-66.834516,0.241581,-0.653208,1.505028
1478,283.390555,35.950256,-66.712444,0.054566,-0.676768,1.498436
1479,276.371405,35.217823,-60.975052,-0.098512,-0.664683,1.528099
1480,266.605631,37.109941,-51.087205,-0.183230,-0.651621,1.567163
1481,261.234455,44.251164,-40.955215,-0.157351,-0.606088,1.615259
1482,247.989624,56.824598,-32.654307,-0.110842,-0.582650,1.721584
1483,239.200427,67.383841,-25.146868,-0.071290,-0.600595,1.800687
1484,239.200427,73.182269,-19.226368,-0.017456,-0.587289,1.852201
1485,235.843442,74.525063,-14.526589,0.066651,-0.589120,1.856229
1486,234.195468,75.745785,-12.878614,0.152468,-0.588144,1.807401
1487,231.937133,77.515831,-13.977264,0.191775,-0.597665,1.688258
1488,221.927214,78.370336,-15.991455,0.183841,-0.625620,1.572168
1489,207.339590,75.440604,-17.395285,0.164553,-0.672862,1.542138
1490,197.024491,69.703212,-18.616007,0.125246,-0.738537,1.536889
1491,185.305562,66.651408,-18.493935,0.155764,-0.879164,1.534081
1492,175.173571,69.153887,-19.226368,0.188968,-1.120256,1.383932
1493,164.003967,73.426413,-21.545739,0.292485,-1.376364,1.141619
1494,138.124666,80.445563,-27.222095,0.449348,-1.704738,1.007095
1495,102.601663,90.577554,-34.668498,0.505257,-2.000031,0.906996
1496,87.220569,102.662699,-36.743725,0.388067,-2.000031,0.628305
1497,81.788357,92.347601,-27.710384,0.258427,-2.000031,0.129274
1498,50.537881,43.884947,-7.568475,0.153079,-1.848417,-0.298222
1499,4.821851,-24.841688,15.075914,0.141115,-1.485008,-0.222049
1500,-38.879988,-77.271687,30.212863,0.176761,-1.853788,-1.348531
1501,-166.628519,-166.750591,26.489662,0.668223,-1.740871,-1.397238
1502,-276.676585,-200.381476,23.987182,0.522225,-1.287373,0.122194
1503,-145.815213,-139.711604,19.165332,-0.094118,0.142580,1.903960
1504,-154.421302,-83.863584,28.747997,-0.588266,1.275166,1.999969
1505,-274.967575,-74.586099,46.692607,-0.707042,0.347906,0.961196
1506,-321.355001,-100.953689,60.364691,-0.353277,-0.591440,0.534310
1507,-270.878157,-81.055924,69.581140,0.320562,-0.416022,1.657252
1508,-279.301137,-44.861524,69.886320,1.221332,-0.084352,1.999969
1509,-237.857633,-32.227054,39.063096,1.608667,-0.140871,1.999969
1510,-136.232548,16.479744,1.342794,0.808606,-0.078492,1.923491
1511,-125.307088,39.795529,7.263294,-0.765637,0.099977,1.838895
1512,-170.534829,-14.709697,36.377508,-1.354147,-0.568490,1.685084
1513,-81.788357,-88.685435,32.532235,0.169314,0.012573,1.999969
1514,-64.759289,-76.844434,2.807660,1.485496,-0.057008,1.946197
1515,-53.711757,3.418021,9.277485,0.105226,0.102541,1.184833
1516,-82.093538,-13.061723,15.869383,-0.730724,-0.012696,0.806165
1517,-63.904784,-52.491035,2.136263,0.353277,0.050538,1.578759
1518,-49.195087,-35.034714,-4.028382,0.196780,-0.119265,1.116594
1519,-39.490349,-27.649348,-0.732433,-0.128420,-0.000855,1.067765
1520,-40.527962,-30.395972,-2.929732,0.148318,-0.040894,1.116472
1521,-38.269627,-19.653620,0.671397,0.096193,-0.039429,1.134417
1522,-32.349126,-14.160372,2.685588,0.023804,-0.055421,1.090471
1523,-23.010605,-12.146181,2.685588,0.057252,0.017823,1.051896
1524,-31.250477,-7.263294,3.234913,0.082155,-0.042359,1.046647
1525,-23.804074,-4.333562,3.234913,0.047730,-0.043336,1.049943
1526,-23.437858,-2.746624,3.601129,0.064332,-0.046509,1.064469
1527,-19.165332,-0.610361,3.234913,0.049805,-0.054932,1.043839
1528,-16.113527,-0.061036,2.746624,0.048585,-0.014527,1.007340
1529,-20.019837,0.915541,2.136263,0.019409,-0.008667,0.974990
1530,-24.292363,1.586938,1.525902,-0.002930,0.000610,1.068864
1531,-25.268940,2.319371,2.685588,0.140139,-0.077882,0.923110
1532,-20.080873,5.310140,2.075227,0.018067,-0.072267,1.037125
1533,-17.456321,5.493248,2.014191,0.026856,-0.069093,1.026139
1534,-15.503166,5.065995,2.319371,0.018799,-0.061769,1.007095
1535,-14.648661,5.310140,2.136263,0.037476,-0.059327,1.006363
1536,-14.465553,5.004959,2.258335,-0.029908,-0.055299,1.080461
1537,-15.320058,6.225681,1.220722,0.012085,-0.024170,1.007584
1538,-20.569162,4.638743,1.098650,0.014527,-0.053101,0.960220
1539,-22.034028,3.967346,1.159686,-0.000244,-0.065675,0.978408
1540,-24.109255,3.173877,1.159686,0.020264,-0.064210,1.014664
1541,-21.301595,3.845274,1.647974,0.015991,-0.082155,1.006729
1542,-21.240558,3.723201,2.014191,-0.000855,-0.103029,1.029313
1543,-19.165332,2.868696,1.709010,0.008057,-0.108522,1.017472
1544,-16.479744,2.258335,1.525902,0.009033,-0.102052,1.025406
1545,-14.831769,1.403830,1.342794,0.000122,-0.139773,1.028214
1546,-8.972305,0.244144,0.671397,0.006714,-0.117800,1.015518
1547,-7.202258,-0.732433,0.244144,-0.007202,-0.088014,0.969986
1548,-8.545052,-2.197299,-0.122072,0.003784,-0.083131,0.980484
1549,-10.131991,-3.173877,-0.671397,0.021973,-0.096437,1.003555
1550,-9.033341,-2.746624,-0.671397,0.025147,-0.091554,0.980972
1551,-13.000687,-1.892119,0.122072,0.034058,-0.098390,1.006363
1552,-12.024109,-0.610361,0.549325,0.027466,-0.106081,1.014176
1553,-11.596857,0.305180,0.976577,0.032959,-0.097169,1.044816
1554,-10.437171,1.953155,1.586938,0.023926,-0.123781,1.019181
1555,-7.873655,2.319371,1.831083,0.008911,-0.105959,0.993301
1556,-9.338521,1.953155,1.709010,0.014893,-0.101930,0.989639
1557,-8.789197,1.403830,1.525902,0.017945,-0.104005,1.003555
1558,-8.789197,1.037613,1.403830,0.002564,-0.106691,0.998062
1559,-9.094377,0.305180,1.159686,0.008789,-0.104372,0.996963
1560,-9.277485,0.122072,1.098650,-0.000732,-0.107301,0.992691
1561,-10.315099,-0.793469,1.159686,0.026978,-0.112917,0.994644
1562,-9.826810,-0.671397,0.305180,0.033326,-0.109255,1.002579
1563,-9.521630,-0.549325,-1.403830,0.030274,-0.096193,0.996231
1564,-15.136950,1.342794,-0.488289,0.034058,-0.153445,1.024674
1565,-8.972305,3.418021,2.014191,0.034791,-0.166873,1.033951
1566,-4.516670,5.432212,4.333562,0.032715,-0.120729,1.011368
1567,-6.897078,6.408789,5.554284,-0.002197,-0.104250,0.971450
1568,-9.399557,5.432212,5.249104,0.006592,-0.098024,0.977066
1569,-12.390326,4.638743,4.699779,-0.000732,-0.094362,0.973648
1570,-15.381094,3.723201,3.906310,-0.005493,-0.078859,0.971328
1571,-20.508125,2.380407,2.929732,-0.004517,-0.072877,0.960830
1572,-26.123445,1.403830,2.014191,-0.009888,-0.086427,0.975113
1573,-31.494621,0.610361,1.464866,-0.011597,-0.099489,0.956435
1574,-35.523003,0.488289,0.854505,0.018555,-0.127321,1.002945
1575,-38.147555,2.807660,1.037613,0.020386,-0.156374,1.047868
1576,-35.767147,3.967346,2.441444,0.022583,-0.187137,0.998306
1577,-28.198672,7.751583,2.685588,0.054932,-0.159792,0.986831
1578,-31.555657,4.638743,4.394598,-0.017700,-0.188602,0.929580
1579,-30.945296,7.080186,6.225681,-0.003418,-0.157351,1.050187
1580,-27.100023,8.239872,3.479057,0.001343,-0.186160,0.989883
1581,-26.123445,6.103609,0.854505,-0.038209,-0.190799,1.015640
1582,-23.865110,3.356985,-2.746624,-0.015015,-0.206912,0.997086
1583,-16.479744,0.061036,-6.347753,-0.016114,-0.197024,1.028336
1584,-16.601816,-2.075227,-9.277485,0.016236,-0.177127,1.025528
1585,-17.639429,-0.427253,-8.361944,0.032837,-0.182986,1.005142
1586,-23.193713,2.197299,-5.371176,-0.022827,-0.109377,0.970352
1587,-27.161059,1.403830,-9.277485,0.013550,-0.012818,0.799695
1588,-52.613108,-0.732433,-14.465553,0.040406,-0.010864,0.921767
1589,-61.158160,3.967346,-21.484703,-0.108156,0.229618,0.961807
1590,-120.363165,-4.089418,-36.011292,0.053346,0.116701,0.840101
1591,-154.665446,1.281758,-25.574121,0.074708,0.510384,1.207172
1592,-277.653162,-6.897078,-37.476158,-0.065675,0.327153,1.140764
1593,-423.163195,-1.281758,-19.714656,-0.116579,0.075441,0.918715
1594,-504.890517,-19.653620,14.892805,-0.176028,-0.140871,1.606958
1595,-523.811704,-66.773480,16.235599,-0.153201,-0.346807,0.872206
1596,-592.172122,-93.507286,42.359045,-0.156497,-0.250004,0.913588
1597,-634.042878,-126.588846,66.590372,-0.155032,-0.851209,1.945464
1598,-641.794461,-89.295796,156.923781,-0.830335,-0.183108,1.999969
1599,-149.111162,-114.076448,46.509499,-0.548959,-0.673716,1.999969
1600,213.260090,-54.749371,-28.381781,0.060792,0.749035,1.999969
1601,164.492256,-19.226368,-21.118486,0.087404,0.288090,1.148577
1602,2.441444,15.869383,12.085145,-0.067872,0.403693,0.653208
1603,37.720302,27.954528,5.493248,-0.040406,-0.155154,0.346319
1604,110.414282,28.259709,-7.080186,-0.050050,0.004883,-0.078004
1605,55.115587,6.042573,-4.394598,-0.072877,0.066773,0.056275
1606,42.481117,-14.648661,-1.525902,-0.089479,-0.082521,0.427253
1607,85.999847,-31.250477,-5.737392,-0.106203,0.063966,0.704356
1608,90.150301,-35.461967,-7.812619,-0.126101,0.104372,0.896010
1609,104.432746,-26.489662,-12.207218,-0.148928,-0.011963,0.997696
1610,136.842908,-8.422980,-17.944610,-0.205570,-0.072999,0.893202
1611,146.059358,9.399557,-19.165332,-0.273320,-0.177127,0.750256
1612,154.787518,19.958801,-15.075914,-0.316777,-0.279667,0.774670
1613,170.840009,21.667811,-8.789197,-0.306645,-0.281376,0.909804
1614,185.854887,23.498894,-1.892119,-0.229984,-0.306523,0.996719
1615,203.677424,32.837415,1.464866,-0.136965,-0.372198,0.994766
1616,216.067750,48.767834,2.990768,-0.096559,-0.473152,0.846326
1617,222.049287,63.660639,5.371176,-0.112551,-0.575448,0.648814
1618,220.767529,69.947356,11.291676,-0.118166,-0.639536,0.564706
1619,214.114595,69.031815,20.630198,-0.095094,-0.668956,0.610971
1620,208.499275,62.378882,31.860838,-0.059327,-0.684337,0.833143
1621,207.278553,52.063783,42.603189,-0.001953,-0.716686,1.008560
1622,213.687343,42.481117,50.415808,0.057984,-0.714977,1.140764
1623,216.617075,36.133364,54.932479,0.139162,-0.705699,1.305928
1624,217.288472,35.584039,57.129778,0.220340,-0.723766,1.553368
1625,225.528344,37.598230,55.298695,0.286259,-0.864759,1.596338
1626,238.712139,38.086519,50.659953,0.318486,-1.017960,1.380148
1627,241.947051,34.729534,46.509499,0.368658,-1.097185,1.052995
1628,225.528344,25.268940,42.664225,0.404059,-1.127459,0.816541
1629,201.358053,13.611048,38.208591,0.398566,-1.098405,0.720958
1630,180.605783,0.000000,32.227054,0.373297,-0.962661,0.759045
1631,157.656214,-10.742351,24.902724,0.323369,-0.802869,0.841199
1632,135.378042,-16.662852,16.968032,0.213993,-0.681163,0.919448
1633,118.410010,-21.545739,9.033341,0.076539,-0.569100,1.042863
1634,102.113375,-24.109255,2.380407,-0.042359,-0.544564,1.197040
1635,83.497368,-25.146868,-3.601129,-0.122072,-0.706188,1.284443
1636,77.454795,-20.752270,-10.925460,-0.091310,-0.874891,1.097795
1637,67.139696,-12.451362,-19.714656,-0.086671,-0.974258,0.859388
1638,35.950256,3.479057,-26.794842,-0.163699,-1.195453,0.646738
1639,-90.150301,4.028382,-28.931106,-0.338262,-1.938018,-0.553109
1640,-202.456703,-100.465400,31.982910,-1.235370,-1.910063,0.447395
1641,-382.452125,-95.643549,16.662852,1.927153,-1.313619,1.999969
1642,58.045319,13.183795,3.356985,0.528206,-1.444358,1.999969
1643,401.495384,40.833143,-60.181582,0.006470,0.504768,-1.266133
1644,93.507286,4.882887,-1.709010,-0.462165,1.477928,-0.862440
1645,-223.453117,-29.724575,6.591897,0.013428,-0.005737,0.205692
1646,-173.647669,-18.066682,21.240558,0.158938,-0.239017,1.702174
1647,-51.392386,-17.273213,-2.136263,-0.077394,-0.422736,1.748318
1648,8.117800,-13.000687,-1.220722,0.081422,-0.065675,1.187152
1649,-3.845274,-4.333562,3.234913,0.139528,0.121950,0.872938
1650,-27.771420,-1.098650,5.004959,-0.125246,0.134524,0.824842
1651,-38.941024,-13.000687,2.136263,-0.094240,0.025147,0.936904
1652,-38.452735,-17.029068,0.305180,0.022217,-0.026612,1.193256
1653,-27.222095,-9.582666,0.915541,0.023316,-0.046143,1.055558
1654,-23.620966,-8.239872,1.037613,0.012207,-0.018799,1.043351
1655,-20.386053,-7.446403,0.732433,-0.005615,0.003906,0.983413
1656,-22.156100,-8.422980,0.000000,-0.020996,-0.000732,1.001602
1657,-23.498894,-9.521630,0.000000,0.024659,-0.051514,1.052384
1658,-16.296635,-7.080186,0.366217,0.044923,-0.043458,1.066423
1659,-12.634470,-4.211490,0.854505,0.023926,-0.033448,1.031266
1660,-10.986496,-3.356985,0.915541,0.012207,-0.019409,1.026017
1661,-11.413748,-2.746624,0.549325,0.024048,-0.037476,1.043229
1662,-7.751583,-1.159686,0.854505,0.018555,-0.047120,1.047990
1663,-2.868696,0.000000,0.854505,0.006104,-0.011597,0.968276
1664,-6.591897,-1.220722,1.159686,-0.007813,0.018921,0.924208
1665,-15.075914,-3.356985,1.159686,-0.005371,0.002686,0.948501
1666,-17.578393,-4.882887,0.915541,0.011475,-0.021851,0.988540
1667,-16.906996,-4.882887,0.732433,0.014282,-0.030274,1.001968
1668,-15.869383,-4.882887,0.671397,0.024170,-0.034791,1.012467
1669,-14.953841,-4.455634,0.427253,0.018921,-0.040894,1.016739
1670,-14.160372,-4.333562,0.061036,0.032349,-0.046998,1.019669
1671,-12.207218,-3.845274,0.000000,0.016602,-0.055665,1.034684
1672,-9.765774,-3.112840,0.122072,0.032105,-0.068605,1.059464
1673,-4.699779,-2.014191,0.183108,0.014649,-0.062013,1.010269
1674,-1.892119,-2.258335,0.183108,0.010864,-0.010010,0.943496
1675,-10.559243,-3.723201,0.244144,-0.002197,-0.015137,0.953872
1676,-13.244831,-5.249104,-0.122072,0.014649,-0.040772,0.988907
1677,-11.963073,-5.432212,-0.488289,0.027222,-0.042969,1.008316
1678,-13.000687,-4.760815,-0.610361,0.026856,-0.066163,1.025162
1679,-8.484016,-3.601129,-0.549325,0.033448,-0.062379,1.039689
1680,-7.080186,-2.319371,-0.488289,0.033936,-0.058106,1.030411
1681,-5.737392,-1.342794,-0.366217,0.032227,-0.065553,1.033951
1682,-3.051804,0.000000,-0.122072,0.038331,-0.070680,1.039322
1683,-0.854505,1.098650,-0.122072,0.026246,-0.073121,1.027726
1684,2.197299,1.403830,-0.305180,0.023194,-0.056886,1.000748
1685,1.525902,1.342794,-0.122072,0.016480,-0.047974,0.991104
1686,0.549325,0.915541,-0.122072,0.013428,-0.047242,0.981094
1687,0.000000,0.488289,-0.122072,0.019776,-0.041382,0.987442
1688,-2.197299,-0.183108,-0.183108,0.018799,-0.049805,0.992813
1689,-1.770047,-0.427253,-0.244144,0.023804,-0.052979,0.993179
1690,-1.892119,-0.366217,-0.122072,0.026612,-0.051026,1.003067
1691,-2.807660,-0.305180,-0.183108,0.026734,-0.059205,1.009659
1692,-1.037613,0.000000,-0.366217,0.024048,-0.054200,1.001724
1693,-1.403830,0.366217,-0.244144,0.028565,-0.061769,1.010513
1694,0.000000,0.793469,0.061036,0.021363,-0.061280,1.008682
1695,0.366217,0.915541,0.183108,0.017945,-0.050172,0.993912
1696,0.488289,0.854505,0.244144,0.020020,-0.049561,1.006851
1697,0.671397,0.732433,0.244144,0.015747,-0.050416,0.996597
1698,0.671397,0.549325,0.305180,0.019165,-0.040528,0.982193
1699,-0.549325,-0.061036,0.122072,0.010742,-0.042725,0.981582
1700,-2.258335,-0.549325,0.122072,0.030640,-0.051881,0.997086
1701,-1.525902,-0.366217,0.122072,0.022095,-0.052491,0.993057
1702,-2.258335,-0.183108,0.183108,0.021729,-0.049561,0.998306
1703,-2.075227,0.122072,0.183108,0.019654,-0.058717,1.005997
1704,-0.976577,0.305180,0.183108,0.026123,-0.054322,1.010880
1705,-0.854505,0.488289,0.183108,0.022095,-0.062745,1.005753
1706,0.122072,0.549325,0.244144,0.021607,-0.055665,1.003555
1707,0.244144,0.732433,0.244144,0.022217,-0.052857,1.007950
1708,0.427253,0.854505,0.305180,0.024414,-0.054932,1.003922
1709,1.159686,1.342794,0.183108,0.023072,-0.051392,1.010025
1710,0.976577,1.403830,0.122072,0.029297,-0.046876,1.009171
1711,1.586938,1.770047,0.122072,0.020630,-0.057374,1.011246
1712,2.441444,2.014191,0.183108,0.018677,-0.040528,0.993423
1713,0.549325,1.892119,0.183108,0.021118,-0.045655,0.993912
1714,1.037613,1.586938,0.183108,0.018311,-0.043458,0.989029
1715,0.427253,1.586938,0.244144,0.023316,-0.043946,0.987930
1716,-0.610361,1.281758,0.244144,0.011109,-0.052125,1.003922
1717,1.098650,1.403830,0.244144,0.018921,-0.041749,1.000748
1718,-0.305180,0.915541,0.122072,0.021729,-0.053468,1.002579
1719,1.342794,1.159686,-0.122072,0.017456,-0.049805,1.004288
1720,1.159686,0.976577,0.000000,0.019287,-0.043336,1.004532
1721,1.220722,0.976577,-0.122072,0.015747,-0.045655,1.001724
1722,0.976577,1.037613,0.000000,0.020020,-0.051514,1.006119
1723,1.770047,1.220722,0.000000,0.024903,-0.045777,1.000870
1724,2.075227,1.342794,-0.122072,0.014771,-0.046265,0.985855
1725,1.037613,0.915541,0.000000,0.014527,-0.035523,0.987198
1726,-0.793469,0.488289,0.122072,0.012085,-0.041138,0.993912
1727,-0.244144,0.000000,0.122072,0.019409,-0.042847,0.987686
1728,-1.525902,-0.061036,0.000000,0.021851,-0.043458,0.992325
1729,-2.136263,-0.183108,0.061036,0.015869,-0.049439,1.008927
1730,-0.305180,0.000000,0.000000,0.019898,-0.047120,1.003555
1731,-0.976577,0.000000,0.000000,0.012818,-0.040772,0.993423
1732,-0.854505,-0.061036,-0.122072,0.020386,-0.048951,1.012345
1733,0.305180,0.244144,0.000000,0.017945,-0.046876,1.008438
1734,0.366217,0.244144,-0.183108,0.018555,-0.043336,1.007706
1735,0.549325,0.366217,-0.305180,0.018311,-0.045777,1.006607
1736,0.854505,0.427253,-0.183108,0.020996,-0.043702,1.007706
1737,1.525902,0.732433,-0.122072,0.018311,-0.043946,1.002335
1738,1.525902,0.671397,0.000000,0.013550,-0.040650,0.991592
1739,0.488289,0.427253,0.000000,0.010010,-0.038941,0.991714
1740,0.061036,0.183108,0.122072,0.018555,-0.037842,0.998917
1741,-0.061036,0.000000,0.122072,0.013306,-0.040528,0.997696
1742,-0.610361,-0.366217,0.061036,0.021363,-0.041749,1.000626
1743,-0.793469,-0.488289,0.000000,0.021363,-0.045167,1.008560
1744,-0.427253,-0.183108,-0.183108,0.018677,-0.047974,1.024186
1745,0.366217,0.122072,-0.183108,0.024903,-0.052125,1.011124
1746,1.220722,0.671397,-0.244144,0.022583,-0.039063,1.009903
1747,1.159686,0.793469,-0.366217,0.026490,-0.045167,1.016251
1748,2.441444,1.342794,-0.427253,0.018921,-0.043091,1.005631
1749,3.234913,1.342794,-0.366217,0.016236,-0.043336,0.996597
1750,3.051804,1.342794,-0.427253,0.012696,-0.042847,1.000748
1751,3.112840,1.342794,-0.488289,0.015625,-0.036133,0.992691
1752,2.380407,1.098650,-0.549325,0.018799,-0.031861,0.994888
1753,2.014191,1.464866,-0.305180,0.015503,-0.041138,1.002213
1754,2.380407,1.770047,-0.183108,0.011841,-0.031617,1.004898
1755,2.197299,1.770047,0.000000,0.011841,-0.033326,0.998550
1756,2.075227,1.342794,0.000000,0.012329,-0.038697,1.008682
1757,2.990768,1.342794,-0.305180,0.012451,-0.037720,0.998672
1758,2.685588,0.671397,-0.427253,0.011231,-0.033082,1.001846
1759,2.990768,0.854505,-0.671397,0.018067,-0.035523,1.002090
1760,3.234913,0.793469,-0.854505,0.021607,-0.033814,1.003677
1761,2.990768,1.159686,-0.854505,0.021851,-0.040650,1.012711
1762,4.577707,1.770047,-0.793469,0.018799,-0.040772,1.006607
1763,5.004959,1.770047,-0.610361,0.009888,-0.025147,0.997940
1764,4.577707,1.709010,-0.671397,0.006592,-0.030274,0.991836
1765,4.333562,1.342794,-0.793469,0.012085,-0.027710,0.995499
1766,4.028382,0.915541,-0.854505,0.008301,-0.023560,0.991104
1767,3.601129,0.427253,-1.037613,0.006958,-0.034058,1.001480
1768,4.028382,0.244144,-1.281758,0.013672,-0.027222,1.005875
1769,4.577707,0.549325,-1.403830,0.019776,-0.029297,1.004532
1770,4.028382,1.037613,-1.281758,0.016602,-0.033448,1.016617
1771,5.432212,1.831083,-1.098650,0.020020,-0.031373,1.016617
1772,6.958114,2.746624,-0.732433,0.012085,-0.026856,1.009293
1773,6.713970,2.990768,-0.427253,0.007446,-0.026978,1.009293
1774,7.507439,3.234913,-0.427253,0.009155,-0.020996,1.003433
1775,7.568475,2.929732,-0.488289,0.004883,-0.015625,0.998795
1776,7.507439,2.685588,-0.366217,0.009277,-0.016968,1.005142
1777,7.690547,2.502480,-0.549325,0.008423,-0.013672,0.994644
1778,7.934691,2.502480,-0.427253,0.007080,-0.010010,0.994888
1779,7.141222,2.319371,-0.244144,0.008545,-0.004639,0.981460
1780,6.103609,2.075227,-0.122072,-0.000244,0.000610,0.972671
1781,4.394598,1.037613,-0.244144,-0.003662,-0.005127,1.003677
1782,4.821851,1.037613,-0.244144,0.010132,-0.012207,1.002945
1783,5.798428,1.403830,-0.549325,0.016480,-0.008545,1.007340
1784,5.432212,1.709010,-0.549325,0.014405,-0.012329,1.016251
1785,6.103609,2.929732,0.000000,0.025879,-0.018433,1.022843
1786,7.629511,4.272526,0.488289,0.015137,-0.013916,1.014420
1787,8.056764,4.455634,0.671397,0.000244,-0.006836,1.004654
1788,10.070954,4.028382,0.122072,0.004517,0.004273,1.006485
1789,10.376135,3.662165,-0.366217,0.003174,0.008301,0.985122
1790,9.582666,3.356985,-0.366217,-0.008423,0.020020,0.926284
1791,5.554284,2.319371,-0.549325,-0.011597,0.044434,0.945815
1792,-0.732433,1.281758,-0.366217,-0.000855,0.021485,0.966934
1793,-0.061036,0.427253,-1.098650,-0.010742,0.031495,0.930556
1794,-5.920500,-1.709010,-1.342794,0.010742,0.007080,0.997086
1795,-7.568475,-0.732433,-0.854505,0.050416,-0.050660,1.080949
1796,3.112840,3.234913,-0.183108,0.036866,-0.025025,1.051652
1797,4.028382,5.371176,0.549325,-0.010742,-0.001831,1.001358
1798,5.249104,3.723201,0.366217,-0.041505,0.017212,0.939223
1799,2.685588,0.366217,-0.427253,-0.012329,0.023316,0.938613
1800,-0.061036,-2.136263,-0.915541,-0.015137,0.028321,0.942641
1801,-2.075227,-4.516670,-1.770047,-0.011475,0.041260,0.932387
1802,-8.178836,-5.981537,-1.770047,0.032959,0.010742,0.970962
1803,-8.178836,-4.028382,-1.586938,0.033204,0.003540,0.999161
1804,-7.202258,-1.037613,-0.549325,0.041627,0.010376,0.998306
1805,-10.070954,2.197299,1.098650,-0.001343,0.001465,1.009049
1806,-9.704738,2.746624,1.892119,-0.014160,-0.014771,0.998917
1807,-8.239872,2.075227,1.892119,-0.000610,-0.022095,1.035660
1808,-8.178836,0.732433,2.380407,0.038209,0.014893,1.075334
1809,-5.249104,-1.281758,-0.976577,-0.022583,-0.044434,0.987686
1810,-2.807660,0.122072,1.342794,-0.008423,-0.040284,1.014664
1811,7.263294,0.122072,0.488289,-0.001953,0.022339,1.016373
1812,-2.075227,-1.709010,0.305180,-0.017456,0.004150,0.978897
1813,-1.220722,-2.441444,-0.549325,0.020386,-0.015503,1.014786
1814,1.281758,-0.610361,-0.549325,0.012207,0.004028,1.030045
1815,0.793469,0.671397,-0.244144,0.001343,-0.005982,0.997208
1816,4.821851,0.427253,-0.366217,0.009888,-0.015625,1.027726
1817,2.014191,0.549325,-0.244144,0.027100,-0.008789,1.018814
1818,3.906310,1.342794,-0.915541,0.008057,0.001953,1.006851
1819,2.258335,0.976577,-2.014191,0.008423,0.009522,1.010513
1820,0.305180,1.342794,-2.258335,0.000610,0.003418,0.995621
1821,2.685588,1.647974,-2.258335,-0.022095,0.028199,0.953017
1822,-0.671397,0.244144,-2.014191,-0.023194,0.027710,0.939956
1823,-6.225681,-2.258335,-1.770047,-0.005737,-0.000244,0.998795
1824,-1.464866,-3.112840,-2.319371,0.003418,-0.002686,1.010147
1825,0.244144,-2.990768,-1.709010,-0.017945,-0.019776,0.996475
1826,4.699779,-4.211490,-1.281758,0.061036,-0.032959,1.065324
1827,8.667124,-0.427253,-0.549325,0.005615,-0.017578,1.012345
1828,11.841001,0.244144,0.000000,-0.002441,0.030884,0.962783
1829,6.347753,0.122072,0.122072,0.008667,0.011597,0.989151
1830,5.493248,0.366217,0.000000,0.023804,-0.004028,1.012589
1831,7.934691,2.014191,0.488289,0.002197,0.016724,0.978408
1832,6.286717,1.220722,0.854505,-0.034424,0.021363,0.965713
1833,5.004959,-0.427253,0.915541,-0.007568,0.005249,0.997086
1834,6.530861,-0.793469,1.464866,-0.028687,0.020508,0.970718
1835,6.225681,-3.479057,0.915541,-0.041993,0.023194,0.931289
1836,2.380407,-8.056764,-1.098650,-0.032471,0.036744,0.947402
1837,-2.075227,-13.183795,-2.929732,-0.010010,-0.005005,0.993179
1838,3.967346,-14.648661,-3.906310,0.053101,0.007568,1.007584
1839,6.408789,-11.291676,-3.601129,0.079469,0.039307,1.008927
1840,0.854505,-5.432212,-2.502480,0.076783,0.012329,1.031876
1841,0.000000,-0.183108,0.122072,0.033448,0.010986,1.024796
1842,1.525902,2.319371,0.671397,0.016480,0.042237,0.988174
1843,-0.427253,1.403830,1.098650,-0.005615,0.030274,0.964981
1844,-0.061036,-0.366217,-0.854505,-0.000122,0.056397,0.961563
1845,-5.981537,-3.418021,-3.051804,-0.028077,0.039185,0.932265
1846,-9.277485,-7.385367,-5.127031,0.017945,0.020386,1.020279
1847,-8.117800,-7.934691,-6.164645,0.024659,-0.013062,1.017960
1848,-4.638743,-5.615320,-4.333562,0.057374,-0.014282,1.030900
1849,-1.464866,-2.319371,-2.685588,0.037354,-0.001709,1.021012
1850,-0.488289,0.000000,-1.464866,0.033692,0.016846,1.020401
1851,-1.647974,1.525902,-1.037613,0.040040,0.011841,1.031632
1852,-1.525902,3.295949,-0.854505,0.023316,0.013794,0.998917
1853,-0.549325,4.089418,-0.122072,0.012451,0.007324,1.003067
1854,0.183108,4.882887,0.915541,0.005859,0.016968,0.968521
1855,0.244144,4.882887,1.403830,0.011841,0.007935,0.985611
1856,1.403830,4.272526,0.793469,0.002075,0.010010,0.983047
1857,1.647974,2.929732,0.000000,0.013794,0.016114,0.989151
1858,1.770047,1.709010,-1.159686,0.003174,0.021851,0.989151
1859,2.807660,-0.305180,-4.089418,0.007568,0.028931,1.002945
1860,2.136263,-0.976577,-6.958114,0.004395,0.046754,0.985733
1861,3.967346,-2.075227,-10.193027,0.005005,-0.022339,0.995132
1862,1.342794,-0.671397,-5.737392,0.028077,0.003540,1.011368
1863,-0.061036,1.098650,-1.525902,0.012207,0.011719,0.992935
1864,-0.549325,0.671397,0.488289,0.003052,0.006348,0.978164
1865,2.868696,0.122072,0.793469,-0.001099,0.012085,0.978164
1866,4.211490,-0.732433,0.366217,-0.013428,0.039429,0.968154
1867,-0.244144,-2.807660,-0.610361,-0.016846,0.038819,0.963638
1868,-2.075227,-6.164645,-3.418021,0.003418,0.027222,0.990982
1869,-1.281758,-7.507439,-6.042573,0.037964,0.019043,0.957168
1870,-1.770047,-7.629511,-7.385367,0.019165,0.020020,0.995010
1871,-2.746624,-5.859464,-6.103609,0.037232,0.012696,1.003922
1872,-4.638743,-2.441444,-2.197299,0.022217,0.005615,1.009659
1873,-3.906310,-0.305180,0.549325,0.028687,0.007568,1.012222
1874,-2.197299,1.037613,1.770047,0.020874,0.023804,1.005020
1875,-1.953155,1.586938,1.647974,0.024292,0.010010,0.981704
1876,0.000000,1.525902,2.563516,0.020142,0.000488,0.983413
1877,11.963073,7.019150,8.850233,0.052003,-0.037598,0.986343
1878,24.902724,4.577707,8.850233,0.011597,0.087892,0.964370
1879,11.841001,0.793469,5.065995,-0.009644,0.010864,1.012833
1880,13.183795,0.732433,5.371176,0.000977,0.038575,0.979019
1881,8.300908,0.671397,5.920500,0.017945,0.028321,1.017350
1882,7.019150,2.014191,5.432212,0.008667,0.037354,0.978042
1883,5.371176,1.037613,3.906310,0.016968,0.044556,0.987808
1884,2.197299,0.732433,2.014191,0.013916,0.059449,0.999771
1885,-1.709010,0.061036,1.464866,0.018555,0.028199,0.996231
1886,-1.647974,0.122072,0.915541,0.021485,0.035401,1.002945
1887,-4.211490,0.366217,0.854505,0.017700,0.030274,1.016373
1888,-7.019150,1.281758,0.671397,0.016236,0.035645,1.018936
1889,-10.131991,1.953155,0.366217,0.018555,0.034058,1.003067
1890,-12.939651,2.136263,0.244144,0.002441,0.037354,0.994644
1891,-13.855192,1.464866,0.000000,0.011963,0.020874,0.986709
1892,-13.305867,1.953155,-0.244144,0.016724,0.028687,0.995132
1893,-14.160372,2.441444,-0.305180,0.022583,0.054810,1.038346
1894,-14.099336,2.441444,-0.122072,0.024781,0.003540,1.010513
1895,-7.141222,2.685588,-0.610361,0.021363,0.013062,0.987442
1896,-7.202258,3.295949,0.000000,0.009888,0.033692,0.991470
1897,-6.591897,3.295949,-0.427253,0.007080,0.032349,1.028824
1898,-6.103609,3.601129,-0.732433,0.072511,-0.006470,0.961563
1899,-8.361944,4.089418,0.000000,0.011353,-0.018677,0.949844
1900,-1.647974,2.624552,-0.244144,-0.000366,0.045655,1.011246
1901,-4.333562,2.868696,-0.671397,0.004028,-0.021851,0.980240
1902,-3.173877,1.953155,-0.488289,0.035279,-0.052369,0.925307
1903,4.821851,0.915541,2.258335,-0.001953,0.081666,1.078386
1904,-4.638743,0.366217,2.014191,0.028443,-0.005737,0.969619
