Packet number,Gyroscope X (deg/s),Gyroscope Y (deg/s),Gyroscope Z (deg/s),Accelerometer X (g),Accelerometer Y (g),Accelerometer Z (g)
0,-0.793469,-0.244144,0.000000,-0.001587,0.006470,1.004898
1,-0.854505,-0.366217,-0.122072,0.004273,0.004150,0.992935
2,-0.793469,-0.427253,-0.183108,0.000977,0.002930,1.005753
3,-0.488289,-0.549325,0.000000,-0.002075,0.005005,0.991836
4,-0.671397,-0.427253,-0.122072,-0.005249,0.001709,1.006729
5,-0.549325,-0.488289,0.000000,-0.000977,0.000732,1.005509
6,-0.671397,-0.305180,0.000000,0.000488,0.006470,1.003799
7,-1.037613,-0.366217,0.122072,-0.000732,0.000122,0.999161
8,-0.854505,-0.061036,0.061036,-0.001099,0.005493,0.999161
9,-1.281758,0.000000,0.122072,0.002808,0.001831,0.997574
10,-1.098650,-0.061036,0.122072,-0.007691,-0.001099,0.997818
11,-0.488289,0.183108,0.000000,0.005249,0.005493,0.996231
12,-1.525902,-0.061036,0.000000,0.003418,-0.001953,1.009537
13,-0.427253,-0.061036,0.000000,0.004273,0.001709,1.001114
14,-0.793469,-0.061036,0.061036,-0.004273,0.008301,0.998917
15,-0.610361,-0.183108,0.000000,-0.001343,0.004028,0.992447
16,-0.671397,-0.427253,0.000000,-0.003540,0.008301,1.000870
17,-0.793469,-0.427253,0.000000,-0.004273,0.003784,0.999771
18,-0.732433,-0.488289,-0.183108,-0.001953,0.003296,1.001968
19,-0.976577,-0.549325,-0.122072,0.000366,0.004761,0.999405
20,-0.976577,-0.427253,-0.122072,0.001343,0.006836,0.995987
21,-0.854505,-0.427253,0.000000,0.005005,0.005859,0.999161
22,-1.403830,-0.366217,0.000000,-0.004273,0.003540,1.000137
23,-0.915541,-0.305180,0.000000,-0.000977,-0.002441,1.004532
24,-0.915541,-0.061036,0.061036,-0.003296,0.003784,1.002090
25,-0.671397,0.061036,0.000000,0.000610,0.005493,1.006485
26,-0.793469,-0.244144,0.061036,-0.001831,0.003296,1.002457
27,-0.305180,-0.061036,0.061036,0.000732,0.006592,0.988663
28,-0.671397,-0.244144,0.000000,-0.003174,-0.000366,0.997696
29,-0.610361,-0.366217,0.000000,0.000366,0.003662,1.000259
30,-0.671397,-0.427253,-0.122072,-0.004028,0.007691,1.000381
31,-0.793469,-0.488289,-0.122072,-0.003052,-0.001221,1.005875
32,-0.427253,-0.305180,-0.122072,-0.005615,-0.004883,0.976822
33,-0.366217,-0.366217,-0.122072,0.003296,0.015991,0.992691
34,-1.159686,-0.305180,0.000000,0.000488,0.000244,1.004776
35,-0.732433,-0.305180,0.000000,0.003906,0.008057,0.998550
36,-1.098650,-0.244144,0.000000,-0.001831,0.006958,0.997208
37,-1.098650,-0.183108,0.061036,-0.004517,0.001587,1.001480
38,-1.037613,-0.305180,0.000000,0.001343,0.003174,0.999283
39,-1.098650,-0.183108,0.000000,0.005982,0.002441,0.999527
40,-0.915541,-0.305180,0.000000,-0.001099,0.002564,0.998428
41,-0.793469,-0.305180,0.000000,0.002686,0.001953,1.003677
42,-0.427253,-0.305180,0.000000,0.002319,0.006104,1.003433
43,-0.488289,-0.244144,-0.122072,0.004028,0.004639,1.000259
44,-0.488289,-0.244144,0.000000,-0.005249,0.006958,0.997574
45,-0.549325,-0.427253,-0.122072,-0.003296,0.003784,0.998672
46,-0.610361,-0.366217,-0.244144,0.001465,0.001221,0.992325
47,-0.549325,-0.305180,-0.244144,-0.001221,0.005371,1.001968
48,-0.488289,-0.366217,-0.183108,-0.001221,0.003662,0.999161
49,-0.366217,-0.305180,-0.122072,-0.000366,0.001587,0.993301
50,-0.488289,-0.183108,0.000000,0.002197,-0.005371,1.011612
51,0.854505,0.244144,0.000000,0.002808,0.007813,1.002457
52,-0.244144,0.061036,0.244144,0.004639,-0.008423,1.000504
53,1.709010,0.244144,0.000000,0.000366,-0.000977,1.011368
54,1.342794,0.244144,0.000000,-0.003052,-0.006104,1.024552
55,3.418021,0.671397,0.000000,-0.002686,-0.013916,1.026017
56,5.371176,0.732433,0.061036,-0.004395,-0.000977,0.985733
57,5.493248,0.427253,-0.183108,-0.009522,0.041382,0.956313
58,0.366217,-0.976577,-0.183108,-0.024170,0.016846,0.963516
59,0.061036,-1.831083,-0.305180,0.010498,0.012085,0.988418
60,-0.854505,-1.403830,-0.366217,-0.006226,0.018677,0.986343
61,-1.586938,-1.342794,-0.366217,0.001709,0.013794,0.997940
62,-1.770047,-1.159686,0.061036,-0.001221,-0.003540,1.014054
63,-0.183108,-0.732433,0.000000,0.008789,0.010742,1.000137
64,-1.281758,-0.671397,0.183108,0.000000,0.003784,0.997940
65,0.000000,-0.366217,0.000000,-0.007202,0.013550,1.004166
66,-0.671397,-0.793469,0.000000,-0.004150,0.012573,0.987076
67,-0.610361,-1.159686,-0.305180,-0.006104,0.005493,1.001724
68,-0.244144,-1.098650,-0.305180,0.000855,0.006104,1.006851
69,-0.305180,-0.976577,-0.305180,-0.007691,0.003052,1.000015
70,0.610361,-1.037613,-0.244144,0.015503,0.008545,1.005386
71,0.000000,-0.244144,0.000000,0.002319,0.000488,1.013443
72,1.709010,0.000000,0.000000,0.002686,-0.002441,1.012467
73,2.563516,0.122072,0.061036,0.013184,0.010742,1.003189
74,2.807660,0.427253,0.122072,0.009400,0.000488,1.028702
75,5.249104,0.793469,0.061036,0.001587,0.005737,1.006607
76,5.065995,0.793469,0.000000,0.008545,0.009766,1.036515
77,7.263294,1.098650,-0.122072,-0.005615,0.006348,1.001114
78,6.286717,1.037613,0.061036,-0.003540,0.021485,0.992081
79,6.347753,0.854505,-0.122072,-0.006104,0.023316,0.990616
80,5.004959,0.305180,-0.244144,-0.011597,0.019165,0.984390
81,4.699779,-0.183108,-0.244144,-0.002808,0.018433,0.990982
82,4.272526,-0.427253,-0.244144,-0.007080,0.018555,0.993545
83,4.028382,-0.610361,-0.244144,-0.001465,0.023926,0.989273
84,3.418021,-0.732433,-0.122072,-0.000977,0.025513,0.986954
85,3.418021,-1.281758,-0.244144,-0.006714,0.037476,0.943496
86,0.610361,-1.892119,-0.366217,0.001465,0.042847,0.966079
87,-2.075227,-2.380407,-0.305180,0.000000,0.021851,0.987808
88,-0.305180,-2.441444,-0.915541,-0.023194,0.072755,0.939834
89,-8.667124,-3.784237,-0.122072,0.015381,0.017090,0.988418
90,-5.554284,-2.258335,0.000000,0.009155,0.004761,1.024063
91,-4.577707,-1.342794,0.488289,0.014282,0.015625,1.018692
92,-3.906310,-0.671397,0.549325,0.002441,0.006470,1.013931
93,-2.746624,-0.732433,0.305180,0.004150,0.016358,1.006241
94,-2.502480,-0.549325,0.366217,-0.017456,0.019532,0.944961
95,-3.906310,-1.586938,0.305180,-0.013184,0.050904,0.934096
96,-8.728161,-3.234913,0.366217,-0.015869,0.032593,0.914931
97,-10.009918,-4.577707,0.549325,0.003906,0.080568,0.865370
98,-22.156100,-6.652934,1.464866,-0.011841,0.063966,0.936049
99,-26.428626,-8.056764,1.586938,0.013794,-0.016602,1.033585
100,-21.972992,-6.225681,1.403830,0.033204,-0.033692,1.084123
101,-18.982223,-4.577707,2.197299,0.023438,-0.041138,1.057389
102,-14.282444,-2.563516,2.380407,0.016602,-0.021607,1.049210
103,-12.329290,-1.892119,2.258335,0.004517,-0.020508,1.029801
104,-9.033341,-2.014191,1.403830,0.002930,-0.012940,1.008316
105,-8.239872,-2.990768,0.915541,-0.005493,-0.000244,0.982193
106,-9.460594,-4.272526,0.549325,0.005127,-0.000488,0.980972
107,-9.948882,-5.249104,0.000000,0.000732,-0.002441,0.980362
108,-11.352712,-5.371176,0.000000,0.013794,-0.012329,1.000137
109,-10.864424,-5.127031,0.366217,0.015625,0.003540,0.986465
110,-13.672084,-4.821851,0.854505,0.017823,-0.019409,1.017350
111,-12.085145,-3.723201,1.342794,0.034058,-0.039673,1.024186
112,-10.009918,-2.380407,1.403830,0.028565,-0.025635,1.025895
113,-9.826810,-1.525902,1.586938,0.013916,-0.031128,1.025650
114,-7.873655,-1.281758,1.403830,0.016236,-0.027710,1.013077
115,-7.446403,-1.525902,1.098650,0.008911,-0.023682,0.990494
116,-6.897078,-2.319371,0.549325,0.008545,-0.016602,0.993057
117,-8.484016,-3.418021,0.183108,-0.002930,-0.022583,0.990127
118,-8.484016,-4.211490,0.000000,0.008057,-0.030640,0.995132
119,-8.239872,-4.333562,0.061036,0.027710,-0.040650,1.018326
120,-7.507439,-3.173877,0.183108,0.019287,-0.042847,1.011002
121,-6.347753,-2.319371,0.488289,0.027466,-0.039063,1.026505
122,-5.127031,-1.159686,0.793469,0.033570,-0.044312,1.023453
123,-4.028382,-0.244144,0.976577,0.025391,-0.034791,1.017960
124,-3.540093,0.061036,0.854505,0.014282,-0.030396,1.003311
125,-3.356985,-0.305180,0.549325,0.010254,-0.032227,1.000748
126,-3.662165,-0.793469,0.305180,0.012085,-0.044678,1.002945
127,-2.563516,-0.915541,0.122072,0.020386,-0.034791,1.004898
128,-2.136263,-1.342794,0.061036,0.015869,-0.032959,0.989639
129,-2.502480,-1.770047,0.000000,0.021241,-0.033570,0.995499
130,-2.746624,-1.892119,0.000000,0.023316,-0.035157,0.989151
131,-2.868696,-1.831083,0.000000,0.020508,-0.027466,1.006119
132,-4.150454,-1.709010,0.244144,0.025879,-0.040284,1.007462
133,-2.319371,-1.281758,0.122072,0.024170,-0.035401,0.997574
134,-3.540093,-0.915541,0.305180,0.020142,-0.042481,1.016983
135,-2.197299,-0.671397,0.244144,0.025635,-0.040772,1.010758
136,-2.136263,-0.061036,0.183108,0.027100,-0.049195,1.031876
137,-0.610361,0.671397,0.244144,0.039185,-0.056153,1.022477
138,2.136263,1.525902,0.122072,0.017456,-0.038209,0.995865
139,1.831083,0.976577,0.061036,0.001953,-0.025025,0.982681
140,0.915541,0.183108,-0.244144,0.006714,-0.019654,0.969741
141,-0.671397,-0.976577,-0.610361,0.019165,-0.029664,0.988174
142,-0.183108,-1.037613,-0.793469,0.019898,-0.043946,1.001480
143,-0.183108,-0.915541,-0.610361,0.033326,-0.041260,1.007950
144,0.305180,-0.427253,-0.488289,0.025757,-0.040894,1.012222
145,1.037613,0.000000,-0.488289,0.020264,-0.033326,0.998917
146,0.488289,0.427253,-0.366217,0.029419,-0.042237,1.026627
147,2.197299,1.098650,-0.305180,0.019898,-0.041016,1.003922
148,2.197299,1.342794,-0.183108,0.020752,-0.034302,1.006119
149,3.356985,1.403830,-0.549325,0.018433,-0.030030,0.999283
150,2.014191,1.037613,-0.610361,0.013916,-0.031128,0.992203
151,1.892119,0.671397,-0.793469,0.024781,-0.035523,1.002823
152,1.831083,0.488289,-0.915541,0.011963,-0.035401,0.993301
153,2.502480,0.366217,-0.793469,0.019776,-0.025879,0.988907
154,0.671397,0.122072,-0.427253,0.025513,-0.034302,1.006119
155,1.892119,0.732433,-0.305180,0.016358,-0.027466,0.988052
156,0.305180,0.854505,0.000000,0.025635,-0.026856,1.000748
157,0.793469,1.342794,0.305180,0.020386,-0.027100,1.003922
158,0.427253,1.709010,0.305180,0.019165,-0.029541,1.002823
159,0.244144,1.831083,0.305180,0.019165,-0.031006,1.001846
160,0.549325,1.647974,0.183108,0.010498,-0.020020,0.991714
161,-0.305180,0.915541,0.000000,0.012573,-0.026123,0.990372
162,-0.183108,0.244144,-0.183108,0.007691,-0.022339,0.987198
163,-0.427253,-0.610361,-0.305180,0.003296,-0.029175,0.986587
164,-0.915541,-1.159686,-0.305180,0.008423,-0.025513,0.981094
165,-1.403830,-1.953155,-0.366217,0.016968,-0.021118,0.978164
166,-1.953155,-2.075227,-0.305180,0.020264,-0.024781,0.991958
167,-2.868696,-1.831083,-0.183108,0.027832,-0.030762,0.997574
168,-2.868696,-1.464866,0.000000,0.028687,-0.029419,0.999161
169,-2.990768,-0.793469,0.183108,0.021851,-0.034180,1.010269
170,-2.929732,-0.244144,0.366217,0.016114,-0.036011,1.018082
171,-2.014191,0.061036,0.244144,0.024781,-0.034302,1.005509
172,-2.014191,0.244144,0.244144,0.015625,-0.036622,1.013321
173,-0.915541,0.610361,0.244144,0.023682,-0.037842,1.014908
174,-0.915541,0.732433,0.366217,0.018921,-0.040040,1.022232
175,0.976577,1.037613,0.183108,0.017212,-0.033814,0.998550
176,0.854505,0.366217,0.000000,0.009277,-0.026123,0.989761
177,0.671397,-0.366217,-0.305180,0.003906,-0.023926,0.989029
178,-0.061036,-1.037613,-0.549325,0.015869,-0.025879,0.991714
179,-0.061036,-1.098650,-0.549325,0.018677,-0.024659,0.994766
180,-0.549325,-0.915541,-0.366217,0.027100,-0.030152,1.006851
181,0.061036,-0.366217,-0.183108,0.015259,-0.021363,0.994522
182,-1.220722,-0.305180,0.000000,0.018799,-0.024659,0.999405
183,-0.610361,0.000000,-0.122072,0.023926,-0.037842,1.003189
184,-0.366217,0.244144,-0.122072,0.019898,-0.028199,1.003555
185,-0.549325,0.244144,-0.122072,0.015259,-0.031006,1.007706
186,0.244144,0.305180,-0.122072,0.012207,-0.031983,0.996475
187,0.122072,-0.122072,-0.244144,0.016358,-0.026978,1.004532
188,-0.061036,-0.366217,-0.183108,0.010010,-0.032959,0.999283
189,-0.183108,-0.732433,-0.305180,0.013794,-0.030274,0.997208
190,-0.061036,-1.037613,-0.366217,0.016724,-0.026734,1.001114
191,-0.793469,-1.159686,-0.244144,0.022339,-0.032105,0.999283
192,0.122072,-0.793469,-0.122072,0.023560,-0.027588,1.003799
193,-0.305180,-0.671397,-0.183108,0.020874,-0.028321,1.010025
194,-0.061036,-0.427253,0.000000,0.019654,-0.025025,1.004898
195,0.122072,0.000000,0.000000,0.025757,-0.025269,1.007828
196,0.183108,0.244144,0.000000,0.019654,-0.029175,1.006973
197,0.366217,0.366217,0.061036,0.022339,-0.026856,1.011490
198,0.732433,0.671397,0.000000,0.018921,-0.028565,1.011246
199,0.793469,0.793469,-0.122072,0.014160,-0.024659,0.998672
200,1.220722,0.671397,-0.183108,0.014771,-0.031617,1.006851
201,1.647974,0.732433,-0.244144,0.013062,-0.028809,0.996719
202,1.770047,0.671397,-0.366217,0.019532,-0.020996,0.999039
203,1.831083,0.488289,-0.427253,0.010376,-0.025025,0.989029
204,2.136263,0.549325,-0.549325,0.015625,-0.019776,0.995865
205,1.098650,0.061036,-0.488289,0.018311,-0.021485,0.994278
206,0.671397,0.183108,-0.488289,0.019409,-0.020996,0.987076
207,-0.183108,0.244144,-0.244144,0.013916,-0.023072,0.996597
208,-0.183108,0.366217,-0.183108,0.025879,-0.025269,1.002701
209,-0.488289,0.610361,-0.122072,0.017334,-0.028077,1.001724
210,-0.061036,1.037613,-0.122072,0.016724,-0.026001,1.004288
211,0.000000,0.915541,-0.122072,0.017334,-0.023072,1.000137
212,-0.122072,0.976577,-0.183108,0.008301,-0.026246,0.998428
213,0.671397,0.793469,-0.366217,0.012573,-0.017090,1.000381
214,-0.061036,0.000000,-0.122072,0.015991,-0.025391,0.993790
215,-0.366217,-0.488289,0.000000,0.007813,-0.014405,0.987076
216,-0.976577,-1.037613,-0.183108,0.021485,-0.023316,0.997208
217,-0.976577,-0.976577,-0.122072,0.012818,-0.019654,0.990249
218,-1.586938,-0.976577,0.000000,0.010010,-0.020996,0.989395
219,-1.831083,-1.342794,0.061036,0.020264,-0.016724,0.985367
220,-2.929732,-1.037613,0.000000,0.021607,-0.025147,0.995132
221,-2.319371,-0.915541,0.183108,0.019043,-0.025025,0.993301
222,-3.234913,-0.793469,0.183108,0.022095,-0.022339,1.009537
223,-2.685588,-0.488289,0.183108,0.012451,-0.026734,1.006607
224,-2.197299,-0.305180,0.122072,0.020508,-0.027832,1.016739
225,-2.197299,-0.366217,0.122072,0.017945,-0.030518,1.006973
226,-1.342794,-0.061036,0.000000,0.012573,-0.028077,1.012833
227,-0.549325,-0.061036,-0.183108,0.014160,-0.031739,1.005386
228,-0.610361,-0.244144,-0.244144,0.016602,-0.027710,1.001358
229,-0.244144,-0.427253,-0.488289,0.007080,-0.025757,0.997086
230,-0.427253,-1.037613,-0.549325,0.018433,-0.025147,0.995499
231,-0.793469,-0.915541,-0.671397,0.020386,-0.032593,0.998917
232,0.183108,-0.793469,-0.610361,0.021973,-0.022339,0.991592
233,-0.854505,-0.793469,-0.488289,0.025147,-0.026123,1.008072
234,0.000000,0.183108,-0.488289,0.014649,-0.027588,1.015518
235,0.122072,0.366217,-0.244144,0.027710,-0.025757,1.001846
236,0.000000,0.793469,-0.122072,0.014771,-0.029053,1.002945
237,0.305180,0.854505,-0.244144,0.019776,-0.025635,1.003677
238,0.244144,0.976577,-0.122072,0.017212,-0.026490,1.004410
239,1.037613,1.037613,-0.366217,0.016358,-0.025025,1.004166
240,1.037613,0.671397,-0.366217,0.011841,-0.021363,0.996719
241,0.976577,0.366217,-0.427253,0.004273,-0.021851,0.992813
242,1.342794,0.061036,-0.549325,0.013184,-0.018311,0.997452
243,0.305180,0.000000,-0.488289,0.016480,-0.022461,0.997940
244,0.671397,0.305180,-0.305180,0.015869,-0.026368,1.003311
245,0.671397,0.732433,-0.183108,0.018067,-0.024292,0.999039
246,0.488289,0.915541,0.000000,0.017945,-0.024659,1.000504
247,0.671397,1.220722,0.000000,0.013428,-0.025391,1.005264
248,1.586938,1.342794,0.000000,0.021363,-0.023926,1.004044
249,1.220722,1.403830,-0.122072,0.013306,-0.020142,1.005020
250,1.892119,1.464866,-0.122072,0.012329,-0.024414,1.008560
251,2.502480,1.709010,0.000000,0.013306,-0.024292,1.013077
252,3.234913,2.014191,-0.122072,0.018067,-0.027100,1.009293
253,4.150454,2.014191,-0.244144,0.003662,-0.018921,0.990127
254,3.356985,1.586938,-0.305180,0.007202,-0.012085,0.983902
255,2.746624,1.037613,-0.244144,0.006958,-0.012573,0.986099
256,1.831083,0.488289,-0.366217,0.008545,-0.012207,0.984146
257,0.854505,0.427253,-0.305180,0.020142,-0.010864,1.000504
258,0.244144,0.854505,0.000000,0.015747,-0.017212,1.006363
259,0.793469,1.159686,0.061036,0.020508,-0.011353,0.998672
260,0.183108,1.342794,0.061036,0.012451,-0.012573,1.002701
261,0.305180,1.342794,0.122072,0.013794,-0.020508,0.996841
262,0.244144,1.342794,0.183108,0.008179,-0.010376,1.004654
263,0.549325,1.220722,0.000000,0.006836,-0.018555,1.004532
264,0.549325,1.037613,0.000000,0.017212,-0.017823,1.003311
265,0.732433,1.098650,-0.183108,0.016846,-0.023072,1.008560
266,1.403830,1.159686,0.000000,0.005127,-0.013794,1.000259
267,1.220722,1.098650,0.061036,0.004273,-0.017700,0.994400
268,1.403830,0.854505,-0.183108,0.010864,-0.010986,0.984512
269,0.976577,0.732433,-0.122072,0.006836,-0.003540,0.990127
270,0.366217,0.549325,0.000000,0.003052,-0.009155,0.980117
271,-0.305180,0.122072,-0.122072,0.014038,-0.007691,0.998672
272,-0.854505,0.122072,0.000000,0.009155,-0.018555,0.999283
273,-0.122072,0.488289,0.061036,0.018555,-0.011963,1.004410
274,-0.610361,0.610361,0.244144,0.010864,-0.020630,1.004532
275,0.000000,0.854505,0.000000,0.006714,-0.008667,0.999893
276,-0.305180,0.610361,0.000000,0.011353,-0.015991,1.000870
277,-0.122072,0.610361,0.122072,0.006104,-0.018799,1.002457
278,0.122072,0.671397,0.000000,0.009277,-0.012940,1.002213
279,0.305180,0.732433,0.000000,-0.000488,-0.014038,1.002090
280,0.488289,0.549325,0.000000,0.009277,-0.013794,0.997208
281,0.732433,0.488289,-0.122072,0.014527,-0.011963,1.002823
282,0.549325,0.549325,0.000000,0.006104,-0.011841,1.000748
283,0.793469,0.671397,0.061036,0.005737,-0.009888,0.989639
284,0.305180,0.549325,0.000000,0.006958,-0.012573,0.999649
285,0.183108,0.671397,0.061036,0.006470,-0.011719,1.001114
286,0.488289,0.732433,0.000000,0.007080,-0.010254,1.009659
287,0.244144,0.488289,0.061036,0.009033,-0.008789,0.994034
288,0.488289,0.549325,0.000000,0.005982,-0.015869,1.001236
289,0.732433,0.488289,0.000000,0.009400,-0.014160,0.996963
290,1.220722,0.671397,-0.122072,0.010376,-0.009033,0.998306
291,1.464866,0.671397,-0.183108,0.007324,-0.015503,1.004776
292,1.892119,0.671397,-0.244144,0.003052,-0.010010,0.993912
293,2.136263,0.488289,-0.244144,0.003906,-0.006714,0.990738
294,1.770047,0.122072,-0.305180,0.000122,-0.000122,0.991836
295,0.732433,-0.244144,-0.366217,-0.003174,-0.006714,0.981338
296,0.671397,-0.671397,-0.427253,0.009400,-0.001099,0.996719
297,-0.305180,-0.305180,-0.244144,0.006470,-0.006104,1.002945
298,0.061036,0.000000,0.000000,0.007568,-0.010132,1.005264
299,0.000000,0.305180,-0.122072,0.006958,-0.007446,0.990616
300,-0.122072,0.244144,0.000000,0.004028,-0.010986,1.000259
301,0.183108,0.427253,-0.122072,0.007568,-0.008545,1.000870
302,0.061036,0.488289,0.122072,0.000122,-0.008057,1.003922
303,0.793469,0.305180,-0.122072,0.012940,-0.001709,0.997330
304,0.000000,0.305180,0.000000,0.005371,-0.014405,0.998917
305,1.098650,0.305180,-0.244144,0.002075,-0.008423,0.995254
306,-0.061036,0.000000,-0.122072,0.009033,-0.013062,0.998917
307,0.854505,0.122072,-0.244144,0.002564,0.001587,0.996597
308,0.671397,0.244144,-0.244144,0.008423,-0.003784,0.998184
309,0.122072,0.549325,0.000000,-0.000977,-0.008057,0.998795
310,0.793469,0.305180,0.000000,0.009522,0.007202,0.986099
311,-0.793469,0.305180,0.183108,0.003052,-0.005249,0.997574
312,0.000000,0.305180,0.000000,0.008423,-0.003174,0.999527
313,-0.976577,0.244144,0.000000,0.004028,-0.000366,1.001968
314,-0.183108,0.366217,-0.122072,0.006348,-0.002075,1.000137
315,-0.732433,0.305180,-0.122072,0.008057,-0.001587,1.005875
316,-0.183108,0.488289,-0.122072,0.007080,-0.001709,0.995987
317,-0.305180,0.305180,0.000000,0.006226,-0.000732,1.002823
318,-0.549325,0.122072,-0.366217,-0.000977,0.004273,0.982071
319,-1.403830,-0.366217,-0.366217,0.006104,-0.007202,0.997940
320,-1.159686,-0.427253,-0.427253,0.005249,-0.004395,0.998306
321,-1.220722,-0.427253,-0.305180,0.000610,-0.005737,1.000381
322,-1.220722,-0.183108,-0.244144,0.004273,-0.007446,0.995621
323,-1.464866,-0.183108,-0.183108,0.004639,-0.014649,1.004166
324,-0.610361,0.122072,-0.122072,0.006714,-0.004883,1.002335
325,-1.159686,0.061036,-0.183108,0.003784,-0.007080,1.000504
326,-0.427253,0.000000,0.000000,0.013184,-0.004517,1.001846
327,-0.488289,0.244144,-0.244144,0.003296,-0.008057,1.003311
328,-0.244144,0.366217,-0.122072,0.016846,-0.008179,1.008804
329,-0.366217,0.732433,0.122072,0.007935,-0.011475,1.000748
330,-0.366217,0.976577,0.061036,-0.000855,-0.001587,0.995254
331,-0.610361,0.854505,0.061036,-0.001221,-0.000366,0.992203
332,-0.854505,0.427253,0.061036,-0.005127,-0.001465,0.991714
333,-1.220722,0.122072,-0.183108,-0.003540,-0.001343,0.993912
334,-1.770047,-0.061036,0.000000,0.004517,-0.005127,1.009781
335,-0.854505,-0.183108,0.000000,0.000000,-0.002930,0.994278
336,-1.586938,-0.061036,-0.122072,-0.004273,-0.007691,0.999527
337,-0.854505,-0.488289,-0.122072,0.012940,-0.003906,0.999405
338,-1.220722,-0.488289,-0.122072,0.002441,0.000610,1.000992
339,-1.525902,-0.610361,-0.122072,0.009033,-0.008423,1.022599
340,-0.854505,-0.183108,0.000000,0.009888,-0.005005,1.003311
341,-0.976577,0.061036,0.000000,0.006348,-0.003418,1.004898
342,-1.098650,0.122072,0.061036,0.006714,-0.009888,0.998917
343,-0.671397,0.244144,0.122072,0.013306,-0.003906,0.998184
344,-0.671397,0.488289,0.061036,-0.004395,-0.005249,1.000626
345,-0.732433,0.122072,0.000000,0.005493,-0.016724,1.000748
346,0.000000,0.244144,-0.122072,-0.007691,-0.001099,0.990494
347,-0.793469,-0.488289,-0.122072,0.006592,-0.003540,0.998550
348,-0.427253,-0.305180,-0.183108,-0.002808,-0.002075,0.992325
349,-1.220722,-0.610361,0.000000,0.006714,-0.005127,1.002945
350,-0.915541,-0.488289,-0.122072,0.004150,-0.006714,0.998062
351,-1.098650,-0.183108,0.000000,0.012451,-0.003418,1.003311
352,-0.915541,0.061036,0.122072,0.008179,-0.001465,0.996841
353,-0.732433,0.000000,0.061036,0.005737,-0.005371,1.003555
354,-0.793469,0.000000,0.122072,0.005859,-0.012451,1.010391
355,-0.183108,0.061036,-0.122072,0.003052,-0.001465,0.999039
356,-0.610361,-0.061036,0.000000,0.007813,-0.005371,0.999039
357,-0.183108,0.000000,-0.183108,0.004761,-0.007080,1.002335
358,0.061036,0.122072,0.000000,-0.003906,0.002686,0.995987
359,-0.549325,-0.244144,-0.183108,0.001099,-0.003662,0.991836
360,-0.549325,-0.305180,0.000000,0.007935,-0.002930,0.998550
361,-1.098650,0.000000,0.000000,-0.000610,-0.005127,1.003555
362,-0.610361,-0.061036,0.000000,0.000000,-0.000122,0.989761
363,-1.525902,-0.305180,0.000000,-0.004395,-0.001343,0.997818
364,-1.098650,-0.244144,-0.122072,0.002930,-0.008179,1.010758
365,-1.098650,-0.305180,0.000000,0.004150,-0.005493,1.006607
366,-0.793469,-0.061036,0.000000,-0.000855,-0.004639,0.996231
367,-0.854505,-0.061036,0.000000,0.004028,-0.005249,1.000259
368,-0.854505,0.000000,0.000000,-0.000244,-0.006592,0.994400
369,-1.037613,-0.061036,0.000000,0.011475,0.000244,1.012711
370,-0.854505,0.061036,0.000000,0.001343,-0.000488,1.000870
371,-0.915541,0.183108,0.000000,0.004273,-0.009155,1.002457
372,0.000000,0.366217,0.000000,0.004150,-0.000244,0.996597
373,-0.915541,0.244144,0.000000,0.004883,-0.012451,1.003189
374,0.122072,0.549325,0.000000,-0.004761,0.000732,0.989273
375,-1.098650,0.000000,0.061036,0.002319,-0.004517,1.011124
376,0.061036,0.305180,0.000000,-0.002808,0.001953,0.988296
377,-1.281758,-0.244144,0.000000,0.003052,-0.007935,1.001846
378,-0.183108,-0.061036,-0.122072,-0.000855,0.000366,0.996353
379,-1.831083,-0.244144,0.061036,0.003906,-0.007446,1.004044
380,0.061036,0.061036,-0.122072,0.000732,0.000366,0.994644
381,-2.014191,-0.366217,0.000000,-0.003662,-0.011231,1.007218
382,-0.061036,-0.122072,0.000000,0.002564,-0.003418,0.997818
383,-1.220722,-0.061036,0.000000,-0.000122,-0.001953,1.000992
384,-0.488289,-0.061036,0.000000,-0.001587,-0.010254,1.007095
385,-0.183108,-0.183108,-0.122072,0.001953,0.000977,0.989151
386,-0.854505,-0.305180,0.000000,-0.006470,-0.009888,0.996719
387,0.000000,-0.183108,-0.122072,0.003784,0.000488,0.994522
388,-1.098650,-0.488289,0.061036,0.003052,-0.007568,0.996841
389,-0.305180,-0.305180,0.000000,0.003540,-0.004395,0.990494
390,-0.915541,-0.427253,0.061036,-0.001709,-0.000855,0.996109
391,-1.037613,-0.427253,0.061036,0.002441,-0.001221,0.987808
392,-1.098650,-0.366217,0.000000,0.001221,-0.001099,1.009293
393,-1.220722,-0.427253,0.061036,0.005127,-0.005005,1.000870
394,-0.732433,-0.244144,0.000000,0.006958,-0.005982,0.993179
395,-0.915541,-0.183108,0.000000,0.004150,-0.004028,1.002701
396,-0.610361,-0.305180,0.000000,0.004883,-0.007446,0.999649
397,-0.549325,-0.244144,0.061036,0.006470,-0.003052,1.008560
398,-0.305180,-0.061036,-0.122072,0.002441,-0.003052,0.999649
399,-0.244144,-0.244144,0.000000,0.007324,-0.005127,1.004776
400,0.000000,0.122072,-0.183108,-0.008423,0.002686,0.994156
401,-0.854505,-0.427253,0.000000,0.006836,-0.008057,1.007218
402,0.000000,0.183108,0.000000,0.001099,-0.004273,0.988663
403,-0.488289,0.122072,0.183108,0.008057,-0.004761,1.000870
404,-0.732433,0.183108,0.000000,0.001221,-0.001343,1.011978
405,-0.610361,0.427253,0.061036,-0.004028,-0.001587,0.987686
406,-1.159686,0.122072,0.122072,0.007202,-0.002564,0.990249
407,-0.793469,0.183108,0.183108,0.000977,-0.004883,0.993179
408,-0.976577,0.000000,0.122072,0.004028,-0.006592,1.004044
409,-0.732433,-0.061036,0.122072,-0.003906,-0.006714,0.994400
410,-0.549325,-0.061036,0.000000,0.000732,0.000855,1.001480
411,-0.732433,-0.183108,0.000000,0.003296,-0.002441,1.000137
412,-0.793469,0.000000,0.000000,0.002319,-0.008911,0.998062
413,-0.061036,0.061036,0.000000,-0.005127,0.003784,0.988785
414,-1.525902,-0.366217,0.000000,-0.001709,-0.007935,0.999771
415,-0.427253,-0.183108,0.000000,-0.001831,-0.004761,0.993545
416,-1.220722,-0.488289,-0.183108,0.000977,0.001221,0.999893
417,-1.220722,-0.427253,0.000000,-0.004639,-0.013428,0.997330
418,-1.037613,-0.427253,-0.244144,0.001587,0.002075,0.989395
419,-1.831083,-0.427253,0.061036,0.003296,-0.009155,1.009171
420,-1.098650,-0.061036,0.000000,0.004395,-0.007935,0.999161
421,-1.281758,0.122072,0.000000,0.004273,-0.010986,0.995621
422,-0.915541,0.061036,0.000000,-0.000488,-0.003784,1.005264
423,-0.427253,0.488289,0.183108,0.009400,-0.004028,1.011734
424,-0.427253,0.671397,0.183108,-0.002564,-0.003784,1.002335
425,-0.122072,0.732433,0.183108,0.005249,-0.012207,1.012833
426,0.366217,1.098650,0.061036,-0.012451,-0.005005,0.993790
427,0.183108,0.366217,0.122072,0.008423,-0.004883,1.005386
428,0.122072,0.549325,0.000000,-0.006958,-0.002197,0.988296
429,-0.854505,-0.061036,0.000000,0.007324,-0.006104,1.004044
430,-0.183108,0.122072,-0.183108,-0.004639,-0.003052,0.988418
431,-1.586938,-0.061036,0.000000,0.006470,-0.009522,1.014908
432,0.000000,0.366217,-0.122072,-0.002075,0.002197,0.986954
433,-1.709010,0.244144,0.000000,-0.004761,-0.008179,1.000504
434,-0.305180,0.366217,0.000000,-0.003174,-0.007446,0.993301
435,-1.342794,0.427253,0.305180,0.010010,-0.003052,1.004166
436,0.000000,0.671397,0.122072,-0.003540,0.000488,0.990982
437,-1.525902,0.183108,0.183108,0.007080,-0.007568,1.017594
438,-0.061036,0.488289,0.000000,-0.001465,-0.005493,1.001236
439,-0.305180,0.671397,0.122072,0.011475,-0.007446,1.019303
440,1.220722,1.342794,0.061036,-0.012696,-0.001709,0.990860
441,0.122072,0.793469,0.183108,0.009277,-0.000122,0.998672
442,0.915541,0.976577,0.000000,-0.006592,0.001221,0.998062
443,0.244144,0.244144,0.000000,-0.008301,0.004395,0.990494
444,-0.061036,0.122072,-0.122072,-0.002930,-0.005005,0.996719
445,-0.061036,0.122072,-0.183108,-0.007691,-0.004028,0.983902
446,-0.610361,-0.305180,-0.122072,-0.003174,0.005615,0.996109
447,-1.464866,-0.366217,0.061036,0.000244,-0.004395,1.007462
448,-0.610361,-0.061036,-0.122072,-0.006470,0.006226,1.002579
449,-1.464866,-0.488289,0.000000,0.000732,-0.008301,0.997086
450,-1.037613,-0.183108,0.000000,0.000855,-0.001587,1.000992
451,-1.220722,-0.549325,0.000000,0.001343,-0.002808,1.009171
452,-0.671397,0.000000,-0.122072,-0.002319,-0.001343,1.000748
453,-1.098650,-0.366217,0.061036,-0.003174,-0.008057,1.011002
454,0.000000,0.122072,-0.183108,0.001953,-0.002197,0.989273
455,-1.037613,-0.305180,0.000000,-0.007324,-0.001587,0.996475
456,-0.366217,-0.244144,0.000000,0.010864,-0.002319,1.001724
457,-0.732433,-0.061036,-0.122072,-0.014771,0.002075,0.989151
458,-0.793469,-0.488289,-0.122072,0.001831,-0.001587,1.005142
459,-0.976577,-0.427253,0.000000,-0.000366,-0.004517,1.006973
460,-0.854505,-0.427253,-0.122072,-0.003418,-0.001221,0.995621
461,-1.831083,-0.671397,0.000000,0.003174,-0.005005,0.999649
462,-0.915541,-0.366217,0.122072,0.002808,-0.001831,0.998550
463,-1.281758,-0.366217,0.061036,-0.009644,-0.002319,1.000504
464,-1.220722,-0.488289,0.000000,0.002441,-0.005737,1.011490
465,-1.037613,-0.305180,0.000000,-0.001099,-0.001953,1.006607
466,-0.915541,-0.305180,-0.122072,-0.003296,-0.007568,0.998795
467,-0.793469,-0.305180,0.061036,0.004395,-0.007446,1.003433
468,-0.488289,-0.061036,0.000000,-0.008423,0.000244,0.997574
469,-0.854505,-0.427253,0.000000,-0.005615,0.001099,0.997330
470,-1.098650,-0.549325,0.000000,0.002808,-0.003174,0.998184
471,-0.610361,-0.488289,-0.183108,0.000610,-0.001221,0.997330
472,-0.976577,-0.732433,-0.122072,-0.004639,0.000244,0.988785
473,-1.403830,-0.793469,-0.122072,0.001709,-0.003540,0.994522
474,-1.403830,-0.793469,-0.305180,-0.003906,0.000855,0.995010
475,-2.014191,-1.037613,-0.183108,0.004028,-0.001709,1.011002
476,-1.647974,-0.610361,-0.122072,-0.002197,-0.005982,0.999893
477,-1.647974,-0.427253,-0.122072,0.008301,-0.005737,1.002945
478,-0.915541,-0.061036,0.000000,-0.001099,-0.008667,0.993545
479,-0.793469,-0.061036,0.000000,-0.003052,-0.008667,1.008438
480,-0.183108,0.000000,0.000000,-0.002441,-0.003296,1.004654
481,-0.305180,-0.061036,0.000000,-0.000977,-0.006592,1.000259
482,-0.122072,-0.244144,0.061036,0.007080,-0.001953,0.994888
483,-0.549325,-0.244144,-0.183108,-0.016968,0.000732,0.985855
484,-1.464866,-0.915541,-0.122072,0.007813,-0.003662,0.999405
485,-1.464866,-0.427253,0.000000,-0.004517,0.000610,0.993912
486,-2.075227,-0.854505,0.000000,0.001831,-0.007446,0.999527
487,-2.075227,-0.488289,0.000000,0.004761,-0.010010,0.993301
488,-2.014191,-0.427253,0.061036,-0.000610,-0.007568,0.993179
489,-1.892119,-0.305180,0.061036,0.003784,-0.008667,1.001358
490,-1.464866,-0.244144,0.061036,-0.003662,-0.006714,0.996475
491,-1.159686,-0.061036,0.061036,0.002441,-0.009033,1.008072
492,-0.793469,0.122072,0.122072,-0.000488,-0.006470,1.009049
493,-0.305180,0.183108,0.061036,0.002808,-0.002441,0.996475
494,-0.244144,0.061036,0.000000,-0.000122,-0.004028,1.000870
495,-0.061036,0.000000,-0.122072,0.002808,-0.006348,1.000504
496,-0.122072,0.000000,-0.122072,-0.007080,-0.001953,0.996719
497,-0.427253,-0.183108,-0.122072,-0.003784,-0.003784,0.989395
498,-1.037613,-0.549325,0.000000,-0.000977,0.000366,0.993790
499,-1.281758,-0.549325,-0.122072,-0.001587,-0.001221,0.986465
500,-1.342794,-0.488289,0.000000,0.002686,-0.007446,0.996963
501,-1.464866,-0.488289,0.000000,-0.001221,-0.007080,1.003433
502,-1.220722,-0.305180,0.000000,0.004150,-0.007080,1.003677
503,-1.159686,-0.061036,0.000000,-0.003906,-0.001831,0.999039
504,-1.037613,-0.183108,0.061036,-0.001587,-0.003662,0.991348
505,-1.342794,-0.244144,0.061036,0.000488,-0.004517,0.995743
506,-1.403830,-0.183108,0.000000,-0.000366,-0.003052,1.004654
507,-1.342794,-0.366217,0.000000,0.000610,-0.009033,1.002335
508,-1.159686,-0.061036,0.000000,-0.002808,-0.006836,1.008560
509,-1.037613,-0.244144,0.122072,-0.000855,-0.009033,1.005386
510,-0.732433,-0.244144,0.061036,0.008667,0.000855,1.000748
511,-0.854505,-0.061036,-0.183108,-0.008789,-0.002686,0.989273
512,-1.342794,-0.488289,-0.183108,0.003052,-0.002441,0.999893
513,-0.732433,-0.305180,-0.122072,-0.008667,-0.007568,0.994156
514,-0.854505,-0.427253,0.000000,0.000732,-0.003174,0.998550
515,-1.403830,-0.549325,-0.122072,-0.001465,-0.002686,0.995499
516,-1.586938,-0.671397,0.000000,-0.006592,-0.014282,1.003555
517,-0.915541,-0.671397,0.000000,0.007324,-0.005493,1.006851
518,-1.159686,-0.610361,-0.183108,-0.006470,-0.005249,1.002701
519,-1.220722,-0.671397,0.000000,0.006958,-0.004517,1.011734
520,-0.671397,-0.488289,0.061036,0.006836,-0.007813,1.006363
521,-0.854505,-0.305180,0.000000,-0.005737,-0.004517,0.997330
522,-1.037613,-0.488289,-0.122072,0.005982,-0.008423,1.002335
523,-0.427253,-0.183108,-0.183108,-0.011719,-0.001709,0.994522
524,-1.220722,-0.366217,0.000000,0.012451,-0.003052,1.005264
525,-0.061036,0.061036,-0.122072,-0.011475,-0.005737,0.992203
526,-1.342794,-0.427253,0.000000,0.004517,-0.000244,0.998550
527,-0.732433,-0.244144,0.000000,-0.004883,-0.006592,0.989639
528,-1.464866,-0.366217,0.000000,-0.000366,0.001343,0.987198
529,-1.464866,-0.488289,0.000000,0.000977,-0.010498,0.999527
530,-1.281758,-0.427253,0.000000,0.008667,-0.005859,0.990860
531,-1.464866,-0.427253,0.000000,0.001831,-0.004028,0.994888
532,-1.464866,-0.366217,0.000000,0.004639,-0.010132,1.008560
533,-1.525902,-0.183108,0.061036,-0.005493,-0.009522,0.997940
534,-1.159686,-0.061036,0.122072,0.003540,-0.008667,1.000992
535,-1.525902,-0.244144,0.000000,0.006714,-0.013672,0.998184
536,-0.732433,-0.183108,0.000000,0.006226,-0.008911,1.004166
537,-0.549325,-0.061036,0.000000,-0.001953,-0.001709,1.007828
538,-0.854505,0.061036,0.061036,-0.010498,-0.007935,1.000015
539,-0.305180,-0.244144,-0.183108,0.000000,-0.001709,0.995621
540,-1.159686,-0.610361,0.000000,-0.000977,-0.011109,0.993423
541,-0.671397,-0.549325,-0.183108,-0.005982,-0.009644,1.002945
542,-0.793469,-0.671397,-0.122072,-0.002197,-0.005249,0.999527
543,-0.976577,-0.488289,0.000000,0.000488,-0.006470,1.005264
544,-0.915541,-0.427253,0.000000,-0.003540,-0.007813,1.002945
545,-0.549325,-0.305180,0.000000,0.003174,-0.003906,0.995010
546,-0.732433,-0.183108,0.061036,-0.000610,-0.006592,1.003311
547,-0.854505,-0.244144,0.061036,-0.002930,-0.008057,1.001480
548,-0.793469,-0.183108,0.061036,0.002686,-0.007080,0.997086
549,-0.915541,-0.244144,0.061036,-0.001465,-0.006836,0.985855
550,-0.976577,-0.366217,0.000000,-0.001953,-0.012085,1.005753
551,-0.732433,-0.061036,0.122072,0.001709,-0.004028,1.001114
552,-0.854505,-0.061036,0.122072,0.001587,-0.010986,1.006973
553,-0.610361,-0.061036,0.122072,-0.001709,-0.007568,0.999771
554,-0.549325,0.000000,0.183108,0.003296,-0.010864,1.002823
555,-0.122072,0.000000,0.061036,0.000244,-0.006104,0.999527
556,0.000000,0.122072,0.183108,-0.000610,-0.010010,1.010391
557,0.732433,0.183108,0.061036,-0.002441,-0.011475,1.005753
558,1.525902,0.427253,0.122072,-0.000122,-0.012451,0.995254
559,1.892119,0.305180,0.122072,-0.007080,-0.005737,0.996963
560,1.342794,0.000000,0.122072,0.000488,-0.008179,1.013687
561,2.197299,0.244144,0.061036,0.001343,-0.005737,0.998550
562,2.075227,0.000000,0.061036,-0.005493,-0.006226,0.995377
563,2.075227,-0.122072,0.000000,0.006226,-0.012573,1.026017
564,3.784237,0.671397,0.122072,-0.006592,-0.023926,1.032731
565,6.286717,1.098650,0.061036,0.005249,-0.011109,1.019913
566,7.385367,1.220722,0.305180,0.000244,-0.005249,0.979263
567,7.019150,0.732433,0.183108,-0.016114,0.019532,0.968521
568,4.028382,-0.183108,0.061036,-0.012207,0.008545,0.984390
569,3.540093,-0.488289,0.000000,-0.004395,0.003540,1.007462
570,3.723201,-0.305180,0.000000,0.002319,-0.002441,1.005264
571,4.028382,0.000000,0.061036,-0.000122,0.000488,0.994400
572,4.150454,0.061036,0.000000,0.001587,0.002075,0.998184
573,5.065995,0.000000,0.061036,0.000732,0.010010,1.000992
574,4.333562,0.000000,0.000000,0.002686,0.003296,1.007095
575,5.554284,0.183108,0.000000,0.000488,0.006470,0.998062
576,5.371176,0.183108,-0.183108,-0.000366,0.007446,0.998428
577,5.127031,0.061036,-0.122072,-0.003784,0.002319,1.005997
578,5.615320,0.244144,0.000000,0.003052,0.010864,1.000626
579,5.798428,0.427253,0.000000,-0.005493,0.021485,1.003922
580,6.042573,0.549325,0.122072,-0.003296,0.012329,1.014420
581,6.225681,0.732433,0.061036,0.001221,0.025879,0.990860
582,5.676356,0.671397,0.244144,-0.006226,0.016724,0.974258
583,4.577707,0.488289,0.366217,-0.015137,0.018311,0.991836
584,4.577707,0.122072,0.366217,-0.007446,0.021363,0.994278
585,4.150454,-0.183108,0.366217,-0.007691,0.025513,0.988540
586,3.845274,-0.549325,0.305180,-0.010010,0.025025,0.989517
587,3.540093,-0.793469,0.305180,0.004761,0.025635,0.988663
588,3.295949,-0.610361,0.122072,-0.010498,0.026856,0.980850
589,2.624552,-1.098650,0.122072,-0.003784,0.043091,0.964492
590,-0.061036,-1.770047,-0.305180,-0.012329,0.042969,0.968399
591,-2.258335,-2.502480,-0.366217,-0.002808,0.013550,0.990860
592,-1.220722,-2.014191,-0.427253,0.018433,0.019776,1.018692
593,-1.159686,-1.037613,0.000000,0.005615,0.015015,1.009049
594,-0.305180,-0.366217,0.122072,0.001465,0.020508,1.003922
595,-0.732433,-0.061036,0.244144,-0.000122,0.012207,1.001724
596,0.183108,0.000000,0.244144,-0.005005,0.015259,0.993790
597,0.610361,-0.305180,0.122072,-0.003784,0.033814,0.975723
598,-1.220722,-1.281758,-0.244144,-0.006958,0.034913,0.944839
599,-2.990768,-2.258335,-0.671397,-0.012085,0.045411,0.967056
600,-7.080186,-2.868696,-0.671397,-0.007813,0.025879,0.986709
601,-7.019150,-3.051804,-0.427253,0.010498,-0.005859,1.022599
602,-3.601129,-2.136263,-0.244144,0.012207,0.007080,1.024186
603,-2.624552,-1.403830,0.000000,0.009155,0.005493,1.028580
604,-0.915541,-0.244144,0.000000,0.014527,0.000855,1.030289
605,1.464866,0.976577,0.183108,0.014649,0.002686,1.031144
606,3.356985,2.014191,0.122072,0.002564,0.000000,1.022477
607,5.249104,2.319371,0.183108,0.001831,0.005127,1.011978
608,6.347753,2.685588,0.183108,-0.004028,0.025635,0.993301
609,6.042573,1.586938,0.366217,-0.026368,0.041016,0.935927
610,2.868696,0.183108,0.183108,-0.017212,0.044068,0.963272
611,-0.061036,-1.037613,0.244144,-0.000855,0.024781,0.987808
612,0.427253,-1.159686,0.244144,-0.006592,0.023926,0.994400
613,0.000000,-1.281758,0.366217,0.006958,0.014038,1.011612
614,1.953155,-1.159686,0.000000,-0.012207,0.029664,0.993790
615,1.159686,-1.953155,0.000000,-0.001221,0.024659,0.999283
616,2.380407,-1.953155,-0.305180,-0.004883,0.027222,1.009293
617,2.380407,-2.319371,-0.549325,-0.001953,0.050660,0.981460
618,0.610361,-2.990768,-0.732433,-0.001587,0.033204,0.983413
619,-0.122072,-2.929732,-0.915541,0.004517,0.039307,0.981704
620,-2.014191,-2.380407,-0.854505,0.012207,0.030518,0.999405
621,-2.563516,-1.281758,-0.488289,0.019532,0.023194,1.010025
622,-2.319371,0.183108,0.000000,0.013428,0.031006,0.994888
623,-3.479057,1.098650,0.183108,0.011597,0.026978,0.998306
624,-3.295949,1.709010,0.244144,0.014893,0.023194,1.011612
625,-3.479057,2.502480,0.427253,0.004395,0.019532,1.006851
626,-3.051804,2.502480,0.549325,0.001709,0.014771,1.004776
627,-2.136263,2.258335,0.427253,-0.006470,0.017578,1.013809
628,-1.220722,1.831083,0.366217,0.001221,0.012696,1.007828
629,0.305180,1.647974,0.061036,-0.010620,0.023560,0.994400
630,0.427253,0.793469,0.183108,-0.013306,0.026978,0.987930
631,-0.183108,-0.061036,0.061036,-0.004517,0.030396,0.982071
632,0.305180,0.000000,0.000000,-0.005982,0.028565,0.990494
633,-0.793469,-0.427253,0.183108,-0.000732,0.029541,0.989151
634,-1.647974,-0.366217,0.366217,-0.004517,0.026123,0.992081
635,-1.403830,-0.427253,0.427253,0.001953,0.029175,0.996597
636,-2.014191,-0.427253,0.427253,-0.002686,0.024170,1.000381
637,-1.770047,-0.488289,0.183108,0.000488,0.003662,0.977310
638,-0.549325,-0.427253,0.183108,0.012818,0.009155,0.981338
639,-1.464866,-0.488289,0.183108,-0.002564,0.038453,0.971084
640,-2.929732,-1.342794,0.000000,-0.007202,0.038087,0.952041
641,-5.920500,-2.929732,0.122072,-0.008423,0.026856,0.975723
642,-6.286717,-3.418021,0.244144,0.004639,0.027832,0.980240
643,-8.056764,-3.906310,0.244144,0.003052,0.015503,0.967056
644,-8.667124,-4.028382,0.732433,0.005493,0.027344,1.020401
645,-7.141222,-3.845274,0.671397,-0.002075,0.023560,0.993423
646,-8.484016,-3.906310,0.732433,0.019043,0.009277,1.005386
647,-7.812619,-3.418021,0.976577,0.001587,0.018921,0.991348
648,-7.995727,-3.723201,0.915541,-0.001953,0.022583,0.994156
649,-8.789197,-4.028382,1.159686,-0.001343,0.002075,1.006729
650,-6.958114,-4.089418,0.976577,-0.012573,0.013916,0.974624
651,-9.643702,-5.004959,1.403830,-0.001099,0.028931,0.969375
652,-12.939651,-6.408789,2.136263,-0.017456,0.012573,0.956680
653,-14.343481,-7.873655,2.990768,0.008667,0.022950,0.951797
654,-17.456321,-8.422980,2.868696,-0.005127,0.028077,0.970840
655,-20.508125,-9.887846,3.234913,0.023438,-0.000122,1.002945
656,-18.554971,-8.606088,2.807660,0.036255,0.000488,1.026505
657,-18.677043,-7.690547,2.685588,0.011475,-0.006348,1.019669
658,-18.371862,-7.507439,2.075227,0.016358,-0.000855,0.990982
659,-19.287404,-7.385367,2.014191,0.012940,0.004273,1.002701
660,-21.789883,-7.751583,1.892119,-0.003540,0.021363,0.941543
661,-29.053178,-9.399557,1.586938,0.007568,0.026123,0.960342
662,-34.790570,-11.291676,1.098650,0.020508,0.000122,0.951797
663,-37.537194,-11.108568,0.061036,0.016480,0.014282,0.947280
664,-43.213550,-10.864424,0.244144,0.014038,0.059815,0.993545
665,-45.471885,-7.446403,-0.610361,0.116091,0.116579,0.896010
666,-72.144656,-5.981537,-0.366217,-0.023560,-0.025635,0.999527
667,-67.689021,-5.676356,-1.159686,0.048341,-0.061524,1.003433
668,-63.965820,-3.906310,-3.967346,0.029297,-0.008057,0.975235
669,-72.571908,-2.380407,-1.953155,-0.001465,-0.082887,1.211566
670,-71.473259,2.624552,-5.310140,0.010620,-0.111086,1.019303
671,-67.566949,2.441444,-8.850233,-0.035889,-0.135744,1.076310
672,-72.938125,1.342794,-15.259022,0.041260,-0.181399,1.019547
673,-79.774166,9.338521,-8.117800,0.101320,-0.221927,1.114031
674,-68.360418,10.437171,-3.112840,0.099733,-0.182986,1.061051
675,-63.050278,14.587625,-1.892119,0.085695,-0.092164,1.006363
676,-70.191501,17.395285,3.234913,-0.004395,0.039673,0.928603
677,-95.704585,16.052491,4.028382,0.021607,0.054566,0.795789
678,-105.775540,12.573434,9.399557,-0.351446,0.574594,1.781277
679,-120.180056,1.647974,23.132677,-0.095949,0.019409,0.854871
680,-138.063630,16.357671,-16.968032,0.169436,0.539315,0.710826
681,-278.446632,12.573434,-16.418708,0.051514,0.222538,1.518944
682,-396.429389,15.381094,17.212177,0.098024,0.391119,1.251850
683,-471.076524,40.344854,9.033341,0.047608,0.068849,1.329244
684,-531.929503,60.791943,2.014191,0.282231,-0.057984,1.686305
685,-569.222553,94.117647,2.014191,0.271855,0.082155,1.183856
686,-632.761120,124.513619,40.466926,-0.156252,-1.755642,1.999969
687,-563.424125,139.528496,73.365377,-1.755032,-0.047608,1.999969
688,-56.458381,90.577554,-23.926146,-0.884169,-0.268925,1.999969
689,129.396506,114.869917,-21.240558,-1.032609,0.681895,1.917266
690,-26.306554,88.624399,35.950256,-0.657725,0.617319,1.308248
691,-79.957275,29.053178,75.623713,-0.225956,0.208743,1.016129
692,36.682689,16.357671,64.759289,0.100465,0.338140,0.701427
693,45.960174,-13.061723,57.068742,0.375128,0.667979,0.456794
694,8.422980,-38.635843,46.753643,0.578866,0.565438,0.906386
695,52.491035,-43.579767,18.310826,0.654063,0.584970,1.207660
696,88.868544,-41.748684,-11.535821,0.621714,0.676280,1.187518
697,101.564050,-40.955215,-35.767147,0.496223,0.565682,1.156390
698,129.945830,-41.565576,-56.763561,0.326177,0.455085,1.066789
699,150.026703,-47.302968,-70.313573,0.157351,0.366949,0.965103
700,162.233921,-52.918288,-76.905470,-0.016968,0.250248,1.023453
701,178.469520,-54.016938,-78.248264,-0.178714,0.161746,1.150408
702,196.047913,-50.110628,-75.074388,-0.344976,0.064454,1.196918
703,211.490043,-43.030442,-67.200732,-0.453010,-0.027832,1.188251
704,224.795911,-34.363317,-56.397345,-0.526131,-0.100710,1.083024
705,231.815061,-28.015564,-43.579767,-0.550301,-0.147585,1.009781
706,235.538262,-24.658579,-30.762188,-0.530159,-0.163699,0.994278
707,236.881056,-22.766461,-19.104295,-0.440192,-0.152224,1.063981
708,237.674525,-20.508125,-11.657893,-0.305180,-0.146487,1.128801
709,237.613489,-13.244831,-11.108568,-0.137819,-0.164675,1.105486
710,230.472267,4.882887,-17.456321,-0.046754,-0.215213,1.044572
711,216.495003,27.893492,-27.344167,-0.035523,-0.309209,0.955093
712,199.526970,49.195087,-33.813993,-0.140505,-0.359747,1.027115
713,182.619974,60.486763,-34.546426,-0.267338,-0.333013,1.355489
714,173.769741,62.073701,-28.198672,-0.364996,-0.324834,1.890166
715,184.451057,60.181582,-17.700465,-0.376471,-0.366094,1.999969
716,209.475853,58.838788,-8.484016,-0.272221,-0.441657,1.985138
717,221.133745,60.486763,-4.089418,-0.117800,-0.483284,1.577661
718,210.635538,64.393072,-3.540093,0.002930,-0.485481,1.479026
719,198.306249,62.806134,-4.821851,0.004761,-0.488045,1.742702
720,203.738460,53.284504,-7.263294,0.031617,-0.468147,1.999969
721,222.049287,41.077287,-9.826810,0.101320,-0.476936,1.999969
722,235.477226,33.386740,-14.404517,0.164431,-0.494514,1.766995
723,238.345922,32.227054,-21.118486,0.208011,-0.505867,1.528710
724,230.045014,33.569848,-28.931106,0.172610,-0.514046,1.456077
725,218.631266,35.889220,-36.255436,0.101320,-0.540291,1.545922
726,214.114595,40.222782,-41.992828,0.033204,-0.597665,1.564477
727,209.475853,45.288777,-45.960174,-0.007324,-0.669810,1.516747
728,202.822919,51.148241,-48.035401,-0.029541,-0.771374,1.388083
729,193.118181,55.420768,-48.279545,-0.034058,-0.909560,1.184955
730,176.272221,57.312886,-45.716030,-0.036744,-1.093034,0.968887
731,152.895399,56.824598,-40.588998,-0.005005,-1.338033,0.829480
732,124.391547,58.838788,-33.020523,0.067384,-1.689357,0.731334
733,94.483864,62.561990,-19.470512,0.133059,-2.000031,0.523812
734,72.205692,56.336309,-2.441444,0.183352,-2.000031,0.120729
735,45.654994,31.738766,11.169604,0.222782,-2.000031,-0.265751
736,4.333562,-8.056764,29.663539,0.007324,-1.855009,-0.565316
737,-92.530709,-88.136110,57.373922,0.135378,-1.676905,-1.018936
738,-167.299916,-164.248112,71.961547,0.334478,-1.517601,0.044556
739,-202.822919,-142.092012,63.721675,0.425788,-1.113298,0.992203
740,-125.978485,-56.824598,46.387427,-0.251713,0.175051,1.714748
741,-117.677577,-49.317159,46.570535,-0.307988,0.683238,1.553857
742,-174.868391,-88.014038,69.947356,0.248905,0.708385,0.684581
743,-244.632639,-100.953689,62.317845,0.629892,-0.116945,0.624399
744,-241.641871,-71.778439,56.458381,0.708019,-0.172610,1.522606
745,-223.758297,-54.139010,43.152514,0.986343,-0.023072,1.999969
746,-173.159380,-36.804761,18.432898,1.005753,-0.072267,1.999969
747,-106.691081,-5.615320,-7.934691,0.351812,-0.091798,1.923613
748,-94.850080,11.902037,-9.826810,-0.424445,-0.068849,1.524193
749,-99.183642,-1.892119,15.320058,-1.131365,-0.119997,1.773587
750,-74.341955,-52.429999,37.232013,-0.525399,-0.210330,1.091325
751,-40.222782,-75.501640,33.081559,0.513802,0.367559,1.439353
752,-60.059510,-56.092164,20.813306,1.147601,0.347051,1.999969
753,-52.552071,-2.502480,1.342794,0.015137,-0.053956,0.918837
754,-54.261082,-13.794156,2.685588,-0.585214,0.025025,1.230610
755,-57.801175,-41.077287,6.897078,0.202029,-0.071534,1.224750
756,-19.836728,-23.315785,-2.380407,0.204959,0.076905,1.209979
757,-37.598230,-18.921187,0.915541,-0.113283,0.010498,1.074723
758,-24.902724,-20.752270,-0.854505,0.079957,-0.037110,1.169207
759,-9.216449,-13.305867,-4.211490,0.082521,-0.061646,0.845228
760,-20.447089,-12.512398,-1.098650,-0.003052,0.077028,0.936538
761,-28.442817,-12.329290,0.793469,0.039185,0.002686,1.046891
762,-18.738079,-8.239872,1.342794,0.041505,0.002564,1.110979
763,-15.259022,-4.272526,2.563516,0.023438,0.062989,1.100481
764,-12.085145,-1.342794,3.662165,-0.003052,0.024659,1.050797
765,-9.765774,-3.723201,2.868696,-0.008545,0.013672,1.034195
766,-8.056764,-5.554284,2.319371,0.038453,0.009277,1.032609
767,-5.310140,-5.065995,1.709010,0.020752,0.026612,1.017838
768,-6.286717,-5.188067,0.976577,-0.005982,0.029786,1.011368
769,-5.249104,-5.249104,0.732433,0.030152,0.041871,1.003799
770,-5.676356,-3.967346,0.976577,0.011841,0.034546,0.967056
771,-9.216449,-3.356985,1.342794,-0.016236,0.125246,1.133318
772,-7.934691,-2.258335,2.807660,0.060060,-0.012696,0.986465
773,-9.704738,-0.610361,2.197299,0.014405,0.006226,0.994522
774,-9.277485,-0.610361,2.990768,0.031128,0.016114,1.037613
775,-6.225681,0.610361,2.197299,0.006470,0.016114,1.010391
776,-5.981537,-0.061036,1.831083,0.010132,0.019898,0.984756
777,-6.897078,-0.732433,1.159686,0.014282,0.015747,1.006119
778,-7.080186,-1.281758,1.037613,0.005982,0.006348,1.020035
779,-3.845274,-1.586938,0.549325,-0.000977,0.014527,0.977798
780,-6.469825,-2.929732,0.732433,0.005371,0.028199,0.987320
781,-5.981537,-3.479057,0.488289,0.001953,0.010742,1.000137
782,-5.371176,-3.845274,0.427253,0.015503,-0.001343,1.003433
783,-4.577707,-3.418021,0.488289,0.012696,0.023194,1.017960
784,-4.089418,-3.601129,0.671397,0.015259,-0.003174,0.990738
785,-4.333562,-3.723201,0.427253,0.020996,0.009155,0.981460
786,-5.615320,-4.333562,0.488289,0.003174,0.018189,0.970962
787,-7.568475,-5.432212,0.366217,0.013672,0.025025,0.970108
788,-11.047532,-6.347753,0.305180,0.012818,0.012207,0.961807
789,-11.841001,-6.713970,0.366217,0.028687,0.010254,0.981827
790,-14.038300,-6.530861,0.488289,0.023926,0.006714,0.982315
791,-14.099336,-6.469825,0.671397,0.020264,0.012329,0.966079
792,-17.944610,-6.897078,0.732433,0.031495,0.008911,0.999771
793,-19.592584,-5.859464,0.793469,0.024414,-0.015259,1.002945
794,-18.188754,-5.065995,0.732433,0.039429,-0.010498,1.004776
795,-19.958801,-4.455634,1.037613,0.023560,-0.012696,0.996475
796,-20.996414,-4.394598,1.037613,0.028199,0.001099,0.961929
797,-22.766461,-5.981537,0.244144,-0.012451,0.008057,0.979995
798,-23.682002,-8.056764,-0.244144,0.028565,-0.011475,0.982803
799,-25.085832,-7.995727,-0.488289,0.036622,-0.027466,1.023819
800,-22.949569,-6.958114,-0.854505,0.030762,-0.040162,0.991226
801,-23.376822,-6.836042,-0.183108,0.032837,-0.011719,0.966934
802,-28.076600,-7.507439,1.342794,0.051514,-0.033936,0.996231
803,-28.259709,-5.188067,1.831083,0.082399,-0.004395,1.082414
804,-31.799802,-2.868696,3.234913,-0.013184,-0.010498,1.080095
805,-30.151827,-0.061036,4.028382,0.093263,0.044190,0.957778
806,-40.711070,6.164645,4.028382,-0.020874,0.023804,1.011734
807,-49.561303,1.403830,2.441444,0.019287,-0.039185,0.985855
808,-41.748684,1.953155,-3.112840,-0.035523,-0.011475,0.980484
809,-54.749371,-0.427253,-6.286717,-0.014038,0.003418,0.978897
810,-51.331350,1.281758,-17.029068,-0.090578,-0.087404,0.916396
811,-49.256123,-4.760815,-21.667811,0.001587,-0.154543,1.081559
812,-57.129778,-0.915541,-26.123445,0.009888,-0.145388,0.877211
813,-76.661326,1.281758,-23.010605,0.169680,-0.190555,1.095232
814,-65.308614,4.821851,-13.733120,0.186038,-0.264042,1.076799
815,-53.223468,10.986496,3.906310,0.148318,-0.190066,1.100847
816,-54.200046,18.677043,6.591897,0.083497,0.076905,0.999161
817,-74.830243,27.344167,-4.699779,0.065309,0.161868,0.924819
818,-111.512932,26.855879,3.356985,-0.017334,0.315557,0.671031
819,-155.214771,17.944610,3.234913,-0.296635,0.400275,0.853773
820,-192.141604,-15.686275,6.591897,0.005371,0.832044,0.617197
821,-330.083162,-21.484703,-14.770733,-0.114015,0.601328,1.762844
822,-510.811017,-42.236973,-6.042573,-0.403571,0.388556,1.363912
823,-657.724880,-94.911116,17.578393,-0.274784,0.105837,1.213397
824,-770.092317,-135.439078,30.579080,0.081178,-0.114015,1.353658
825,-832.349126,-143.312734,36.926833,0.207645,-0.479622,0.938491
826,-1102.006561,-159.914549,177.615015,-1.514549,-0.443732,1.999969
827,-339.909972,-48.584726,46.814679,-1.047868,-1.302510,1.999969
828,236.087587,15.442130,-41.748684,-0.386481,0.558724,1.999969
829,162.722210,57.618067,-30.457008,-0.005737,1.339864,1.817899
830,-29.236286,10.803388,23.865110,-0.496834,0.886610,1.171893
831,-65.247578,-30.273899,42.359045,-0.051759,0.252323,0.806897
832,80.750744,-8.850233,19.409476,-0.035645,0.396002,0.685191
833,81.177996,-10.742351,10.742351,0.154055,0.726696,0.495857
834,26.977951,-7.263294,1.525902,0.161135,0.490364,0.845838
835,78.675517,8.850233,-17.090105,0.115846,0.445441,0.928359
836,113.649195,6.347753,-30.518044,0.052003,0.559701,0.808972
837,110.597391,-11.047532,-36.011292,0.048829,0.493904,0.944106
838,139.833677,-17.395285,-44.739452,0.025269,0.442390,1.121111
839,168.154421,-11.596857,-54.261082,-0.014160,0.426764,1.133928
840,182.192721,0.732433,-60.975052,-0.098878,0.324224,1.205951
841,205.386435,16.235599,-64.332036,-0.207523,0.223636,1.287129
842,230.777447,27.710384,-62.745098,-0.270756,0.155398,1.283833
843,250.431067,33.630884,-56.214237,-0.277348,0.095338,1.284565
844,269.108110,35.889220,-48.035401,-0.207279,0.038453,1.255756
845,279.545281,33.081559,-43.030442,0.078981,-0.088380,1.153826
846,285.160601,29.968719,-49.561303,0.208499,-0.214603,1.190814
847,300.480659,38.879988,-62.561990,0.280522,-0.228397,1.222187
848,297.245747,43.335622,-75.318532,0.350225,-0.239506,1.360128
849,296.757458,54.139010,-89.784085,0.386114,-0.310674,1.475608
850,296.025025,67.933165,-104.859998,0.326299,-0.470954,1.424582
851,291.630427,85.877775,-114.625772,0.127321,-0.655406,1.352071
852,281.193256,101.014725,-112.001221,-0.193973,-0.772351,1.211810
853,267.887388,105.165179,-97.352560,-0.416999,-0.782605,1.248798
854,248.050660,113.221942,-74.097810,-0.589731,-0.729625,1.376608
855,228.580148,121.217670,-45.471885,-0.656504,-0.698985,1.726345
856,220.401312,129.030289,-14.465553,-0.646860,-0.665782,1.999969
857,229.129473,127.992676,14.343481,-0.526864,-0.661997,1.999969
858,254.093233,121.339742,36.194400,-0.291386,-0.681163,1.999969
859,280.216678,119.508660,47.364004,-0.038819,-0.741344,1.999969
860,291.020066,125.612268,51.026169,0.079103,-0.787121,1.999969
861,283.024338,130.189975,53.223468,0.063722,-0.824964,1.752956
862,268.253605,126.588846,58.106355,-0.041382,-0.849866,1.741726
863,256.656748,119.691768,66.651408,0.177249,-0.868055,1.747585
864,254.947738,139.772641,69.092851,0.680064,-0.832898,1.662745
865,216.372931,143.862058,68.787671,0.550423,-1.089250,1.619654
866,200.320439,122.438392,66.651408,0.655161,-1.450340,1.609277
867,178.042268,94.789044,50.659953,0.920302,-1.996490,1.436301
868,154.482338,91.798276,20.752270,1.397360,-2.000031,1.046769
869,135.439078,131.654841,-47.730220,1.532738,-2.000031,0.348272
870,124.513619,182.986191,-93.751431,1.046281,-2.000031,-0.699229
871,37.842374,149.599451,-78.004120,0.283818,-2.000031,-1.358053
872,-53.528649,23.682002,-27.771420,-0.634653,-2.000031,-2.000031
873,-179.568170,-203.433280,43.396658,-0.000855,-2.000031,-1.413596
874,-261.478599,-315.922789,60.181582,1.087541,-1.493187,0.942519
875,-156.435492,-195.986877,27.832456,0.159915,-0.171023,1.999969
876,-118.959335,-123.109789,6.958114,-0.777844,0.965591,1.999969
877,-148.073548,-106.691081,53.467613,-0.795056,0.606332,1.322652
878,-214.785992,-109.559777,89.600977,0.363165,-0.269413,-0.505745
879,-250.186923,-100.282292,90.638590,1.313497,0.004273,-0.132937
880,-305.241474,-71.290150,61.768521,1.732692,0.098634,1.881132
881,-290.714885,-42.969406,33.142596,1.565209,-0.123171,1.999969
882,-189.944305,-5.920500,-13.855192,0.317510,-0.437385,1.999969
883,-148.867018,-18.188754,-16.540780,-1.980377,-0.326055,1.999969
884,-153.017472,-98.329137,58.228428,-1.627100,-0.784436,1.619898
885,-60.303655,-144.533455,52.491035,1.536400,0.177005,1.999969
886,-33.142596,-58.777752,15.197986,1.999786,0.213504,1.999969
887,-23.987182,23.315785,-6.469825,-0.870741,0.061402,0.929335
888,-41.565576,-31.189441,17.334249,-0.509773,0.068116,0.987564
889,-26.733806,-41.382467,8.911269,0.775769,0.225834,1.451194
890,-28.747997,-0.061036,-1.953155,0.056764,-0.028687,1.149798
891,-25.085832,-2.807660,2.990768,-0.280888,-0.039185,1.047135
892,-14.160372,-10.742351,0.671397,0.203983,0.090578,1.190692
893,-17.944610,4.089418,1.831083,0.072999,-0.017456,1.120500
894,-8.178836,10.803388,1.647974,-0.031495,0.071901,0.995621
895,-17.029068,13.000687,4.028382,0.076783,0.075807,1.030900
896,-18.677043,17.151141,4.699779,-0.019165,0.005005,1.034318
897,-14.770733,16.052491,4.943923,-0.021851,0.014527,1.038956
898,-13.366903,16.357671,5.371176,0.019776,0.026978,1.039200
899,-13.183795,17.151141,5.432212,-0.054810,0.011231,0.994766
900,-10.193027,14.221408,4.699779,-0.068849,0.057862,0.928725
901,-16.723888,10.315099,4.699779,-0.059205,0.041260,0.963272
902,-17.456321,7.446403,4.394598,-0.079713,0.015503,0.966445
903,-15.014878,4.638743,3.906310,-0.055421,0.019654,0.989151
904,-16.479744,2.319371,3.479057,-0.053468,0.021729,0.992569
905,-15.075914,0.610361,2.990768,-0.038819,0.000122,1.003067
906,-13.550011,-0.732433,2.441444,-0.037476,0.005737,0.990738
907,-14.404517,-1.953155,2.441444,-0.047364,0.008667,0.992569
908,-12.939651,-3.173877,2.014191,-0.045777,0.005737,0.978042
909,-13.305867,-4.882887,1.770047,-0.064088,0.009522,0.950820
910,-14.831769,-7.141222,1.586938,-0.057374,0.025269,0.971939
911,-18.310826,-8.789197,1.525902,-0.040040,0.001465,0.988296
912,-17.395285,-9.094377,1.342794,-0.028931,-0.004639,0.986954
913,-18.616007,-9.460594,1.647974,-0.033692,-0.001709,1.001602
914,-18.005646,-7.202258,-1.525902,-0.004517,-0.191409,0.803113
915,-15.075914,-8.972305,0.976577,-0.047486,0.003296,1.095598
916,-17.578393,-10.254063,1.892119,-0.034424,-0.032349,1.040543
917,-12.329290,-10.376135,1.037613,-0.020874,-0.060426,1.030411
918,-6.652934,-10.070954,0.427253,-0.071778,0.013184,1.127092
919,-1.892119,-11.779965,0.793469,-0.012940,0.053956,0.872694
920,-8.545052,-12.939651,-0.122072,-0.021241,-0.018677,0.931167
921,-8.606088,-13.183795,-0.549325,-0.025391,-0.025757,1.008316
922,-8.484016,-13.183795,-0.549325,-0.006226,-0.017945,0.989639
923,-11.779965,-12.817578,0.183108,0.006836,-0.008423,1.011490
924,-11.169604,-11.779965,0.427253,0.000855,-0.024414,0.996231
925,-12.085145,-10.742351,0.732433,-0.002319,-0.030518,0.991714
926,-14.038300,-10.254063,0.854505,-0.005859,-0.030396,0.979385
927,-16.784924,-10.376135,0.915541,0.014893,-0.034546,0.991348
928,-17.578393,-9.338521,0.732433,0.002075,-0.032349,0.996109
929,-19.043259,-9.033341,0.793469,0.010132,-0.029664,0.977920
930,-22.339208,-7.995727,1.159686,-0.014282,-0.051881,0.970596
931,-21.301595,-8.422980,1.037613,0.005982,-0.025147,0.985855
932,-24.170291,-8.422980,0.061036,-0.012085,-0.002930,0.957168
933,-30.457008,-10.009918,0.366217,-0.007568,-0.025513,0.979507
934,-31.372549,-10.315099,-1.037613,-0.001709,-0.020874,0.985489
935,-35.278859,-10.131991,-2.258335,0.023682,-0.045045,1.021866
936,-36.621653,-8.117800,-0.122072,0.036133,-0.061891,1.001724
937,-38.941024,-6.103609,2.014191,-0.012940,-0.096559,0.999039
938,-35.095750,-5.371176,3.784237,0.054322,-0.087037,1.031632
939,-37.293050,-2.929732,4.394598,-0.012451,-0.084108,1.008072
940,-35.461967,-3.967346,4.089418,0.009644,-0.085328,1.062638
941,-32.410163,-1.403830,4.394598,0.008301,-0.089113,0.981338
942,-37.048905,-2.502480,-0.427253,-0.008789,-0.060792,0.958877
943,-37.537194,-2.929732,-0.732433,-0.020386,-0.082521,0.971695
944,-39.856565,-3.173877,-1.342794,-0.041016,-0.046632,0.985367
945,-30.945296,2.685588,-10.376135,0.057862,-0.397589,0.810315
946,-40.894179,-3.540093,-17.212177,-0.009155,-0.090211,0.983536
947,-58.106355,-5.554284,-19.714656,0.033936,-0.222538,1.000992
948,-55.786984,-4.821851,-1.953155,0.111696,-0.223392,1.088029
949,-50.720989,-2.075227,-0.488289,0.032105,-0.206912,1.011368
950,-38.208591,-2.624552,-8.178836,0.013550,-0.020020,0.968276
951,-56.336309,-3.234913,-18.188754,0.015869,0.235111,0.951186
952,-111.573968,1.281758,-23.498894,0.099245,0.215335,0.772595
953,-128.419928,8.789197,-13.122759,-0.040284,0.463630,0.803479
954,-191.775387,-9.582666,-40.650034,-0.070680,0.102785,0.748913
955,-259.220264,-17.334249,-18.921187,0.136355,1.080827,0.882338
956,-463.263905,-20.019837,-49.317159,0.165896,0.409186,1.491356
957,-614.023041,-63.233387,1.403830,-0.622080,0.162234,1.822782
958,-718.944076,-148.439765,16.113527,-0.173220,-0.319585,0.963760
959,-776.989395,-182.436866,40.711070,-0.046876,-0.199344,0.718395
960,-869.947356,-210.147250,60.425727,0.628428,-2.000031,1.999969
961,-895.826658,-161.623560,215.030137,-0.448981,-1.002090,1.999969
962,-135.378042,-124.269474,-11.413748,-0.075441,-1.028824,1.999969
963,212.161440,-60.486763,-11.718929,-0.290654,0.843641,1.999969
964,61.036088,12.512398,-36.194400,0.017212,1.025162,1.999969
965,-60.669871,9.216449,23.620966,-0.411139,0.787243,1.999969
966,8.300908,19.043259,19.897765,-0.166751,0.256840,1.696803
967,154.421302,42.420081,8.239872,-0.214969,0.406378,1.056291
968,145.326925,24.719615,13.672084,-0.044190,0.527230,0.669444
969,113.282979,11.596857,17.883574,0.028077,0.354009,0.805798
970,156.008240,15.991455,9.399557,0.141726,0.280278,0.784924
971,185.244526,17.212177,-1.220722,0.125612,0.323857,0.611704
972,177.187762,4.577707,-6.042573,0.138430,0.282963,0.614878
973,191.592279,-2.502480,-14.770733,0.115602,0.229862,0.668711
974,206.118868,-3.662165,-23.193713,0.085939,0.242924,0.738903
975,206.912337,-2.990768,-29.175250,0.026612,0.203494,0.915663
976,219.607843,3.906310,-33.875029,-0.048951,0.132815,1.169696
977,239.505608,15.075914,-35.889220,-0.133181,0.061036,1.260273
978,257.206073,26.123445,-33.264668,-0.183963,-0.020630,1.299092
979,273.441672,33.997101,-27.222095,-0.203861,-0.108400,1.286152
980,288.151370,36.987869,-19.287404,-0.184207,-0.158083,1.356222
981,299.443046,36.255436,-10.986496,-0.112184,-0.182742,1.487205
982,313.542382,36.804761,-7.019150,-0.014771,-0.248905,1.496117
983,325.078203,44.434272,-7.934691,0.100343,-0.337041,1.303609
984,319.829099,60.303655,-13.794156,0.206058,-0.542611,0.895033
985,295.902953,85.267414,-16.845960,0.304936,-0.625010,0.635752
986,266.727703,89.967193,-21.423667,0.338262,-0.516365,0.738781
987,240.177005,62.073701,-25.757229,0.358282,-0.418708,1.090105
988,228.763256,42.786297,-35.706111,0.421759,-0.310307,1.623682
989,222.537575,40.955215,-48.035401,0.386236,-0.304570,1.999969
990,226.688029,54.566262,-58.838788,0.266484,-0.427497,1.999969
991,246.219577,67.383841,-67.566949,0.078737,-0.563363,1.999969
992,267.948425,72.144656,-66.712444,-0.046021,-0.626596,1.999969
993,282.597086,68.726635,-61.829557,-0.068727,-0.758923,1.999969
994,295.048447,74.341955,-57.679103,0.049317,-0.788464,1.999969
995,286.381323,83.985657,-55.359731,0.133547,-0.813123,1.970001
996,279.423209,91.309987,-55.603876,0.208499,-0.814710,1.883207
997,274.235142,92.286564,-58.716716,0.315679,-0.786755,1.834745
998,260.257877,96.131838,-63.599603,0.419074,-0.837903,1.771389
999,249.088273,106.263828,-69.153887,0.382086,-0.977188,1.565454
1000,232.486458,108.278019,-71.656367,0.183474,-1.214496,1.286885
1001,203.982605,102.296483,-65.674830,-0.011597,-1.589136,1.140887
1002,168.154421,97.901884,-49.561303,-0.014282,-2.000031,1.274678
1003,129.152361,100.831617,-31.372549,0.249638,-2.000031,1.270283
1004,114.747845,125.490196,-28.015564,0.470344,-2.000031,0.627695
1005,129.213397,154.482338,-27.771420,0.383551,-2.000031,-0.577646
1006,64.820325,124.086366,-10.498207,0.063722,-2.000031,-1.320211
1007,-44.739452,17.517357,36.804761,-0.071656,-1.830594,-0.734020
1008,-119.264515,-95.338369,64.637217,-0.002075,-2.000031,-1.843656
1009,-222.293431,-199.771115,95.033188,0.669078,-1.329732,0.163333
1010,-223.514153,-199.465934,73.731594,0.767956,-0.759167,1.213275
1011,-110.658427,-121.156634,37.598230,0.231571,0.612070,1.870390
1012,-124.879835,-96.131838,38.391699,-0.017945,0.999527,1.540551
1013,-235.599298,-111.696040,69.886320,0.312871,0.549813,0.339971
1014,-307.804990,-104.493782,63.294423,0.859754,-0.307134,0.609018
1015,-296.879530,-62.256809,47.058824,0.955459,-0.275151,1.999969
1016,-241.580835,-42.175937,26.977951,1.112566,-0.096071,1.999969
1017,-172.487984,1.709010,-2.685588,0.500130,-0.241581,1.999969
1018,-135.317006,23.071641,-9.826810,-0.599863,-0.223636,1.597559
1019,-168.276493,-11.047532,28.747997,-1.761135,-0.375616,1.999969
1020,-125.551232,-86.549172,55.115587,-0.666270,-0.652354,1.458518
1021,-41.748684,-114.076448,44.007019,0.840223,0.339239,1.843290
1022,-77.943084,-74.219883,26.611734,1.602075,0.223880,1.999969
1023,-46.448463,-7.263294,9.704738,-0.210575,-0.038087,1.360494
1024,-46.204318,-29.785611,11.841001,-0.634409,0.028199,0.762707
1025,-57.801175,-54.139010,9.704738,0.587045,0.100343,1.495262
1026,-46.997787,-17.944610,0.549325,0.241581,-0.108034,1.389059
1027,-27.344167,-12.390326,-1.159686,-0.241703,-0.082765,1.079362
1028,-16.357671,-20.813306,-3.173877,0.113649,0.107179,1.054337
1029,-26.916915,-13.000687,-1.098650,0.049195,-0.024537,1.070085
1030,-20.019837,-9.460594,0.793469,-0.046387,-0.004883,1.058488
1031,-15.014878,-9.399557,-0.366217,0.060426,0.057252,1.008927
1032,-23.010605,-5.493248,1.770047,0.057008,0.008545,1.057023
1033,-17.761501,-1.037613,-0.427253,0.043214,-0.128542,0.872572
1034,-15.259022,-1.525902,1.709010,0.038087,0.019043,1.083635
1035,-15.442130,0.122072,2.746624,0.031006,0.001221,1.021256
1036,-13.000687,0.610361,2.685588,-0.004028,0.009277,1.001480
1037,-13.672084,-0.732433,2.197299,-0.024659,0.003784,0.975723
1038,-13.672084,-2.807660,1.770047,-0.020630,0.008911,0.974136
1039,-15.197986,-1.525902,-1.525902,0.108278,-0.260868,0.592905
1040,-13.916228,-5.004959,0.549325,-0.013184,-0.002441,1.078874
1041,-16.357671,-8.239872,2.136263,-0.039551,-0.011719,0.949966
1042,-13.061723,-11.474784,1.586938,-0.003906,-0.006470,0.966445
1043,-14.099336,-13.122759,0.854505,-0.022217,-0.015015,0.998672
1044,-14.465553,-15.564202,0.366217,-0.007446,-0.032593,1.029435
1045,-9.338521,-15.869383,-1.770047,0.001587,0.045777,1.119646
1046,-5.371176,-12.024109,0.000000,0.027466,0.008057,1.026749
1047,-6.347753,-10.925460,0.366217,0.012818,-0.024048,1.025650
1048,-6.713970,-10.009918,0.000000,0.022339,-0.007691,0.950698
1049,-11.596857,-9.948882,1.525902,0.021118,-0.023316,0.996963
1050,-11.535821,-8.789197,1.892119,0.011597,0.011963,0.993912
1051,-13.916228,-8.850233,2.502480,0.024781,-0.019409,0.986465
1052,-14.282444,-8.484016,2.502480,0.013428,-0.031006,1.022110
1053,-11.230640,-8.422980,1.709010,0.003540,-0.013306,1.001114
1054,-11.169604,-8.789197,1.220722,0.026856,-0.017212,0.986831
1055,-11.230640,-8.850233,0.671397,0.031617,-0.024781,0.969741
1056,-12.573434,-9.277485,0.366217,0.019165,-0.020630,0.992203
1057,-13.611048,-9.399557,0.427253,0.038453,-0.006592,0.977188
1058,-17.456321,-9.765774,0.061036,0.003052,0.005982,0.955337
1059,-22.766461,-11.108568,0.061036,0.023438,-0.010376,0.963149
1060,-24.597543,-11.230640,0.000000,0.042237,-0.037232,0.995743
1061,-23.804074,-10.070954,0.305180,0.051392,-0.054078,1.037491
1062,-21.423667,-8.300908,0.488289,0.052735,-0.056153,1.024552
1063,-21.362631,-6.530861,1.037613,0.050538,-0.048096,1.014664
1064,-20.386053,-5.310140,1.037613,0.036011,-0.059327,1.005020
1065,-19.348440,-5.127031,0.976577,0.038331,-0.053590,0.986954
1066,-20.386053,-5.615320,0.671397,0.016602,-0.047974,0.968032
1067,-22.095064,-6.958114,0.793469,0.033204,-0.034791,0.943130
1068,-25.329976,-7.934691,1.647974,0.022950,0.024048,1.030289
1069,-30.029755,-6.775006,0.183108,0.028321,-0.008423,0.979507
1070,-36.194400,-5.493248,-0.244144,0.026001,-0.059327,0.965835
1071,-36.926833,-5.676356,0.549325,0.064210,-0.076417,0.992569
1072,-38.330663,-2.929732,3.356985,0.071534,-0.023194,0.972183
1073,-43.762875,2.685588,7.263294,0.064454,-0.110842,0.989883
1074,-54.749371,3.967346,11.291676,0.066285,-0.096559,1.027359
1075,-49.500267,8.178836,7.934691,0.026246,-0.029175,0.988052
1076,-56.885634,7.202258,4.150454,0.028199,-0.096437,1.061418
1077,-54.688334,4.394598,-0.183108,-0.040040,-0.132204,1.039567
1078,-36.987869,1.586938,-11.596857,-0.077150,-0.108766,1.092546
1079,-34.973678,1.403830,-20.630198,-0.057008,-0.011231,1.079118
1080,-62.928206,3.845274,-29.541466,0.081910,-0.277592,1.096330
1081,-44.129091,4.394598,-4.882887,0.213138,-0.290654,1.089860
1082,-39.124132,9.765774,0.549325,0.148074,-0.255619,1.084977
1083,-18.310826,13.122759,3.540093,0.013550,0.056275,0.975845
1084,-39.185168,13.000687,-11.169604,0.054444,0.351446,0.916152
1085,-106.202792,21.789883,-15.747311,0.058961,0.289921,0.897353
1086,-167.788205,25.268940,0.244144,-0.106813,0.466682,0.475105
1087,-201.297017,-8.789197,-3.295949,-0.324590,0.661997,0.746838
1088,-335.820554,-30.457008,-8.361944,-0.052125,1.222431,1.999969
1089,-621.652552,-28.442817,-6.958114,-0.280888,0.253666,1.388327
1090,-794.384680,-85.267414,54.810407,-0.563607,-0.156497,1.609522
1091,-846.936751,-100.526436,68.665599,0.325200,-0.200931,1.116472
1092,-997.268635,-85.572595,130.800336,0.440436,-2.000031,1.999969
1093,-636.362249,-8.300908,150.514992,-1.755764,-1.143938,1.999969
1094,159.975586,-1.586938,-26.489662,-0.458381,0.492927,1.999969
1095,307.438773,35.339895,-14.160372,-0.968276,1.040665,1.999969
1096,83.924620,-5.432212,8.056764,-0.576303,0.488899,1.129290
1097,-48.645762,-95.521477,74.341955,-0.244877,0.412848,0.384283
1098,0.000000,-107.667659,63.965820,0.119509,0.187381,0.722789
1099,101.686122,-65.491722,29.175250,0.073854,0.465095,0.696666
1100,72.999161,-36.072328,13.427939,0.103517,0.541634,0.560311
1101,57.862211,-20.080873,3.112840,-0.028809,0.403815,0.555062
1102,98.084993,-20.996414,-9.216449,-0.080690,0.422492,0.545541
1103,111.085679,-32.776379,-13.977264,-0.122194,0.463142,0.535164
1104,115.236133,-41.016251,-16.540780,-0.143801,0.412238,0.738048
1105,141.359579,-34.058137,-21.972992,-0.165408,0.413458,0.947158
1106,163.454643,-21.240558,-26.428626,-0.211063,0.393805,1.097795
1107,185.366598,-8.911269,-28.320745,-0.270024,0.294926,1.092790
1108,211.551080,1.342794,-28.076600,-0.304570,0.206424,0.964736
1109,225.406271,6.469825,-24.841688,-0.274540,0.146853,0.846326
1110,233.707179,10.193027,-21.179522,-0.220706,0.089601,0.761486
1111,239.749752,14.160372,-19.104295,-0.157229,0.050660,0.716808
1112,240.604257,17.639429,-18.249790,-0.090700,0.059571,0.838025
1113,239.932860,22.278172,-19.714656,-0.041016,0.000488,0.989883
1114,245.120928,31.982910,-23.315785,0.007935,-0.070069,1.027726
1115,247.440299,44.007019,-25.452049,0.007202,-0.008179,1.198383
1116,241.947051,49.073014,-30.273899,0.059815,-0.135378,1.180804
1117,248.783093,56.519417,-36.865797,0.124758,-0.172366,1.216571
1118,243.900206,63.965820,-43.030442,0.127077,-0.186526,1.297627
1119,231.631952,73.426413,-46.448463,0.099001,-0.212161,1.558984
1120,229.861906,84.718090,-49.378195,0.089967,-0.239017,1.898344
1121,237.308309,90.882734,-49.195087,0.044068,-0.270634,1.999969
1122,253.788052,87.891966,-45.716030,0.003540,-0.334478,1.999969
1123,278.263523,79.530022,-41.687648,0.016846,-0.497932,1.999969
1124,292.057679,77.821012,-39.429313,0.089235,-0.534432,1.922881
1125,275.761044,77.943084,-37.170977,0.080446,-0.553353,1.999969
1126,276.737621,75.196460,-36.133364,0.074830,-0.571176,1.999969
1127,291.752499,72.083619,-35.828183,0.075563,-0.583017,1.999969
1128,299.748226,72.144656,-36.316472,0.147585,-0.636240,1.999969
1129,297.734035,78.736553,-40.100710,0.399298,-0.708995,1.480003
1130,272.404059,92.286564,-49.561303,0.542855,-0.672740,1.339010
1131,227.908751,96.925307,-54.566262,0.469245,-0.721569,1.532860
1132,219.729915,85.694667,-57.618067,0.439094,-0.847303,1.432151
1133,211.367971,70.130465,-60.181582,0.400031,-0.990616,0.951797
1134,165.835050,55.848020,-61.341268,0.251225,-1.293355,0.839734
1135,115.968566,53.406577,-57.373922,0.083253,-1.831815,1.091325
1136,77.759976,60.914015,-44.251164,0.171389,-2.000031,1.191547
1137,55.176623,77.576867,-29.907683,0.400519,-2.000031,1.158221
1138,68.360418,94.178683,-27.100023,0.247562,-2.000031,-0.738781
1139,18.799115,17.517357,7.385367,0.216434,-2.000031,-2.000031
1140,-147.096971,-121.522850,57.557031,0.472786,-2.000031,-1.106950
1141,-224.917983,-196.963455,73.365377,0.856580,-2.000031,0.473762
1142,-253.665980,-164.675364,59.205005,0.664317,-1.263813,1.231586
1143,-105.592432,-87.037461,31.738766,0.075196,0.123781,1.890776
1144,-147.707332,-67.444877,41.260395,0.078859,0.977066,1.376242
1145,-268.680858,-103.578241,54.200046,0.650523,0.437995,0.791638
1146,-297.428855,-76.112001,42.053864,0.829603,-0.329961,1.148455
1147,-276.737621,-61.402304,29.907683,0.820447,-0.087526,1.999969
1148,-260.013733,-29.663539,14.526589,0.619516,-0.446540,1.999969
1149,-156.130312,-0.366217,3.356985,-0.781506,-0.429938,1.999969
1150,-119.874876,-60.975052,20.691234,-1.467552,-0.687510,1.694362
1151,-47.608148,-120.363165,36.804761,-0.156008,-0.273075,1.104387
1152,-81.361105,-134.889754,31.555657,1.950835,0.364874,1.999969
1153,-59.082933,-35.034714,4.333562,0.732311,-0.228397,1.718532
1154,-28.381781,-10.498207,-11.230640,-0.952041,-0.075074,1.153216
1155,-38.513771,-56.275273,12.634470,0.104616,0.081544,1.159075
1156,-25.818265,-38.086519,-2.014191,0.520516,0.050416,1.278828
1157,-36.926833,-13.733120,-1.831083,-0.102541,-0.088258,1.157610
1158,-18.005646,-17.151141,0.488289,0.044190,0.045289,1.065080
1159,-20.935378,-12.695506,-0.793469,0.112551,0.082155,1.017105
1160,-30.395972,-8.850233,2.319371,0.027588,-0.036255,1.152361
1161,-15.442130,-3.112840,1.892119,0.106935,-0.057862,1.018326
1162,-16.784924,3.418021,2.197299,0.038819,0.043702,0.959365
1163,-24.597543,3.845274,4.028382,0.003906,0.019409,1.041032
1164,-20.141909,5.065995,3.479057,0.057740,0.020874,1.051530
1165,-21.179522,7.446403,3.479057,0.036133,0.006836,1.021866
1166,-21.179522,8.178836,3.601129,0.022095,0.002197,1.027604
1167,-20.874342,8.545052,3.540093,0.020142,0.000977,1.046159
1168,-18.371862,7.446403,4.455634,0.009155,0.056031,0.971084
1169,-19.043259,7.080186,3.356985,-0.001343,-0.000366,0.957656
1170,-21.789883,6.225681,3.112840,0.017090,-0.014771,1.019791
1171,-20.447089,5.981537,2.868696,0.008667,-0.039673,1.022965
1172,-17.456321,5.981537,2.746624,-0.000488,-0.033326,1.029679
1173,-13.427939,5.981537,2.319371,-0.007813,-0.023072,0.995865
1174,-14.099336,4.760815,2.258335,0.005371,-0.020020,0.986343
1175,-15.197986,3.723201,2.075227,-0.002564,-0.030152,0.999039
1176,-13.916228,3.051804,1.586938,0.000977,-0.023926,1.009049
1177,-13.794156,3.173877,1.403830,-0.011231,-0.029541,0.996353
1178,-13.916228,2.502480,1.220722,-0.000488,-0.027832,0.998306
1179,-13.916228,2.624552,1.159686,-0.008179,-0.029297,1.001846
1180,-13.611048,2.319371,1.098650,-0.018189,-0.040894,0.986709
1181,-12.268254,1.403830,1.342794,-0.009033,-0.041382,0.991470
1182,-11.352712,0.488289,1.220722,-0.020142,-0.046509,0.978775
1183,-11.047532,-1.281758,0.915541,-0.017578,-0.041260,0.997696
1184,-10.009918,-2.807660,0.244144,-0.023804,-0.053590,1.007950
1185,-8.178836,-4.516670,-0.793469,-0.006226,-0.057984,0.990494
1186,-7.019150,-5.004959,-1.037613,0.005249,-0.064576,1.006485
1187,-6.164645,-3.540093,-1.220722,0.052979,-0.060914,0.966567
1188,-5.981537,-3.418021,-0.671397,0.000366,-0.040894,1.050065
1189,-11.230640,-3.967346,1.037613,0.000122,-0.047974,0.985977
1190,-10.498207,-3.601129,1.464866,0.016236,-0.044190,0.985855
1191,-11.230640,-3.295949,1.709010,-0.007324,-0.043091,0.975235
1192,-12.695506,-4.211490,2.014191,0.008179,-0.061646,0.955825
1193,-15.075914,-5.554284,1.770047,-0.026612,-0.026978,0.939712
1194,-19.470512,-8.545052,0.671397,-0.005371,-0.016602,0.928969
1195,-27.832456,-10.376135,-0.305180,-0.001709,-0.036866,0.989517
1196,-32.898451,-10.986496,-0.671397,0.006226,-0.045899,0.998428
1197,-29.541466,-10.193027,-2.441444,0.028077,-0.061280,1.019059
1198,-30.884260,-8.850233,-3.234913,0.020508,-0.078370,0.992691
1199,-30.884260,-7.812619,-2.075227,0.019532,-0.059327,0.958999
1200,-36.133364,-6.836042,0.000000,-0.010498,-0.062989,0.962661
1201,-39.673457,-7.934691,2.990768,0.042359,-0.072999,0.993790
1202,-43.030442,-7.324331,5.004959,0.011719,-0.158572,1.110735
1203,-39.734493,-1.037613,5.493248,0.054078,-0.123171,0.964004
1204,-38.635843,1.831083,6.713970,0.000488,-0.109499,1.008072
1205,-38.941024,1.953155,6.225681,-0.003906,-0.099245,1.010147
1206,-30.151827,3.967346,6.469825,-0.041993,-0.082033,1.101091
1207,-20.325017,7.202258,2.685588,0.041016,-0.161868,0.872694
1208,-33.142596,1.403830,-8.484016,-0.086183,-0.038575,0.969497
1209,-58.289464,-8.361944,-20.935378,-0.058473,0.000244,1.000137
1210,-72.327764,-8.300908,-21.728847,0.100832,-0.297002,1.047868
1211,-53.711757,-6.042573,-4.577707,0.080079,-0.269535,1.066789
1212,-34.973678,-3.356985,-10.925460,0.020752,-0.220951,1.023087
1213,-26.611734,-7.751583,-13.794156,0.023926,-0.053590,1.029068
1214,-51.697566,-3.601129,-19.287404,0.072755,0.096193,0.979629
1215,-89.784085,0.244144,-25.574121,0.118776,0.112673,0.963394
1216,-106.324865,14.282444,-21.240558,-0.009400,0.276127,0.823377
1217,-137.514305,-1.831083,-39.246204,-0.005371,0.376471,0.675425
1218,-207.766842,-14.404517,-44.251164,-0.147219,0.437018,1.476463
1219,-371.099413,-15.197986,-55.786984,-0.025879,1.086564,1.650782
1220,-588.998245,-25.329976,-34.668498,-0.600839,0.328496,1.980011
1221,-711.131457,-99.732967,-5.065995,-0.447761,-0.076051,0.861097
1222,-782.848859,-147.280079,22.705425,-0.096437,-0.431403,0.855238
1223,-832.776379,-182.131685,27.771420,0.023560,-1.070207,1.020401
1224,-1067.460136,-196.475166,184.634165,-1.229389,-1.388449,1.999969
1225,-374.822614,-133.852140,59.388113,-1.125994,-1.760037,1.999969
1226,154.055085,-95.826658,-14.099336,-0.254643,0.485725,1.999969
1227,133.730068,-22.644388,-11.535821,0.044556,1.419821,1.999969
1228,-33.325704,-12.573434,19.653620,-0.298344,0.916640,1.999969
1229,-43.762875,-20.202945,29.175250,-0.203861,0.384405,1.881743
1230,115.480278,19.104295,14.892805,-0.181765,0.375982,1.154437
1231,148.867018,17.761501,9.399557,-0.093019,0.486946,0.453376
1232,95.399405,-2.502480,18.371862,-0.094362,0.405768,0.496223
1233,104.921035,-12.207218,20.263981,-0.063111,0.251835,0.663584
1234,143.739986,-12.024109,15.686275,-0.022095,0.319707,0.662608
1235,143.434806,-16.723888,14.526589,0.019532,0.349737,0.764050
1236,153.078508,-17.395285,10.193027,0.062989,0.324834,0.972793
1237,182.253758,-11.169604,0.854505,0.095094,0.335576,1.032120
1238,200.381476,-5.615320,-5.981537,0.062623,0.372808,1.047379
1239,210.574502,-0.305180,-14.282444,0.042725,0.252445,1.108782
1240,231.998169,6.591897,-20.080873,0.004517,0.200076,1.252461
1241,248.722057,10.864424,-23.376822,-0.063478,0.079469,1.347921
1242,268.131533,15.197986,-23.254749,-0.122927,-0.029053,1.484154
1243,291.325246,19.775692,-21.484703,-0.149294,-0.121706,1.479637
1244,311.589227,25.329976,-18.982223,-0.119875,-0.210330,1.342550
1245,320.805676,24.658579,-16.235599,-0.058961,-0.247440,1.228534
1246,323.125048,21.057450,-16.662852,0.045411,-0.273808,1.223651
1247,321.538109,22.949569,-21.728847,0.127565,-0.322881,1.164202
1248,313.603418,36.255436,-32.532235,0.219364,-0.498177,0.952041
1249,296.696422,61.097124,-43.213550,0.219120,-0.547616,0.768811
1250,265.873198,75.074388,-50.232700,0.206668,-0.495125,0.811170
1251,236.758984,77.210651,-54.932479,0.156497,-0.441535,0.967788
1252,220.096132,66.712444,-58.533608,0.118166,-0.360601,1.562036
1253,201.602197,65.552758,-58.228428,0.058961,-0.318853,1.999969
1254,215.701534,71.900511,-58.960861,-0.016480,-0.542733,1.999969
1255,265.812161,89.295796,-59.449149,-0.018677,-0.683726,1.999969
1256,280.338750,101.014725,-55.786984,-0.028565,-0.710582,1.999969
1257,269.596399,94.972152,-48.157473,0.009766,-0.815564,1.999969
1258,283.756771,91.371023,-45.777066,0.208011,-0.841810,1.999969
1259,283.634699,93.202106,-47.913329,0.408087,-0.791150,1.994537
1260,272.709239,95.033188,-52.796216,0.545663,-0.823743,1.931060
1261,269.291218,95.399405,-61.585412,0.609262,-0.908339,1.830961
1262,259.037156,96.498054,-68.360418,0.588510,-1.033219,1.683986
1263,243.167773,94.666972,-70.618753,0.448005,-1.239155,1.530175
1264,223.331044,85.267414,-65.674830,0.240970,-1.561547,1.394186
1265,199.649043,73.914702,-53.162432,0.062989,-1.962310,1.194232
1266,175.173571,70.069429,-36.255436,0.047120,-2.000031,0.977798
1267,144.106203,73.609522,-18.310826,0.304082,-2.000031,0.637095
1268,106.141756,80.750744,-11.718929,0.572274,-2.000031,0.079347
1269,73.670558,90.577554,-10.376135,0.610239,-2.000031,-0.526131
1270,21.728847,57.068742,10.925460,0.505257,-2.000031,-0.843397
1271,-57.007706,-31.433585,40.039673,0.265629,-2.000031,-0.149783
1272,-157.595178,-152.712291,53.955901,0.819104,-1.922393,-0.679088
1273,-238.345922,-216.495003,41.199359,1.062638,-0.582040,1.556054
1274,-102.174411,-97.291524,6.897078,0.118898,0.489143,1.999969
1275,-80.079347,-42.298009,6.958114,-0.699962,1.193866,1.152239
1276,-198.733501,-85.938811,34.912642,-0.716808,0.511727,-0.327031
1277,-310.917830,-99.000534,58.533608,-0.384405,-0.448859,0.044678
1278,-325.322347,-68.482490,81.666285,0.334478,-0.479377,1.784817
1279,-279.056992,-55.725948,76.966506,1.524193,-0.118410,1.999969
1280,-205.996796,2.075227,28.137636,1.598901,-0.217166,1.999969
1281,-147.707332,5.615320,3.234913,-0.131228,0.088136,1.999969
1282,-139.589532,-22.583352,24.597543,-1.446189,-0.846204,1.999969
1283,-40.344854,-87.159533,35.889220,-0.678965,-0.162600,1.240986
1284,-76.539254,-110.048066,40.955215,1.222797,0.294926,1.999969
1285,-42.175937,-47.974365,14.282444,1.001480,0.159670,1.693141
1286,-52.185855,-13.366903,11.718929,-0.607187,-0.076417,1.099748
1287,-40.955215,-45.227741,11.963073,-0.115846,0.063355,1.138811
1288,-35.461967,-43.457694,-2.014191,0.511971,0.085573,1.284688
1289,-41.138323,-21.667811,-0.793469,-0.062379,-0.036011,1.138079
1290,-27.893492,-25.696193,-1.770047,-0.074220,-0.020264,1.187640
1291,-17.578393,-23.559930,-6.042573,0.182254,0.018677,1.132830
1292,-14.343481,-13.000687,-1.953155,0.029541,0.021363,1.118791
1293,-11.108568,-10.437171,0.488289,0.036622,0.025391,1.041520
1294,-8.361944,-6.897078,0.061036,0.092287,0.067994,1.045914
1295,-12.268254,-2.380407,2.319371,0.053468,0.051026,1.025406
1296,-12.512398,0.427253,2.929732,0.031861,0.038331,1.002090
1297,-13.305867,1.953155,2.746624,0.006226,0.028199,1.021744
1298,-11.169604,0.183108,3.906310,-0.004028,0.096193,0.957534
1299,-16.174563,-1.647974,3.601129,-0.003540,0.035157,0.962661
1300,-16.784924,-3.112840,2.868696,-0.038941,0.016358,0.985611
1301,-14.465553,-4.760815,1.892119,0.007691,0.034546,0.977554
1302,-16.784924,-3.784237,2.014191,0.005982,0.031250,1.054093
1303,-13.366903,-3.540093,3.234913,0.029541,0.137087,0.993790
1304,-15.320058,-0.793469,3.234913,0.032105,0.015869,0.975479
1305,-17.090105,1.281758,2.990768,0.027588,0.006714,1.047501
1306,-16.174563,2.624552,2.990768,0.021363,0.006226,1.005997
1307,-16.357671,3.173877,2.990768,-0.002564,0.005615,1.011246
1308,-15.686275,2.502480,2.685588,-0.008301,0.002441,1.000137
1309,-14.892805,1.647974,2.258335,-0.075441,0.056764,1.091203
1310,-12.451362,-0.732433,3.234913,0.049195,0.048707,0.858289
1311,-16.662852,-0.854505,2.258335,-0.011475,-0.011231,0.939712
1312,-17.578393,-1.709010,2.014191,0.011597,-0.023194,1.011002
1313,-17.090105,-1.525902,2.075227,0.003052,-0.017212,0.998062
1314,-17.822538,-1.831083,2.563516,-0.001099,-0.017823,0.989151
1315,-15.930419,-2.258335,2.075227,-0.010010,-0.020508,0.999771
1316,-16.601816,-3.479057,2.380407,0.008423,-0.026001,1.002945
1317,-15.808347,-3.845274,2.014191,-0.007324,-0.027466,0.994766
1318,-15.564202,-5.004959,1.647974,0.005982,-0.031495,1.015396
1319,-14.709697,-5.432212,1.525902,0.017823,-0.046387,1.007706
1320,-11.718929,-5.188067,1.403830,0.015381,-0.030274,0.993912
1321,-13.061723,-5.493248,1.770047,-0.000122,-0.034791,0.978286
1322,-12.695506,-6.469825,1.342794,-0.001343,-0.018921,0.970718
1323,-16.235599,-7.202258,1.403830,0.019776,-0.021118,0.992325
1324,-17.578393,-6.469825,2.075227,0.011109,-0.040162,0.958389
1325,-19.958801,-6.530861,2.441444,0.020508,-0.018189,0.983902
1326,-23.743038,-6.469825,2.563516,0.025269,-0.029419,0.991104
1327,-25.146868,-5.920500,1.709010,-0.000977,-0.020020,1.002579
1328,-26.733806,-6.652934,1.220722,0.018677,-0.026246,0.999649
1329,-29.419394,-5.859464,0.732433,0.013184,-0.041138,0.992203
1330,-30.823224,-5.554284,0.305180,0.008911,-0.050904,1.006973
1331,-31.738766,-5.188067,0.305180,0.020996,-0.055299,0.989029
1332,-31.494621,-4.638743,0.366217,0.042237,0.005737,0.893202
1333,-42.481117,-1.525902,2.197299,-0.003174,-0.029053,0.960708
1334,-51.819638,-2.502480,7.568475,0.027222,-0.085451,0.998795
1335,-44.739452,0.854505,8.728161,0.079347,-0.062867,1.070207
1336,-46.082246,4.943923,5.920500,-0.012329,-0.081422,1.023209
1337,-48.340581,3.295949,4.760815,0.003784,-0.117922,1.000381
1338,-41.809720,3.173877,3.906310,-0.040528,-0.065187,1.076188
1339,-26.428626,6.408789,0.976577,-0.016724,-0.134279,0.928481
1340,-37.598230,2.319371,-11.291676,-0.104250,-0.037842,1.024796
1341,-62.195773,-5.981537,-28.686961,0.001099,-0.174929,0.886488
1342,-63.904784,-3.051804,-11.291676,0.176272,-0.289189,0.984024
1343,-59.754330,2.746624,3.356985,0.108644,-0.278935,1.067399
1344,-37.598230,2.380407,0.244144,-0.031373,-0.159915,0.984268
1345,-35.400931,-1.403830,-11.474784,0.021607,0.043091,0.971572
1346,-69.947356,2.258335,-17.578393,0.010864,0.202640,0.896864
1347,-122.804608,1.281758,-22.278172,0.051026,0.224857,0.869032
1348,-143.923095,11.474784,-14.221408,0.037842,0.607797,0.727550
1349,-192.385748,-8.484016,-48.340581,0.109499,0.489021,0.536019
1350,-325.688563,-18.188754,-48.767834,-0.067750,1.418235,1.520531
1351,-587.289235,-24.719615,-46.570535,-0.307012,0.500374,1.666407
1352,-744.090944,-89.539940,33.936065,-0.553719,0.040406,1.222309
1353,-858.228428,-147.524224,61.890593,0.007691,-0.329717,1.076188
1354,-889.356832,-180.056458,78.065156,0.589120,-1.655909,1.459251
1355,-1036.026551,-201.846342,194.216831,-0.196048,-0.947768,1.999969
1356,-230.045014,-127.687495,-23.620966,0.257939,-1.184588,1.999969
1357,253.727016,-49.866484,-80.262455,0.244511,0.859266,1.999969
1358,131.898985,12.268254,-112.611582,0.285161,1.323751,1.999969
1359,-32.104982,-9.338521,-58.838788,-0.378546,0.951064,1.511742
1360,-59.327077,-34.363317,-44.495308,-0.229007,0.363043,1.322896
1361,84.412909,-4.272526,-54.688334,-0.314702,0.279179,1.126238
1362,138.368811,-1.770047,-53.772793,-0.240238,0.523690,0.855970
1363,94.789044,-10.620279,-43.396658,-0.255009,0.399908,1.052262
1364,131.288624,-4.333562,-41.260395,-0.247074,0.252201,1.133318
1365,185.183490,2.563516,-42.542153,-0.208743,0.345708,0.900038
1366,183.169299,-1.647974,-40.344854,-0.173831,0.305913,0.835218
1367,195.681697,-0.915541,-41.077287,-0.140749,0.223392,0.918715
1368,219.790951,5.554284,-46.082246,-0.099001,0.227420,0.944106
1369,225.528344,12.207218,-50.049592,-0.100099,0.203494,1.056046
1370,236.636912,21.911955,-54.016938,-0.104005,0.144656,1.225727
1371,257.633326,34.363317,-58.594644,-0.104250,0.098512,1.285298
1372,273.075456,43.335622,-60.547799,-0.076905,0.047730,1.272724
1373,287.418936,45.227741,-61.463340,-0.049928,0.007202,1.338888
1374,303.166247,45.288777,-63.111315,-0.017823,-0.041627,1.321675
1375,315.556573,51.697566,-66.834516,0.028199,-0.094484,1.243915
1376,315.007248,65.857939,-72.083619,0.030274,-0.244266,0.983780
1377,302.677958,88.319219,-75.440604,0.011841,-0.447761,0.723156
1378,278.263523,114.503700,-71.046006,-0.053346,-0.569223,0.640635
1379,247.989624,122.499428,-58.289464,-0.042237,-0.528695,0.771862
1380,230.228122,113.221942,-48.279545,0.079957,-0.323735,1.197284
1381,217.349508,104.066529,-41.199359,0.091188,-0.213016,1.999969
1382,213.565270,112.794690,-30.823224,0.079225,-0.291264,1.999969
1383,246.341650,126.466773,-23.132677,-0.005005,-0.547372,1.999969
1384,273.441672,131.776913,-10.803388,-0.000855,-0.574105,1.999969
1385,265.629053,121.461814,5.798428,0.017700,-0.667491,1.999969
1386,277.531090,108.827344,18.982223,0.070924,-0.816052,1.999969
1387,302.677958,109.193561,28.442817,0.075929,-0.905287,1.999969
1388,306.340124,110.658427,39.551385,0.075441,-0.958755,1.999969
1389,303.349355,110.902571,49.866484,0.265751,-0.985245,1.935210
1390,299.931334,115.175097,53.406577,0.531014,-0.913588,1.768826
1391,278.019379,106.080720,48.218509,0.635752,-0.944350,1.805447
1392,263.614862,100.770581,37.232013,0.602670,-1.090715,1.859648
1393,251.529717,105.592432,25.207904,0.374884,-1.453758,1.693629
1394,226.749065,112.062257,21.362631,0.276249,-2.000031,1.381491
1395,178.957809,119.935912,18.554971,0.577401,-2.000031,1.211200
1396,115.907530,156.069276,5.371176,0.932631,-2.000031,0.808728
1397,114.808881,221.255818,-28.809033,0.828016,-2.000031,-0.078370
1398,117.799649,223.147936,-30.151827,0.307378,-2.000031,-1.329976
1399,3.234913,99.122606,17.578393,-0.117067,-2.000031,-1.440330
1400,-94.483864,-65.247578,71.351186,-0.014038,-2.000031,-2.000031
1401,-220.645457,-194.888228,65.186542,1.431052,-1.531518,-0.547860
1402,-229.617762,-151.186389,32.471199,0.568246,-0.600595,1.775418
1403,-164.187076,-102.479591,20.263981,-0.700816,0.706432,1.999969
1404,-138.612955,-117.250324,29.907683,-1.001236,0.653941,1.381491
1405,-236.514839,-99.061570,76.661326,-0.583139,-0.222782,-0.349004
1406,-305.912871,-96.498054,101.747158,0.115724,-0.433478,0.169802
1407,-326.237888,-90.211337,106.019684,1.518456,-0.055665,1.999969
1408,-288.883803,-46.143282,85.145342,1.999969,-0.128298,1.999969
1409,-148.928054,10.864424,3.906310,1.855741,-0.028809,1.999969
1410,-134.279393,37.842374,-35.156786,0.223758,0.261967,1.775662
1411,-168.520638,32.654307,-9.338521,-2.000031,-0.322393,1.999969
1412,-113.771267,-48.157473,37.048905,-1.978180,-0.813855,1.115007
1413,-53.528649,-124.635691,50.965133,0.336309,0.284916,1.785794
1414,-74.219883,-109.071489,39.185168,1.999969,0.330083,1.999969
1415,-35.400931,-5.920500,1.098650,0.105715,-0.221439,1.342550
1416,-38.025483,-25.146868,8.300908,-1.068986,-0.099367,0.989883
1417,-37.903410,-68.543526,6.469825,0.551522,0.192630,1.395041
1418,-31.921874,-28.320745,-1.220722,0.497566,0.126467,1.196918
1419,-43.823911,-11.413748,4.821851,-0.334356,-0.040162,1.024308
1420,-27.710384,-28.809033,0.976577,0.058961,0.119387,1.231708
1421,-23.498894,-20.569162,-4.028382,0.244266,0.100710,1.035294
1422,-33.508812,-7.080186,-0.366217,-0.040162,-0.020874,1.130022
1423,-23.254749,-6.225681,0.366217,0.102052,0.046143,1.195697
1424,-18.432898,3.540093,1.403830,0.123293,0.025513,1.068864
1425,-19.897765,9.216449,3.906310,0.011963,0.026246,0.999893
1426,-19.165332,10.315099,3.356985,0.050538,0.035889,1.019181
1427,-22.034028,10.193027,4.577707,0.011597,-0.002319,1.011612
1428,-18.310826,9.643702,1.342794,0.038453,-0.155642,0.773938
1429,-20.263981,5.615320,2.258335,-0.005493,0.014771,1.013565
1430,-22.888533,2.380407,2.807660,-0.040528,0.001221,0.949477
1431,-20.508125,-0.488289,1.037613,-0.021851,0.014771,0.953384
1432,-25.024796,-1.586938,1.831083,-0.011841,0.019776,0.993301
1433,-22.522316,-2.319371,2.319371,0.007080,0.070802,0.990005
1434,-26.794842,-1.464866,2.685588,-0.001465,-0.011231,1.048966
1435,-20.935378,0.305180,2.746624,0.015381,-0.033082,1.057877
1436,-16.479744,1.281758,2.380407,0.002075,-0.007080,0.995010
1437,-18.921187,0.427253,3.234913,-0.000122,-0.019776,1.008316
1438,-16.540780,-0.915541,2.502480,-0.007813,-0.021973,0.997818
1439,-16.968032,-2.746624,2.380407,-0.011109,-0.029419,0.999893
1440,-14.221408,-4.394598,2.136263,-0.025879,-0.027955,0.991104
1441,-13.794156,-6.897078,1.342794,-0.019287,-0.027100,0.981216
1442,-13.488975,-9.033341,1.220722,-0.010986,-0.016114,0.989883
1443,-13.000687,-10.315099,0.915541,-0.000610,-0.036866,0.954482
1444,-14.587625,-11.902037,0.427253,-0.009033,-0.018189,0.962661
1445,-17.090105,-13.244831,1.037613,0.002075,0.000000,1.019425
1446,-16.235599,-12.817578,0.549325,0.019654,-0.045289,0.995132
1447,-15.991455,-12.390326,0.000000,0.024414,-0.042603,1.025040
1448,-15.014878,-11.169604,0.061036,0.031617,-0.055299,1.013077
1449,-14.404517,-10.070954,-0.183108,0.017334,-0.037720,1.006851
1450,-15.442130,-9.338521,0.061036,0.031861,-0.032715,1.007584
1451,-17.273213,-8.422980,0.183108,0.018555,-0.044434,0.987198
1452,-18.188754,-8.484016,0.549325,0.022583,-0.030152,0.970108
1453,-20.874342,-8.422980,0.671397,0.025025,-0.030518,0.977188
1454,-22.583352,-9.277485,0.305180,0.027100,-0.029175,0.973892
1455,-27.466239,-9.704738,0.122072,0.026490,-0.034180,0.983902
1456,-29.419394,-10.498207,-0.366217,0.031861,-0.055543,1.021134
1457,-28.259709,-9.460594,-1.159686,0.047486,-0.056886,1.006241
1458,-29.663539,-8.789197,-1.586938,0.038697,-0.061036,0.981827
1459,-29.358358,-8.667124,-0.488289,0.025147,-0.030762,1.163226
1460,-30.701152,-3.173877,-0.671397,0.036988,-0.053712,0.966079
1461,-33.081559,1.281758,3.356985,0.097536,-0.058473,0.998184
1462,-45.288777,5.554284,8.728161,0.044068,-0.103639,1.026505
1463,-38.879988,6.958114,9.521630,0.031373,-0.077760,1.032364
1464,-40.161746,8.117800,7.019150,0.027710,-0.092897,0.944472
1465,-45.716030,6.530861,5.554284,-0.021729,-0.059693,1.001846
1466,-47.058824,3.723201,-0.244144,-0.025269,-0.054322,0.976211
1467,-46.326390,1.709010,-7.568475,-0.060304,-0.095827,0.995010
1468,-45.654994,-1.647974,-12.573434,-0.030762,-0.158816,0.965103
1469,-48.157473,-6.652934,-17.151141,-0.057252,0.029786,1.156390
1470,-69.398032,-6.103609,-29.419394,0.031006,-0.275761,1.023087
1471,-50.293736,-2.868696,-14.831769,0.188357,-0.275883,1.138079
1472,-36.743725,-0.671397,-5.615320,0.081788,-0.260746,1.046403
1473,-28.992142,0.854505,-3.234913,0.091920,-0.030884,1.034928
1474,-54.566262,12.329290,-15.075914,0.131106,0.119875,0.977554
1475,-102.540627,23.987182,-23.254749,0.029908,0.333501,0.954238
1476,-145.876249,22.888533,-34.790570,-0.035035,0.390753,0.490608
1477,-171.999695,-10.193027,-28.259709,-0.226444,0.358038,0.608896
1478,-259.525444,-29.358358,-22.461280,0.111818,1.050431,1.019425
1479,-426.215000,-52.613108,-57.190814,-0.232670,0.365606,1.618677
1480,-578.988327,-161.318380,-15.381094,-0.878920,0.203006,1.289570
1481,-759.288930,-273.929961,47.974365,-0.285405,0.023926,1.138201
1482,-864.515145,-285.648890,88.624399,0.324956,-0.129641,1.264302
1483,-1078.202487,-284.489204,175.600824,0.880751,-2.000031,1.999969
1484,-579.293507,-151.125353,225.284199,-0.846571,-1.453880,1.999969
1485,218.020905,-62.439918,-34.546426,-0.037354,0.617807,1.999969
1486,382.207980,32.043946,-10.620279,-0.798962,1.367208,1.999969
1487,175.478752,63.172351,-15.930419,-0.525765,0.770275,1.056779
1488,10.193027,25.879301,40.772107,-0.525887,0.364996,-0.025879
1489,-20.996414,18.493935,57.251850,-0.262333,0.123781,0.076783
1490,68.421454,35.523003,47.730220,-0.162844,0.152102,0.242679
1491,91.248951,39.429313,42.908370,0.075807,0.451301,0.236454
1492,52.307927,32.959487,39.734493,0.148806,0.442267,0.487190
1493,71.229114,27.893492,31.067369,0.207156,0.430671,0.748302
1494,111.635004,23.071641,18.860151,0.263920,0.527352,0.809705
1495,121.583886,13.183795,9.155413,0.282719,0.534066,0.894545
1496,137.392233,9.155413,-1.220722,0.275517,0.475227,1.122087
1497,167.971313,11.718929,-12.817578,0.249027,0.422370,1.249042
1498,194.522011,16.235599,-23.010605,0.200809,0.342779,1.285908
1499,215.213245,21.423667,-29.968719,0.138308,0.252811,1.372946
1500,239.261463,27.649348,-34.119173,0.094728,0.130129,1.357198
1501,263.859007,34.241245,-36.072328,0.064454,0.024537,1.237568
1502,277.836271,38.330663,-35.523003,0.061158,-0.054200,1.117815
1503,285.099565,38.635843,-34.180209,0.105837,-0.098268,1.068254
1504,290.165560,36.255436,-34.302281,0.170779,-0.126589,1.100481
1505,293.522545,31.311513,-37.293050,0.244144,-0.151980,1.145892
1506,296.025025,26.977951,-42.908370,0.268070,-0.169070,1.219135
1507,294.621195,24.963760,-51.575494,0.307744,-0.242435,1.194232
1508,287.663081,34.424353,-63.416495,0.357061,-0.396246,1.032486
1509,271.671626,52.674144,-72.388800,0.330816,-0.418219,1.026749
1510,248.050660,57.618067,-77.759976,0.255131,-0.377081,1.233661
1511,235.416190,53.040360,-81.422141,0.207767,-0.372686,1.478416
1512,228.213931,56.641489,-84.657053,0.124514,-0.336065,1.993683
1513,219.546807,65.186542,-81.605249,0.054200,-0.370245,1.999969
1514,234.073396,74.280919,-76.783398,0.019287,-0.513069,1.999969
1515,263.614862,78.431373,-70.740826,0.042847,-0.601328,1.999969
1516,283.573663,76.600290,-63.294423,0.106569,-0.654063,1.999969
1517,299.076829,75.257496,-59.754330,0.275639,-0.755871,1.999969
1518,307.133593,85.877775,-61.768521,0.440925,-0.797131,1.999969
1519,296.757458,94.972152,-66.834516,0.486702,-0.822766,1.830472
1520,281.559472,92.408637,-71.595331,0.449104,-0.864149,1.799100
1521,266.239414,82.520790,-74.830243,0.454597,-0.954726,1.869169
1522,257.022965,80.933852,-77.698940,0.424933,-1.155291,1.785550
1523,243.900206,85.389487,-78.431373,0.339849,-1.460349,1.507958
1524,214.541848,89.845121,-74.097810,0.257694,-1.960113,1.189960
1525,171.145190,99.916075,-62.561990,0.391485,-2.000031,0.999893
1526,124.330510,125.978485,-51.148241,0.550057,-2.000031,0.853773
1527,89.417868,165.224689,-52.735180,0.646006,-2.000031,0.192142
1528,84.046693,173.525597,-33.691920,0.309941,-2.000031,-0.453132
1529,44.922560,106.019684,0.244144,0.103273,-2.000031,-1.088884
1530,-41.260395,-12.878614,47.852293,0.112184,-2.000031,-0.684703
1531,-99.671931,-104.676890,78.248264,0.370123,-1.840482,-2.000031
1532,-213.992523,-171.938659,42.908370,0.977066,-0.582650,1.215717
1533,-160.830091,-145.204852,37.537194,0.149416,0.264286,1.999969
1534,-73.365377,-78.187228,28.809033,-0.258183,1.457786,1.558129
1535,-143.739986,-111.085679,29.541466,-0.677867,0.720714,-0.586069
1536,-273.258564,-108.094911,61.524376,-0.067506,-0.120729,-1.441184
1537,-395.880064,-102.906844,86.060884,0.930556,-0.352422,0.925795
1538,-392.950332,-77.821012,67.078660,1.705715,-0.335698,1.999969
1539,-225.101091,15.686275,8.300908,1.130144,-0.558968,1.999969
1540,-162.722210,36.499580,-18.005646,-0.393805,-0.017700,1.999969
1541,-234.988937,-31.372549,33.020523,-1.947784,-1.127581,1.999969
1542,-64.515145,-106.080720,50.782025,-0.573617,-0.628916,1.564721
1543,-40.039673,-120.363165,44.556344,1.346944,0.703746,1.913237
1544,-73.365377,-66.163119,26.306554,1.348165,0.157961,1.712306
1545,-48.706798,-14.587625,13.427939,-0.771496,-0.055421,1.341085
1546,-50.110628,-58.045319,20.447089,-0.207034,-0.027832,1.018692
1547,-33.630884,-50.720989,3.112840,0.817029,0.177493,1.589868
1548,-42.481117,-11.841001,0.000000,-0.109743,-0.075441,1.087419
1549,-34.546426,-18.677043,2.197299,-0.180423,-0.023682,1.192279
1550,-25.635157,-20.630198,-1.037613,0.165164,0.005737,1.190692
1551,-19.165332,-7.873655,1.098650,-0.013184,0.001099,1.128069
1552,-15.136950,-7.751583,1.647974,-0.023804,0.022583,1.072404
1553,-10.864424,-5.065995,0.183108,0.075074,0.057984,1.042496
1554,-13.305867,-0.915541,2.502480,-0.036866,0.036744,1.032242
1555,-11.108568,-1.281758,2.685588,0.006348,0.031739,1.049454
1556,-9.887846,0.915541,2.319371,0.000977,0.034913,1.001236
1557,-11.841001,0.915541,2.807660,-0.022950,0.028443,0.988540
1558,-12.329290,-0.305180,2.258335,-0.021607,0.036500,0.974502
1559,-14.404517,-0.793469,2.197299,-0.031983,0.029541,0.963027
1560,-16.235599,-1.953155,2.502480,-0.017700,0.010986,0.995621
1561,-16.052491,-1.098650,2.258335,-0.084474,0.184817,1.339864
1562,-11.413748,-2.441444,3.418021,-0.027466,0.018067,0.930800
1563,-16.906996,-4.577707,3.112840,-0.036866,0.000366,0.939834
1564,-14.282444,-5.310140,2.319371,-0.046265,0.008545,1.002579
1565,-13.488975,-5.981537,2.075227,-0.004273,0.019165,0.984512
1566,-15.930419,-5.859464,2.197299,-0.022950,0.025513,0.947768
1567,-19.043259,-5.310140,1.586938,0.009888,0.012696,1.019425
1568,-21.118486,-0.915541,-2.380407,0.044678,-0.366094,0.670176
1569,-17.151141,-1.220722,0.427253,-0.009522,-0.000855,1.128923
1570,-20.752270,-0.305180,3.418021,0.005982,-0.021241,1.042374
1571,-16.418708,1.525902,3.723201,-0.000732,-0.026123,1.000870
1572,-16.113527,2.258335,4.150454,-0.006836,-0.014038,0.999527
1573,-17.273213,1.953155,4.394598,-0.031739,-0.022339,0.979629
1574,-17.456321,0.610361,4.028382,-0.027832,-0.023316,0.999893
1575,-14.831769,-0.610361,3.112840,-0.018555,-0.025025,0.991470
1576,-15.381094,-2.685588,2.807660,-0.035401,-0.028565,0.993301
1577,-13.916228,-3.845274,2.014191,-0.038453,-0.028687,1.017350
1578,-9.521630,-2.990768,-2.319371,0.031739,-0.322271,0.672374
1579,-8.484016,-6.042573,-0.793469,-0.024048,-0.031495,1.023209
1580,-12.268254,-9.216449,0.793469,-0.043458,0.010742,1.022599
1581,-13.244831,-11.535821,0.244144,-0.011963,-0.028199,0.962539
1582,-14.770733,-12.146181,0.183108,0.002197,-0.013428,1.042496
1583,-15.869383,-10.742351,1.037613,0.012573,-0.007324,1.038590
1584,-14.953841,-9.277485,1.342794,0.011231,-0.065919,1.005997
1585,-15.075914,-7.751583,1.709010,0.023560,-0.016724,0.997208
1586,-19.470512,-5.981537,2.014191,0.002319,-0.029175,0.985000
1587,-22.034028,-5.127031,2.380407,0.016480,-0.031861,0.993179
1588,-23.682002,-3.540093,2.502480,0.008911,-0.015259,0.973770
1589,-28.442817,-3.540093,2.441444,-0.002686,-0.044556,0.979507
1590,-30.884260,-4.272526,3.051804,0.011475,-0.049805,0.986709
1591,-32.104982,-3.051804,2.685588,0.005737,-0.042481,0.983291
1592,-34.729534,-1.098650,3.906310,0.021851,-0.063844,1.014420
1593,-39.124132,0.366217,5.920500,0.015869,-0.105348,0.997696
1594,-35.706111,1.770047,7.019150,-0.032349,-0.060060,1.034806
1595,-34.668498,1.831083,7.934691,-0.004761,-0.063111,0.999161
1596,-38.879988,2.136263,8.606088,-0.012451,-0.057496,1.012589
1597,-33.875029,0.793469,6.713970,-0.034302,-0.096071,0.830457
1598,-23.071641,2.502480,5.371176,0.038209,-0.078126,1.070451
1599,-24.780652,2.624552,5.127031,-0.057618,0.012696,0.961196
1600,-45.532921,-5.188067,0.183108,-0.073610,-0.059571,0.968032
1601,-58.167391,-11.230640,-6.958114,-0.075685,-0.064454,0.990982
1602,-66.224155,-13.244831,-16.540780,-0.093629,0.015747,1.098772
1603,-60.975052,-5.371176,-26.184482,0.039063,-0.359747,1.007218
1604,-52.979324,-5.127031,-8.911269,0.089357,-0.384894,1.120500
1605,-32.349126,-3.234913,-2.441444,0.076783,-0.174685,1.114763
1606,-17.090105,-1.098650,-8.667124,0.018433,-0.139651,1.030533
1607,-42.603189,1.098650,-11.718929,0.006714,-0.009400,0.995743
1608,-65.735866,1.281758,-14.282444,0.004883,0.154055,0.897597
1609,-96.314946,-2.746624,-13.305867,-0.003540,0.085695,0.818372
1610,-120.363165,-1.770047,-7.873655,0.055299,0.649668,0.616220
1611,-174.135958,-9.765774,-31.067369,0.063355,0.319463,1.076799
1612,-288.639658,-18.738079,-36.255436,0.166140,0.786511,1.078752
1613,-562.508583,-2.380407,6.103609,-0.022339,1.155535,1.961089
1614,-770.031281,-16.968032,50.598917,-0.334722,0.088502,1.437400
1615,-843.518730,-11.902037,70.862898,0.348272,0.009155,1.350607
1616,-874.158846,-11.169604,73.609522,0.530770,-2.000031,1.999969
1617,-862.745098,-46.936751,176.577401,-1.367819,-0.409064,1.999969
1618,-65.918975,-85.450523,-58.777752,-0.452277,-0.982315,1.999969
1619,383.001450,-39.185168,-45.593957,-0.718273,1.103288,1.999969
1620,175.661860,-45.593957,-68.482490,-0.434943,1.454490,1.193011
1621,-56.519417,-85.694667,38.818952,-0.486702,0.673472,0.267460
1622,-122.682536,-105.348287,45.410849,-0.171511,0.388556,0.933242
1623,36.377508,-51.087205,10.498207,-0.173098,0.279789,1.019425
1624,99.488823,-31.067369,-7.019150,-0.089967,0.671397,0.771130
1625,43.701839,-34.607462,-4.211490,-0.170413,0.554086,0.922133
1626,74.830243,-33.630884,-8.484016,-0.188479,0.415778,1.077287
1627,129.884794,-32.227054,-15.259022,-0.161013,0.498177,0.893812
1628,130.373083,-38.818952,-16.479744,-0.132448,0.468391,0.871229
1629,146.364538,-37.354086,-20.691234,-0.133059,0.379522,1.007706
1630,178.591592,-30.701152,-27.832456,-0.122194,0.382574,1.115496
1631,195.803769,-23.926146,-32.898451,-0.130861,0.338384,1.251728
1632,219.058518,-13.794156,-37.476158,-0.159670,0.240482,1.329488
1633,248.050660,-2.502480,-41.199359,-0.182986,0.157351,1.246235
1634,266.239414,6.469825,-42.114900,-0.196170,0.069947,1.097429
1635,277.836271,13.000687,-41.382467,-0.191043,0.005371,0.996597
1636,285.038529,16.662852,-40.527962,-0.146120,-0.019043,0.988907
1637,287.846189,20.996414,-41.870756,-0.103639,-0.094972,1.001724
1638,287.052720,32.898451,-45.349813,-0.070558,-0.246220,0.771496
1639,276.432441,50.049592,-48.889906,-0.025269,-0.363531,0.512093
1640,250.003815,59.143969,-49.500267,-0.008179,-0.389410,0.577279
1641,225.650416,58.228428,-50.598917,0.099733,-0.306645,0.883070
1642,214.541848,56.763561,-57.679103,0.123659,-0.203128,1.420798
1643,205.874723,66.163119,-62.439918,0.132570,-0.149172,1.999969
1644,218.997482,87.708858,-64.698253,-0.006836,-0.271489,1.999969
1645,254.520485,99.671931,-62.561990,-0.190677,-0.522713,1.999969
1646,266.727703,108.461128,-49.744411,-0.248661,-0.611460,1.915801
1647,252.018006,104.859998,-31.921874,-0.261967,-0.755505,1.749294
1648,244.449531,96.498054,-14.648661,-0.156619,-0.804700,1.877958
1649,239.139391,90.333410,-1.709010,-0.037842,-0.757946,1.999969
1650,242.801556,85.145342,9.033341,0.030518,-0.795544,1.999969
1651,267.765316,76.844434,15.747311,0.093385,-0.817884,1.999969
1652,284.245060,67.261769,18.432898,0.201785,-0.797375,1.916655
1653,275.944152,61.890593,17.395285,0.367926,-0.807752,1.600977
1654,264.652476,62.073701,9.155413,0.407233,-0.782849,1.588525
1655,249.820707,60.120546,-0.549325,0.313481,-0.823499,1.694606
1656,239.627680,61.280232,-8.850233,0.266361,-0.955581,1.650660
1657,230.655375,67.994202,-15.564202,0.211551,-1.133806,1.402853
1658,209.170672,75.806821,-16.723888,0.148440,-1.390158,1.074235
1659,177.553979,78.004120,-13.611048,0.208621,-1.751125,0.748913
1660,138.551919,76.295109,-10.559243,0.466438,-2.000031,0.566537
1661,92.530709,73.121233,-7.263294,0.755749,-2.000031,0.468147
1662,54.505226,68.055238,-11.169604,0.862684,-2.000031,0.201053
1663,40.344854,48.584726,-13.794156,0.741344,-2.000031,-0.143313
1664,-1.281758,0.061036,2.563516,0.474372,-2.000031,-0.144167
1665,-86.427100,-55.420768,9.033341,0.276738,-2.000031,-1.526879
1666,-236.636912,-111.085679,52.491035,0.289677,-1.794095,-0.369146
1667,-202.029450,-113.160906,35.156786,0.161990,-0.771984,1.777859
1668,-100.587472,-52.796216,10.864424,-0.364385,0.903456,1.999969
1669,-108.888380,-40.222782,16.540780,-0.722667,0.981949,0.899916
1670,-245.670253,-96.986343,43.884947,-0.391608,0.323247,-0.236698
1671,-345.891508,-96.131838,70.496681,0.233402,-0.435920,1.397360
1672,-292.362860,-50.720989,72.877089,1.176165,-0.293828,1.999969
1673,-198.123140,-19.592584,30.945296,1.710353,0.125490,1.999969
1674,-177.981231,17.029068,-7.446403,1.028214,0.022339,1.746609
1675,-169.985504,46.204318,-19.836728,-0.572763,-0.200320,1.663478
1676,-181.643397,16.357671,22.522316,-2.000031,-0.614389,1.999969
1677,-110.841535,-77.821012,52.796216,-1.001968,-0.588022,1.187518
1678,-69.520104,-118.898299,37.781338,1.273945,0.340826,1.999969
1679,-59.449149,-56.275273,12.878614,1.375875,0.076783,1.802029
1680,-50.354772,0.000000,11.413748,-0.758679,0.028443,1.076432
1681,-58.045319,-45.716030,14.648661,-0.314702,0.014527,1.106706
1682,-37.048905,-48.706798,-1.892119,0.638193,0.163821,1.525536
1683,-40.650034,-14.892805,0.488289,-0.065797,-0.016602,1.052506
1684,-31.128405,-22.461280,0.183108,-0.227298,0.013184,1.132097
1685,-22.705425,-24.658579,-2.868696,0.269780,0.036744,1.178485
1686,-20.569162,-8.117800,-0.305180,0.029175,0.020386,1.112078
1687,-14.648661,-4.577707,1.098650,-0.023560,0.021485,1.065934
1688,-13.855192,-3.906310,3.356985,0.086549,0.084840,1.029679
1689,-16.906996,1.647974,4.272526,0.012329,0.031983,1.035538
1690,-15.259022,1.525902,4.455634,-0.022339,0.031250,0.997208
1691,-16.113527,0.244144,4.577707,0.000855,0.026856,1.004288
1692,-14.099336,-0.061036,4.455634,-0.005737,0.075441,0.962539
1693,-17.700465,-3.601129,3.906310,-0.121584,0.179690,1.230121
1694,-14.892805,-7.385367,3.356985,-0.022827,0.029541,0.968154
1695,-17.883574,-8.361944,1.831083,-0.007568,-0.007935,0.981949
1696,-14.404517,-8.239872,1.098650,-0.015259,0.011353,1.017105
1697,-14.404517,-8.911269,1.159686,0.001831,0.013550,0.991592
1698,-15.503166,-8.911269,1.525902,0.002930,0.030274,1.022599
1699,-15.136950,-7.507439,1.037613,-0.033692,0.004517,1.043107
1700,-11.902037,-9.277485,1.709010,0.017456,0.075441,1.000259
1701,-10.376135,-6.530861,1.159686,0.020020,0.004150,0.989517
1702,-11.779965,-5.615320,1.220722,0.013306,0.026734,1.091569
1703,-7.873655,-4.577707,1.098650,0.018677,-0.011963,1.020279
1704,-6.652934,-3.662165,0.793469,-0.002808,0.000977,0.990249
1705,-7.446403,-3.845274,0.366217,-0.020752,0.002319,0.981827
1706,-8.239872,-4.394598,0.549325,0.003174,0.008423,0.991104
1707,-9.216449,-4.028382,0.488289,0.007324,0.006958,0.981827
1708,-11.169604,-4.638743,0.427253,0.003906,0.008301,0.972671
1709,-14.404517,-5.188067,0.732433,-0.020874,0.015137,0.964858
1710,-15.930419,-6.225681,-0.183108,0.019165,0.029786,1.008438
1711,-16.906996,-7.751583,0.244144,0.017823,-0.002564,1.083879
1712,-17.761501,-7.202258,0.305180,0.022095,-0.030152,1.008072
1713,-17.090105,-6.469825,0.854505,0.031861,-0.033570,1.009537
1714,-15.869383,-4.760815,1.159686,0.017090,-0.043580,1.004044
1715,-16.113527,-3.662165,2.563516,0.032471,-0.033326,1.020890
1716,-16.418708,-2.380407,2.990768,0.027710,-0.011841,1.014298
1717,-16.662852,-1.159686,3.723201,0.035889,-0.026123,1.020279
1718,-16.418708,0.305180,3.906310,0.013550,-0.030152,0.981582
1719,-16.418708,0.610361,3.662165,0.011231,-0.011353,0.965469
1720,-18.310826,0.061036,3.234913,0.009888,-0.000366,0.981582
1721,-22.034028,-0.610361,2.502480,0.001099,-0.009277,0.972549
1722,-25.268940,-1.647974,2.136263,0.010132,-0.041993,0.996353
1723,-25.329976,-1.403830,2.075227,0.010986,-0.016968,0.997086
1724,-27.893492,-1.892119,1.525902,-0.005859,-0.010376,0.953750
1725,-33.081559,-3.479057,1.159686,0.005493,-0.008789,0.961196
1726,-39.063096,-4.333562,1.098650,0.016846,-0.022827,0.954360
1727,-41.321431,-2.197299,2.014191,-0.002075,-0.035279,0.960342
1728,-48.462654,-2.990768,6.469825,0.057374,-0.094606,1.124651
1729,-40.711070,3.662165,8.056764,0.007446,-0.097780,1.052262
1730,-38.452735,3.479057,5.371176,0.008789,-0.060670,1.015885
1731,-42.053864,3.540093,5.127031,-0.011109,-0.074586,1.001236
1732,-40.161746,1.281758,1.159686,-0.056275,-0.099611,0.979019
1733,-38.574807,0.488289,0.915541,-0.026856,-0.040528,0.983169
1734,-41.931792,2.929732,-3.173877,-0.050294,-0.010498,1.121599
1735,-53.528649,-7.446403,-19.470512,-0.061402,-0.095216,0.964492
1736,-66.773480,-3.112840,-25.635157,0.086061,-0.184207,1.006119
1737,-61.463340,-1.159686,-8.667124,0.124636,-0.329595,1.017105
1738,-48.096437,2.075227,-1.892119,0.074952,-0.259281,1.083757
1739,-27.527276,0.610361,-3.723201,0.041138,-0.180667,1.034806
1740,-31.250477,1.953155,-6.591897,0.027222,0.047608,0.979263
1741,-62.012665,6.530861,-13.733120,0.003906,0.208377,0.900649
1742,-120.851453,7.202258,-20.202945,0.034302,0.288823,0.787854
1743,-144.960708,8.422980,-18.188754,0.040406,0.601328,0.564706
1744,-201.174945,-13.672084,-43.091478,-0.134279,0.763073,0.831067
1745,-340.337224,-18.249790,-57.495995,0.047974,0.923110,1.852445
1746,-608.102541,-16.968032,-59.571221,-0.432990,0.509651,1.671046
1747,-762.890059,-73.365377,-4.211490,-0.430671,0.239750,1.386862
1748,-857.007706,-92.286564,29.358358,0.174685,-0.354986,1.089860
1749,-975.844968,-111.696040,105.714504,0.332403,-2.000031,1.999969
1750,-663.157092,-57.679103,139.101244,-1.549462,-1.277485,1.999969
1751,113.710231,-54.444190,-22.766461,-0.427253,0.497200,1.999969
1752,298.405432,-2.136263,-13.244831,-0.803723,0.851820,1.999969
1753,63.660639,-10.803388,-0.915541,-0.414923,0.877821,1.054704
1754,-90.089265,-85.328450,59.571221,-0.174441,0.554940,0.371466
1755,-63.172351,-96.864271,50.904097,0.138796,0.245853,0.877455
1756,67.200732,-57.862211,11.596857,0.115480,0.500374,1.016007
1757,56.092164,-35.645075,-3.173877,0.139895,0.728161,0.910292
1758,40.711070,-15.991455,-15.075914,0.034913,0.532113,1.066789
1759,97.230488,-5.188067,-29.419394,-0.074830,0.516487,0.989273
1760,122.072175,-12.634470,-34.363317,-0.146242,0.554574,0.872328
1761,130.434119,-22.156100,-33.813993,-0.207889,0.447761,0.955337
1762,158.449683,-18.371862,-34.302281,-0.256596,0.385748,1.055436
1763,180.422675,-6.286717,-32.471199,-0.295903,0.323857,1.021256
1764,195.376516,8.239872,-28.625925,-0.316533,0.254276,1.029068
1765,212.771801,22.156100,-23.132677,-0.311040,0.174075,1.013565
1766,229.007401,31.311513,-15.625238,-0.288334,0.102174,0.951553
1767,238.040742,33.142596,-6.713970,-0.242679,0.051759,1.022599
1768,248.355840,29.358358,1.770047,-0.158328,0.048463,1.250385
1769,267.032883,27.222095,6.164645,-0.042725,0.033082,1.411398
1770,286.930648,31.433585,4.943923,0.082521,0.001343,1.481712
1771,301.152056,40.772107,-1.037613,0.185916,-0.123537,1.318379
1772,304.936294,52.918288,-11.169604,0.266239,-0.357671,0.818616
1773,290.775921,65.796902,-20.141909,0.279667,-0.449226,0.564828
1774,258.243687,62.317845,-24.109255,0.255863,-0.387091,0.849256
1775,242.313268,47.425040,-29.480430,0.258793,-0.316289,1.220844
1776,240.665293,40.588998,-35.889220,0.219852,-0.163821,1.663966
1777,229.068437,46.936751,-43.579767,0.195438,-0.292851,1.999969
1778,230.716411,65.918975,-49.439231,0.138552,-0.409308,1.999969
1779,251.285573,81.605249,-54.139010,0.047608,-0.494881,1.999969
1780,256.168460,87.037461,-51.087205,-0.061646,-0.587411,1.999969
1781,260.196841,78.248264,-42.236973,-0.135988,-0.713268,1.999969
1782,282.597086,67.994202,-34.363317,-0.109010,-0.848646,1.999969
1783,301.396201,71.168078,-31.311513,-0.069825,-0.913466,1.999969
1784,288.639658,78.370336,-27.344167,-0.014649,-0.898573,1.891630
1785,279.484245,78.675517,-25.452049,0.121462,-0.880018,1.879057
1786,279.972534,76.905470,-27.893492,0.311772,-0.805798,1.806180
1787,268.497749,73.365377,-33.020523,0.382330,-0.810925,1.736721
1788,256.046387,70.069429,-38.635843,0.380255,-0.902235,1.689235
1789,245.792325,69.336996,-43.213550,0.329473,-1.068742,1.528588
1790,228.641184,69.459068,-43.884947,0.254276,-1.315206,1.268208
1791,200.991836,68.116274,-40.711070,0.230594,-1.639796,0.990982
1792,166.140230,67.383841,-36.621653,0.410163,-2.000031,0.769665
1793,119.752804,69.459068,-37.109941,0.759777,-2.000031,0.562875
1794,83.802548,82.215610,-45.654994,0.848280,-2.000031,0.241703
1795,66.590372,90.272374,-51.087205,0.606088,-2.000031,-0.260624
1796,17.090105,47.119860,-24.841688,0.315679,-2.000031,-0.558846
1797,-41.382467,-41.443503,10.376135,0.116579,-1.808255,0.086915
1798,-65.064469,-103.273060,39.246204,-0.002686,-1.325093,1.091081
1799,-66.285191,-115.114061,46.814679,0.498543,-1.563378,-2.000031
1800,-167.971313,-111.329824,38.452735,-0.100221,0.218875,1.174823
1801,-159.731441,-89.784085,33.691920,-0.427985,-0.045899,1.259785
1802,-106.569009,-36.011292,40.405890,-0.508797,1.284321,0.807996
1803,-211.123827,-91.432059,59.388113,-0.130251,0.327031,-0.259037
1804,-344.731823,-105.470359,79.530022,0.494026,-0.236576,0.905409
1805,-333.073930,-64.393072,76.844434,1.315938,-0.340581,1.999969
1806,-240.909438,-30.151827,37.964446,1.755642,-0.111452,1.999969
1807,-159.609369,13.672084,-7.263294,1.053971,-0.102174,1.999969
1808,-127.199207,34.851606,-24.292363,-0.510262,-0.168948,1.829984
1809,-140.505074,9.338521,13.611048,-1.860624,-0.391119,1.999969
1810,-85.572595,-61.890593,47.974365,-1.046647,-0.382452,0.914931
1811,-59.327077,-107.484550,48.462654,0.605844,0.488655,1.690211
1812,-79.407950,-88.319219,29.846647,1.436667,0.232303,1.999969
1813,-44.556344,-24.170291,4.211490,-0.144289,-0.110597,1.396017
1814,-40.222782,-43.823911,11.169604,-0.722789,-0.037598,0.870985
1815,-44.068055,-75.257496,8.728161,0.396735,0.266606,1.543603
1816,-37.170977,-43.091478,-1.281758,0.492561,0.093751,1.362814
1817,-28.137636,-18.616007,1.403830,-0.177249,0.050904,0.992081
1818,-26.245518,-28.809033,1.709010,-0.054444,0.115846,0.916762
1819,-34.363317,-24.109255,-1.953155,0.308232,0.066163,1.178485
1820,-36.072328,-6.897078,2.197299,-0.021851,-0.006226,1.125017
1821,-23.437858,-3.173877,1.525902,0.127443,0.038209,0.983780
1822,-26.184482,2.624552,4.150454,0.066285,0.059205,1.108537
1823,-22.278172,6.897078,4.272526,-0.006592,0.028443,1.023697
1824,-18.066682,5.859464,3.906310,0.021485,0.047364,1.004410
1825,-21.179522,5.554284,4.272526,-0.006226,0.023560,1.013199
1826,-17.639429,3.601129,3.784237,-0.049805,0.079713,1.030167
1827,-19.714656,-1.342794,4.150454,-0.025513,0.103761,0.960220
1828,-23.132677,-2.624552,2.868696,-0.009888,0.030640,0.998184
1829,-21.423667,-3.784237,2.136263,-0.017578,0.010376,1.031144
1830,-17.578393,-3.845274,2.380407,0.001587,0.028687,0.999039
1831,-17.944610,-3.601129,2.075227,0.005737,-0.019776,0.951308
1832,-16.968032,-4.638743,2.746624,-0.009155,0.014649,1.006973
1833,-15.869383,-5.615320,2.136263,-0.006348,0.025635,1.011734
1834,-15.503166,-6.225681,2.014191,0.002319,0.009155,1.060807
1835,-12.939651,-6.286717,2.136263,0.021851,0.051270,1.052750
1836,-12.817578,-5.737392,2.014191,0.019043,0.045655,1.019791
1837,-12.390326,-5.432212,1.709010,0.002197,0.016968,0.995377
1838,-12.268254,-5.554284,0.915541,-0.014038,0.007080,0.987564
1839,-13.061723,-6.225681,0.854505,-0.012818,-0.003296,0.998550
1840,-11.779965,-6.836042,0.671397,0.004639,-0.030152,0.928481
1841,-12.695506,-7.507439,0.793469,0.010376,-0.027832,0.950942
1842,-12.207218,-7.873655,0.488289,0.019898,-0.022827,0.974136
1843,-10.864424,-8.117800,0.061036,0.022217,-0.033570,0.937514
1844,-11.657893,-8.239872,-0.122072,0.029419,-0.015381,0.962783
1845,-12.512398,-8.056764,-0.305180,0.029419,-0.043580,0.994156
1846,-13.061723,-7.934691,-0.122072,0.042969,-0.058839,1.014176
1847,-11.841001,-6.775006,-0.244144,0.022461,-0.032715,0.997940
1848,-11.779965,-6.408789,0.549325,0.025757,-0.000610,1.018936
1849,-11.902037,-5.737392,0.488289,0.024659,-0.010742,0.944106
1850,-16.235599,-6.225681,0.488289,0.028687,0.008667,0.973404
1851,-21.118486,-6.286717,1.037613,0.027222,-0.004028,0.983780
1852,-22.156100,-5.737392,0.976577,0.030640,-0.014405,0.979263
1853,-23.254749,-5.432212,1.098650,0.020020,-0.009522,0.966690
1854,-25.818265,-5.737392,0.854505,0.021607,-0.027955,0.991592
1855,-25.818265,-5.127031,0.976577,0.037232,-0.014893,1.000992
1856,-26.489662,-4.699779,1.342794,0.029175,-0.021851,0.995132
1857,-27.832456,-4.394598,0.854505,0.021851,-0.014160,0.967788
1858,-31.372549,-5.554284,0.549325,0.030152,0.005005,0.967666
1859,-34.668498,-7.202258,0.854505,-0.000732,-0.101442,0.954238
1860,-34.790570,-5.188067,1.709010,0.061891,-0.041382,1.043961
1861,-37.842374,-1.464866,3.418021,0.046387,-0.021607,1.028336
1862,-37.048905,2.929732,5.371176,0.067140,-0.045533,1.040787
1863,-49.439231,2.868696,7.568475,0.015991,-0.081178,0.987930
1864,-40.405890,3.723201,4.577707,-0.003662,-0.021973,1.056168
1865,-45.654994,1.709010,1.037613,0.008057,-0.041138,0.995865
1866,-52.796216,1.647974,-1.525902,0.008057,-0.041871,0.964492
1867,-54.200046,0.366217,-6.897078,-0.011963,-0.044678,1.037980
1868,-48.523690,-0.732433,-13.061723,-0.060426,-0.119509,1.020157
1869,-45.044633,-0.488289,-16.296635,0.032227,-0.130861,1.044205
1870,-65.186542,1.159686,-31.189441,-0.009033,-0.182742,0.944472
1871,-58.899825,-0.427253,-21.606775,0.175051,-0.318486,1.073136
1872,-36.377508,2.441444,-8.972305,0.164675,-0.262699,1.140398
1873,-26.062409,6.775006,-0.610361,0.106813,-0.144778,1.063737
1874,-35.828183,13.122759,-2.624552,0.099611,0.064942,1.008804
1875,-63.965820,23.071641,-15.869383,0.057130,0.221683,0.905043
1876,-112.184329,26.550698,-22.461280,-0.037598,0.455818,0.703624
1877,-176.272221,17.029068,-37.598230,-0.261845,0.254276,0.661509
1878,-207.888914,-26.855879,-23.559930,-0.283574,0.088502,0.697154
1879,-317.143511,-38.696880,-36.011292,0.202396,0.971084,1.694850
1880,-461.738003,-68.909743,-57.923247,-0.758190,0.429694,1.017716
1881,-656.626230,-204.348821,-33.142596,-0.449836,0.121462,1.292988
1882,-825.818265,-289.250019,47.547112,0.000610,-0.032471,0.933608
1883,-928.725109,-280.216678,94.728008,0.415778,-1.462425,1.999969
1884,-1147.051194,-255.008774,255.313954,-1.003433,-0.897597,1.999969
1885,-184.084840,-102.357519,36.194400,-0.705455,-1.396139,1.999969
1886,366.399634,16.174563,-30.701152,-0.372076,0.587411,1.999969
1887,268.253605,82.948043,-22.705425,-0.150393,1.054948,1.422507
1888,61.158160,28.564889,34.424353,-0.790295,0.706554,0.387213
1889,-57.679103,-37.170977,77.393759,-0.350835,0.382574,0.075319
1890,-1.098650,-33.508812,74.036774,-0.136355,0.168948,0.277470
1891,89.478904,-13.305867,56.763561,0.025147,0.368414,0.341070
1892,59.449149,-3.418021,45.838102,0.231205,0.542733,0.542000
1893,38.147555,13.427939,32.227054,0.195682,0.434089,0.895033
1894,87.464714,27.649348,12.512398,0.158816,0.468391,1.047990
1895,116.823072,27.710384,-1.037613,0.128420,0.534920,1.087297
1896,127.870604,20.263981,-8.911269,0.095705,0.461921,1.214984
1897,161.989776,20.691234,-17.456321,0.075074,0.388434,1.284810
1898,191.042954,27.222095,-24.658579,0.032837,0.318730,1.255756
1899,207.278553,33.508812,-28.015564,-0.001709,0.211185,1.250019
1900,227.115282,39.978637,-28.747997,-0.053101,0.106691,1.302266
1901,247.440299,44.434272,-26.611734,-0.058228,0.036378,1.374533
1902,265.995270,47.913329,-22.644388,-0.035035,-0.063233,1.356466
1903,283.817807,49.744411,-18.677043,0.032837,-0.133913,1.268330
1904,293.705653,48.828870,-18.005646,0.235721,-0.144656,1.202167
1905,290.531777,47.364004,-26.001373,0.500984,-0.200443,1.278096
1906,293.766690,54.383154,-43.335622,0.589364,-0.243534,1.409445
