Packet number,Gyroscope X (deg/s),Gyroscope Y (deg/s),Gyroscope Z (deg/s),Accelerometer X (g),Accelerometer Y (g),Accelerometer Z (g)
0,-0.54932500,-0.24414400,0.00000000,0.04785200,-0.03469300,1.00025939
1,-0.54932500,-0.24414400,0.00000000,0.04785200,-0.03469300,1.00025939
2,-0.61036100,-0.24414400,0.00000000,0.04306700,-0.04904900,0.99989316
3,-0.61036100,-0.24414400,0.00000000,0.04306700,-0.04904900,0.99989316
4,-0.61036100,-0.24414400,0.00000000,0.03828200,-0.05383400,0.99855041
5,-0.61036100,-0.24414400,0.00000000,0.03828200,-0.05383400,0.99855041
6,-0.42725300,-0.12207200,0.06103600,0.07177800,-0.06699300,0.99977112
7,-0.42725300,-0.12207200,0.06103600,0.07177800,-0.06699300,0.99977112
8,-0.24414400,0.00000000,0.06103600,0.06340400,-0.08493800,0.99830622
9,-0.24414400,0.00000000,0.06103600,0.06340400,-0.08493800,0.99830622
10,-0.24414400,-0.42725300,0.00000000,0.05503000,-0.03588900,0.99964908
11,-0.24414400,-0.42725300,0.00000000,0.05503000,-0.03588900,0.99964908
12,-0.30518000,-0.48828900,-0.06103600,0.04067400,-0.02512200,0.99952694
13,-0.30518000,-0.48828900,-0.06103600,0.04067400,-0.02512200,0.99952694
14,-0.36621700,-0.48828900,-0.06103600,0.03828200,-0.05622600,0.99879449
15,-0.48828900,-0.54932500,0.00000000,0.04546000,-0.06699300,0.99757378
16,-0.48828900,-0.54932500,0.00000000,0.04546000,-0.06699300,0.99757378
17,-0.36621700,-0.54932500,0.00000000,0.04426300,-0.06938600,0.99732969
18,-0.36621700,-0.54932500,0.00000000,0.04426300,-0.06938600,0.99732969
19,-0.36621700,-0.54932500,0.06103600,0.06220800,-0.05622600,0.99940490
20,0.18310800,1.46486600,0.06103600,0.00478500,-0.05144100,0.99879449
21,0.18310800,1.28175800,0.06103600,0.01196300,-0.07776000,1.00123602
22,0.18310800,1.28175800,0.06103600,0.01196300,-0.07776000,1.00123602
23,0.18310800,1.15968600,0.00000000,0.01196300,-0.06340400,0.99928286
24,0.00000000,0.61036100,0.00000000,0.00478500,-0.04785200,0.99842837
25,0.00000000,0.61036100,0.00000000,0.00478500,-0.04785200,0.99842837
26,0.00000000,0.54932500,0.00000000,0.01435600,-0.08015300,0.99964908
27,0.00000000,0.54932500,0.00000000,0.01435600,-0.08015300,0.99964908
28,0.00000000,0.42725300,0.00000000,0.01196300,-0.09091900,0.99855041
29,0.00000000,0.42725300,0.00000000,0.01196300,-0.09091900,0.99855041
30,-0.61036100,-0.36621700,-0.06103600,0.01674800,-0.06101200,0.99732969
31,-0.61036100,-0.36621700,-0.06103600,0.01674800,-0.06101200,0.99732969
32,-0.30518000,-0.30518000,0.00000000,0.00478500,-0.04546000,0.99867245
33,-0.30518000,-0.30518000,0.00000000,0.00478500,-0.04546000,0.99867245
34,-0.30518000,-0.30518000,0.12207200,0.01674800,-0.06220800,0.99794000
35,-0.30518000,-0.30518000,0.12207200,0.01674800,-0.06220800,0.99794000
36,-0.12207200,-0.30518000,0.12207200,0.00119600,-0.08493800,0.99879449
37,-0.12207200,-0.30518000,0.12207200,0.00119600,-0.08493800,0.99879449
38,0.00000000,-0.24414400,0.18310800,0.01555200,-0.05263800,0.99415582
39,0.00000000,-0.24414400,0.18310800,0.01555200,-0.05263800,0.99415582
40,0.54932500,-0.12207200,0.36621700,0.00478500,-0.03230000,0.99757378
41,0.54932500,-0.12207200,0.36621700,0.00478500,-0.03230000,0.99757378
42,0.48828900,-0.06103600,0.30518000,-0.02153400,-0.01076700,0.99549857
43,0.48828900,-0.06103600,0.30518000,-0.02153400,-0.01076700,0.99549857
44,0.54932500,-0.24414400,0.24414400,-0.02033700,0.00119600,1.00306704
45,0.54932500,-0.24414400,0.24414400,-0.02033700,0.00119600,1.00306704
46,0.42725300,-0.36621700,0.24414400,0.00717800,-0.01914100,0.99671929
47,0.42725300,-0.36621700,0.24414400,0.00717800,-0.01914100,0.99671929
48,0.00000000,-0.73243300,0.12207200,-0.00717800,-0.00478500,1.00001531
49,0.00000000,-0.73243300,0.12207200,-0.00717800,-0.00478500,1.00001531
50,-0.06103600,-0.67139700,0.36621700,0.02631900,-0.01435600,0.99867245
51,-0.06103600,-0.67139700,0.36621700,0.02631900,-0.01435600,0.99867245
52,-0.06103600,-0.61036100,0.42725300,0.03349700,-0.01076700,0.99855041
53,-0.06103600,-0.61036100,0.42725300,0.03349700,-0.01076700,0.99855041
54,0.06103600,-0.48828900,0.42725300,0.02512200,-0.04187100,0.99964908
55,0.06103600,-0.48828900,0.42725300,0.02512200,-0.04187100,0.99964908
56,0.06103600,-0.36621700,0.36621700,0.02751500,-0.02751500,0.99781796
57,0.06103600,-0.36621700,0.36621700,0.01794500,-0.00717800,0.99891663
58,0.06103600,-0.36621700,0.36621700,0.01794500,-0.00717800,0.99891663
59,-0.06103600,-0.42725300,0.30518000,0.00837400,-0.00239300,0.99513235
60,0.54932500,-1.83108300,0.97657700,0.02751500,-0.03349700,1.00282296
61,0.36621700,-2.13626300,1.22072200,0.00598200,-0.09570500,0.99708551
62,0.36621700,-2.13626300,1.22072200,0.00598200,-0.09570500,0.99708551
63,0.73243300,-2.19729900,1.40383000,0.06819000,-0.06819000,0.99855041
64,0.73243300,-2.19729900,1.40383000,0.06819000,-0.06819000,0.99855041
65,2.13626300,-1.64797400,1.22072200,0.05024500,-0.00478500,0.99696347
66,2.13626300,-1.64797400,1.22072200,0.05024500,-0.00478500,0.99696347
67,2.01419100,-1.28175800,1.22072200,0.02512200,0.10168600,0.99952694
68,0.91554100,-1.09865000,0.79346900,0.04546000,0.06220800,0.99415582
69,0.00000000,-0.91554100,0.61036100,-0.00717800,0.05742300,1.00514224
70,-2.01419100,-1.52590200,-0.54932500,0.04306700,-0.08493800,0.99964908
71,-1.77004700,-1.58693800,-0.42725300,0.04067400,-0.09450800,0.99732969
72,-1.77004700,-1.58693800,-0.42725300,0.04067400,-0.09450800,0.99732969
73,-1.58693800,-1.46486600,-0.30518000,0.04785200,-0.10407900,0.99903867
74,-1.58693800,-1.46486600,-0.30518000,0.04785200,-0.10407900,0.99903867
75,-1.40383000,-1.40383000,-0.24414400,0.02751500,-0.08134900,1.00209051
76,-1.40383000,-1.40383000,-0.24414400,0.02751500,-0.08134900,1.00209051
77,-1.22072200,-1.46486600,-0.18310800,0.02153400,-0.07895600,0.99708551
78,-1.22072200,-1.46486600,-0.18310800,0.02153400,-0.07895600,0.99708551
79,-1.03761300,-1.40383000,-0.06103600,0.04546000,-0.07177800,0.99659724
80,1.52590200,0.30518000,0.79346900,0.04665600,-0.07297500,0.99806214
81,1.64797400,0.24414400,0.85450500,0.05144100,-0.04665600,1.00135806
82,1.46486600,0.30518000,0.85450500,0.05742300,-0.00239300,1.00270082
83,1.46486600,0.30518000,0.85450500,0.05742300,-0.00239300,1.00270082
84,1.15968600,0.36621700,0.85450500,0.06101200,-0.01674800,1.00343327
85,1.15968600,0.36621700,0.85450500,0.06101200,-0.01674800,1.00343327
86,0.85450500,0.36621700,0.85450500,0.06101200,-0.02392600,1.00306704
87,0.85450500,0.36621700,0.85450500,0.06101200,-0.02392600,1.00306704
88,0.73243300,0.36621700,0.73243300,0.07058200,-0.03947800,1.00099184
89,-0.06103600,0.00000000,0.12207200,0.05622600,0.03947800,1.00135806
90,-0.79346900,0.24414400,-0.36621700,0.08493800,0.02273000,0.99769592
91,-0.79346900,0.24414400,-0.36621700,0.08493800,0.02273000,0.99769592
92,-1.15968600,0.36621700,-0.48828900,0.07177800,0.02631900,0.99928286
93,-1.15968600,0.36621700,-0.48828900,0.07177800,0.02631900,0.99928286
94,-1.40383000,0.54932500,-0.54932500,0.07177800,0.00000000,1.00001531
95,-1.40383000,0.54932500,-0.54932500,0.07177800,0.00000000,1.00001531
96,-1.70901000,0.61036100,-0.61036100,0.05622600,-0.04306700,0.99769592
97,-1.70901000,0.61036100,-0.61036100,0.05622600,-0.04306700,0.99769592
98,-1.95315500,0.73243300,-0.67139700,0.02153400,-0.05622600,0.99879449
99,-1.95315500,0.73243300,-0.67139700,0.02153400,-0.05622600,0.99879449
100,-1.03761300,-0.24414400,-0.42725300,0.02392600,-0.00358900,1.00209051
101,-1.03761300,-0.24414400,-0.42725300,0.02392600,-0.00358900,1.00209051
102,-1.03761300,-0.48828900,-0.61036100,0.04546000,0.01794500,1.00013735
103,-1.03761300,-0.48828900,-0.61036100,0.04546000,0.01794500,1.00013735
104,-1.34279400,-0.67139700,-0.79346900,0.03230000,-0.00478500,0.99623102
105,-1.34279400,-0.67139700,-0.79346900,0.03230000,-0.00478500,0.99623102
106,-1.95315500,-0.67139700,-0.91554100,0.03588900,-0.02273000,0.99696347
107,-1.95315500,-0.67139700,-0.91554100,0.03588900,-0.02273000,0.99696347
108,-2.44144400,-0.61036100,-1.09865000,0.01076700,-0.05263800,0.99940490
109,-1.77004700,-1.15968600,-0.73243300,0.04904900,-0.14355700,0.99977112
110,2.31937100,-1.40383000,1.15968600,0.02512200,-0.08374200,1.00367745
111,2.31937100,-1.40383000,1.15968600,0.02512200,-0.08374200,1.00367745
112,2.38040700,-1.58693800,1.15968600,0.05742300,-0.05503000,1.00086980
113,2.38040700,-1.58693800,1.15968600,0.05742300,-0.05503000,1.00086980
114,2.01419100,-1.58693800,1.09865000,0.06938600,-0.06819000,1.00196837
115,2.01419100,-1.58693800,1.09865000,0.06938600,-0.06819000,1.00196837
116,1.58693800,-1.58693800,0.97657700,0.05861900,-0.06101200,1.00148010
117,1.58693800,-1.58693800,0.97657700,0.05861900,-0.06101200,1.00148010
118,1.40383000,-1.40383000,0.85450500,0.07536700,-0.09690100,1.00086980
119,1.40383000,-1.28175800,0.91554100,0.07297500,-0.14236100,0.99916071
120,0.30518000,-1.64797400,0.67139700,0.14594900,-0.11604200,0.99671929
121,0.30518000,-0.97657700,0.91554100,0.13637900,-0.10407900,0.99940490
122,0.30518000,-0.97657700,0.91554100,0.13637900,-0.10407900,0.99940490
123,0.79346900,-0.54932500,1.58693800,0.08852700,-0.27036500,0.99781796
124,0.79346900,-0.54932500,1.58693800,0.08852700,-0.27036500,0.99781796
125,1.77004700,-0.36621700,1.52590200,0.09690100,-0.21772800,0.99989316
126,1.77004700,-0.36621700,1.52590200,0.09690100,-0.21772800,0.99989316
127,2.38040700,-0.24414400,1.83108300,0.12082700,-0.19619400,1.00050357
128,2.31937100,0.97657700,1.89211900,0.09091900,-0.02273000,1.00209051
129,1.64797400,1.03761300,1.64797400,0.12561200,-0.02392600,0.99598684
130,0.30518000,0.48828900,0.36621700,0.04067400,-0.11006000,0.99867245
131,0.30518000,0.48828900,0.36621700,0.04067400,-0.11006000,0.99867245
132,0.73243300,0.36621700,0.54932500,0.07417100,-0.13877200,1.00111388
133,0.73243300,0.36621700,0.54932500,0.07417100,-0.13877200,1.00111388
134,1.15968600,0.54932500,0.73243300,0.10168600,-0.11364900,0.99574276
135,1.15968600,0.54932500,0.73243300,0.10168600,-0.11364900,0.99574276
136,1.40383000,0.79346900,0.85450500,0.08134900,-0.08015300,0.99671929
137,1.40383000,0.79346900,0.85450500,0.08134900,-0.08015300,0.99671929
138,1.58693800,1.09865000,0.85450500,0.05263800,-0.07656400,0.99781796
139,1.58693800,1.09865000,0.85450500,0.05263800,-0.07656400,0.99781796
140,0.18310800,15.86938300,-0.12207200,0.19739100,0.09450800,0.99378959
141,0.18310800,15.86938300,-0.12207200,0.19739100,0.09450800,0.99378959
142,0.24414400,17.39528500,-0.12207200,0.22969100,0.15791300,0.99745173
143,0.24414400,17.39528500,-0.12207200,0.22969100,0.15791300,0.99745173
144,0.12207200,19.10429500,0.00000000,0.25122500,0.12800500,1.00050357
145,0.12207200,19.10429500,0.00000000,0.25122500,0.12800500,1.00050357
146,-0.18310800,21.05745000,-0.06103600,0.27515100,0.15552000,0.99659724
147,-0.18310800,21.05745000,-0.06103600,0.27515100,0.15552000,0.99659724
148,-0.54932500,23.19371300,-0.12207200,0.24285000,0.26318800,0.98170439
149,-1.89211900,47.24193200,-0.73243300,0.93431600,-0.36128500,0.97535663
150,-68.97077900,316.22797000,-61.09712400,-3.73367500,0.26558000,1.02430765
151,-68.97077900,316.22797000,-61.09712400,-3.73367500,0.26558000,1.02430765
152,-73.12123300,314.70206800,-65.36965000,-3.97772200,0.28472100,1.04017704
153,-73.12123300,314.70206800,-65.36965000,-3.97772200,0.28472100,1.04017704
154,-77.45479500,312.26062400,-70.92393400,-4.43590800,0.14116400,1.07521173
155,-77.45479500,312.26062400,-70.92393400,-4.43590800,0.14116400,1.07521173
156,-80.56763600,309.02571100,-77.69894000,-4.57228700,0.67711000,1.18739602
157,-80.56763600,309.02571100,-77.69894000,-4.57228700,0.67711000,1.18739602
158,-80.44556300,303.41039100,-80.75074400,-4.75173300,1.22262600,1.28542000
159,-80.44556300,303.41039100,-80.75074400,-4.75173300,1.22262600,1.28542000
160,87.76989400,-179.38506100,11.77996500,-0.96422400,-1.97151400,0.94764633
161,97.59670400,-179.69024200,11.77996500,-0.77640300,-1.69038200,0.91285571
162,97.59670400,-179.69024200,11.77996500,-0.77640300,-1.69038200,0.91285571
163,104.79896200,-178.34744800,11.47478400,-0.64122100,-1.32670500,0.89893949
164,104.79896200,-178.34744800,11.47478400,-0.64122100,-1.32670500,0.89893949
165,110.47531900,-176.51636500,10.92546000,-0.63523900,-1.00729100,0.87501337
166,110.47531900,-176.51636500,10.92546000,-0.63523900,-1.00729100,0.87501337
167,113.16090600,-174.31906600,10.07095400,-0.70941000,-0.64361300,0.87745480
168,113.16090600,-174.31906600,10.07095400,-0.70941000,-0.64361300,0.87745480
169,76.29510900,-178.77470100,1.83108300,-1.67124100,0.47493400,0.98768602
170,19.16533200,-168.76478200,62.92820600,-1.37096800,-1.78728300,0.52344551
171,19.16533200,-168.76478200,62.92820600,-1.37096800,-1.78728300,0.52344551
172,12.26825400,-160.83009100,56.70252500,-1.52050700,-1.67722300,0.54798204
173,7.20225800,-153.87197700,52.06378300,-1.77292700,-1.53605900,0.57239643
174,7.20225800,-153.87197700,52.06378300,-1.77292700,-1.53605900,0.57239643
175,3.54009300,-148.19562100,49.13405100,-1.96433700,-1.36498700,0.59534602
176,3.54009300,-148.19562100,49.13405100,-1.96433700,-1.36498700,0.59534602
177,0.73243300,-143.43480600,47.97436500,-2.15574600,-1.21784100,0.61292439
178,0.73243300,-143.43480600,47.97436500,-2.15574600,-1.21784100,0.61292439
179,-1.95315500,-139.22331600,48.40161700,-2.23470200,-1.13768800,0.62586408
180,-62.62302600,142.03097600,-57.92324700,-4.21459100,-1.04318000,0.93360796
181,-22.88853300,178.89677300,-51.45342200,-6.26266900,-0.32061000,1.48659500
182,-22.88853300,178.89677300,-51.45342200,-6.26266900,-0.32061000,1.48659500
183,10.31509900,190.37155700,-53.10139600,-10.71652100,2.28614300,1.99996949
184,10.31509900,190.37155700,-53.10139600,-10.71652100,2.28614300,1.99996949
185,-0.91554100,167.54406000,-52.73518000,-14.46455200,3.54226600,1.99996949
186,-0.91554100,167.54406000,-52.73518000,-14.46455200,3.54226600,1.99996949
187,-50.59891700,106.20279200,-49.68337500,-15.23856300,3.18217700,1.99996949
188,-50.59891700,106.20279200,-49.68337500,-15.23856300,3.18217700,1.99996949
189,19.89776500,-6.34775300,5.98153700,8.93761200,-4.09256700,0.12048520
190,-6.28671700,-3.60112900,-4.69977900,0.33855500,0.05861900,1.00001531
191,-7.56847500,-2.50248000,-4.82185100,0.29429200,-0.06220800,1.00807204
192,-7.56847500,-2.50248000,-4.82185100,0.29429200,-0.06220800,1.00807204
193,-7.99572700,-1.83108300,-4.94392300,0.11963100,-0.09331200,1.00697337
194,-7.99572700,-1.83108300,-4.94392300,0.11963100,-0.09331200,1.00697337
195,-7.93469100,-1.40383000,-4.76081500,0.08134900,-0.24165400,1.02711531
196,-7.93469100,-1.40383000,-4.76081500,0.08134900,-0.24165400,1.02711531
197,-7.32433100,-1.95315500,-4.45563400,-0.01076700,-0.23567300,1.02015714
198,-7.32433100,-1.95315500,-4.45563400,-0.01076700,-0.23567300,1.02015714
199,-6.16464500,-2.50248000,-4.08941800,0.04546000,-0.22012100,1.01503010
200,2.62455200,-2.80766000,0.67139700,0.23208400,-0.16748300,1.00099184
201,2.62455200,-2.80766000,0.67139700,0.23208400,-0.16748300,1.00099184
202,2.86869600,-2.62455200,0.30518000,0.27156200,-0.04665600,1.00331122
203,2.86869600,-2.62455200,0.30518000,0.27156200,-0.04665600,1.00331122
204,2.31937100,-2.25833500,0.54932500,0.20217600,-0.06220800,1.00868235
205,2.31937100,-2.25833500,0.54932500,0.20217600,-0.06220800,1.00868235
206,2.13626300,-2.56351600,0.61036100,0.17107200,-0.12322000,1.01405357
207,2.13626300,-2.56351600,0.61036100,0.17107200,-0.12322000,1.01405357
208,1.83108300,-3.05180400,0.73243300,0.20815700,-0.20337200,1.01771571
209,5.24910400,-2.19729900,1.64797400,0.36248100,-0.10886400,1.00355531
210,12.93965100,22.76646100,5.49324800,0.25959900,-0.15910900,1.01454184
211,12.87861400,23.31578500,5.67635600,0.31462900,-0.08613400,1.00782786
212,12.87861400,23.31578500,5.67635600,0.31462900,-0.08613400,1.00782786
213,13.42793900,23.74303800,5.79842800,0.33735900,0.03230000,1.00306704
214,14.34348100,24.47547100,5.92050000,0.34094800,0.08015300,1.00453194
215,14.34348100,24.47547100,5.92050000,0.34094800,0.08015300,1.00453194
216,14.34348100,25.57412100,5.67635600,0.31582500,0.14953800,1.00831612
217,14.34348100,25.57412100,5.67635600,0.31582500,0.14953800,1.00831612
218,13.18379500,26.55069800,5.12703100,0.27156200,0.26558000,1.00062561
219,13.18379500,26.55069800,5.12703100,0.27156200,0.26558000,1.00062561
220,6.83604200,232.79163800,16.11352700,-1.09701400,0.22012100,1.06471347
221,12.39032600,235.96551500,17.39528500,-1.79326500,-0.02033700,1.10548561
222,12.39032600,235.96551500,17.39528500,-1.79326500,-0.02033700,1.10548561
223,19.16533200,235.96551500,18.67704300,-2.35074400,-0.32300300,1.13282980
224,19.16533200,235.96551500,18.67704300,-2.35074400,-0.32300300,1.13282980
225,24.47547100,234.86686500,19.77569200,-2.93454200,-0.19619400,1.13246357
226,24.47547100,234.86686500,19.77569200,-2.93454200,-0.19619400,1.13246357
227,29.84664700,235.59929800,22.40024400,-4.24330200,-0.61729500,1.11049061
228,17.82253800,203.12809900,-7.81261900,-13.88195000,-1.62697800,1.88320745
229,2.44144400,160.83009100,-17.88357400,-14.40593300,-2.02774100,1.95010296
230,12.08514500,-5.12703100,-28.99214200,4.87375600,5.03286500,1.02760357
231,12.08514500,-5.12703100,-28.99214200,4.87375600,5.03286500,1.02760357
232,10.55924300,-6.22568100,-17.15114100,4.95510500,5.07952100,1.01075765
233,10.55924300,-6.22568100,-17.15114100,4.95510500,5.07952100,1.01075765
234,8.85023300,-7.69054700,-5.55428400,4.88930800,5.02568700,1.01637296
235,8.85023300,-7.69054700,-5.55428400,4.88930800,5.02568700,1.01637296
236,8.05676400,-10.07095400,5.92050000,4.70986200,4.93835700,1.03614867
237,8.05676400,-10.07095400,5.92050000,4.70986200,4.93835700,1.03614867
238,8.36194400,-14.03830000,17.39528500,4.40839200,4.77565900,1.06373694
239,8.36194400,-14.03830000,17.39528500,4.40839200,4.77565900,1.06373694
240,51.57549400,-209.10963600,109.68184900,-1.38293100,-0.65438000,0.50818643
241,51.57549400,-209.10963600,109.68184900,-1.38293100,-0.65438000,0.50818643
242,46.08224600,-204.40985700,108.88838000,-1.54921800,-0.54432000,0.49658959
243,46.08224600,-204.40985700,108.88838000,-1.54921800,-0.54432000,0.49658959
244,39.36827600,-199.22179000,108.52216400,-1.77292700,-0.59217200,0.48010990
245,39.36827600,-199.22179000,108.52216400,-1.77292700,-0.59217200,0.48010990
246,32.41016300,-193.48439800,107.91180300,-1.96433700,-0.61849100,0.46179908
247,32.41016300,-193.48439800,107.91180300,-1.96433700,-0.61849100,0.46179908
248,24.71961500,-187.74700500,106.99626200,-2.21197200,-0.75965500,0.44605173
249,-12.02410900,-151.61364200,92.95796100,-2.93932700,-2.06721900,0.36963459
250,111.14671600,132.38727400,-13.42793900,-4.46581500,1.60783700,1.48159000
251,142.27512000,124.08636600,1.03761300,-6.56892300,3.80665000,1.66347755
252,142.27512000,124.08636600,1.03761300,-6.56892300,3.80665000,1.66347755
253,143.12962500,99.00053400,2.56351600,-6.89910400,4.63928000,1.68838020
254,143.12962500,99.00053400,2.56351600,-6.89910400,4.63928000,1.68838020
255,104.24963800,59.57122100,-3.05180400,-5.16087000,6.14064500,1.53237204
256,104.24963800,59.57122100,-3.05180400,-5.16087000,6.14064500,1.53237204
257,35.52300300,14.28244400,-4.51667000,-2.32562100,4.84504500,1.07106122
258,35.52300300,14.28244400,-4.51667000,-2.32562100,4.84504500,1.07106122
259,-30.09079100,-12.32929000,-14.16037200,0.80631100,4.06624900,0.76038755
260,3.23491300,3.54009300,3.96734600,-0.08493800,0.17466100,0.99977112
261,3.23491300,3.54009300,3.96734600,-0.08493800,0.17466100,0.99977112
262,2.74662400,3.29594900,4.02838200,-0.06938600,0.12322000,1.00025939
263,2.74662400,3.29594900,4.02838200,-0.06938600,0.12322000,1.00025939
264,2.62455200,2.99076800,4.02838200,-0.07776000,0.09570500,0.99708551
265,2.62455200,2.99076800,4.02838200,-0.07776000,0.09570500,0.99708551
266,2.80766000,2.99076800,4.02838200,-0.08134900,0.09450800,0.99659724
267,2.80766000,2.99076800,4.02838200,-0.08134900,0.09450800,0.99659724
268,3.23491300,2.80766000,3.96734600,-0.09091900,0.12920100,0.99574276
269,0.00000000,0.24414400,2.44144400,0.01794500,0.18303500,0.98231480
270,1.95315500,6.40878900,0.42725300,0.05024500,0.19380200,0.98683143
271,1.95315500,6.40878900,0.42725300,0.05024500,0.19380200,0.98683143
272,1.83108300,7.14122200,0.30518000,0.02631900,0.17226800,0.99305714
273,1.83108300,7.14122200,0.30518000,0.02631900,0.17226800,0.99305714
274,1.58693800,7.44640300,0.42725300,0.01196300,0.10766800,0.98915082
275,1.58693800,7.44640300,0.42725300,0.01196300,0.10766800,0.98915082
276,1.64797400,7.62951100,0.18310800,0.02392600,0.08613400,0.98609908
277,1.64797400,7.62951100,0.18310800,0.02392600,0.08613400,0.98609908
278,1.77004700,7.75158300,-0.06103600,0.09809700,0.11723800,0.98744184
279,1.77004700,7.75158300,-0.06103600,0.09809700,0.11723800,0.98744184
280,2.80766000,61.28023200,2.25833500,0.08733000,0.22849500,0.97889673
281,2.80766000,61.28023200,2.25833500,0.08733000,0.22849500,0.97889673
282,0.97657700,66.28519100,1.83108300,0.18901700,0.19619400,0.98121612
283,0.97657700,66.28519100,1.83108300,0.18901700,0.19619400,0.98121612
284,-0.24414400,72.44983600,1.40383000,0.30505800,0.16150100,0.97096204
285,-0.24414400,72.44983600,1.40383000,0.30505800,0.16150100,0.97096204
286,0.12207200,79.83520300,1.09865000,0.41751100,0.28711400,0.96681163
287,0.12207200,79.83520300,1.09865000,0.41751100,0.28711400,0.96681163
288,3.66216500,143.98413100,-3.72320100,0.55389000,0.11723800,0.94361796
289,3.66216500,143.98413100,-3.72320100,0.55389000,0.11723800,0.94361796
290,-14.52658900,161.74563200,-151.24742500,-2.97162700,0.91996000,1.46596480
291,-17.02906800,155.27580700,-150.33188400,-2.91899000,1.20587800,1.51662469
292,-17.02906800,155.27580700,-150.33188400,-2.91899000,1.20587800,1.51662469
293,-20.08087300,146.85282700,-148.37872900,-2.87592300,1.50734700,1.55935000
294,-20.08087300,146.85282700,-148.37872900,-2.87592300,1.50734700,1.55935000
295,-22.46128000,136.84290800,-145.32692500,-2.79816300,1.70114900,1.60830092
296,-22.46128000,136.84290800,-145.32692500,-2.79816300,1.70114900,1.60830092
297,-24.04821900,124.75776300,-141.35957900,-2.85319300,1.90571800,1.65212480
298,-24.04821900,124.75776300,-141.35957900,-2.85319300,1.90571800,1.65212480
299,-24.59754300,110.29221000,-136.65980000,-2.75270300,2.03491900,1.67922480
300,77.69894000,-197.57381600,157.41207000,1.82197600,-0.00119600,0.76807816
301,78.98069700,-200.86976400,155.51995100,1.68081200,-0.26438400,0.73438622
302,78.98069700,-200.86976400,155.51995100,1.68081200,-0.26438400,0.73438622
303,80.62867200,-203.67742400,152.65125500,1.69756000,-0.43904500,0.69959561
304,80.62867200,-203.67742400,152.65125500,1.69756000,-0.43904500,0.69959561
305,80.75074400,-205.20332600,149.05012600,1.76575000,-0.53594600,0.67261765
306,80.75074400,-205.20332600,149.05012600,1.76575000,-0.53594600,0.67261765
307,79.95727500,-205.14229000,144.77760000,1.73823500,-0.60652800,0.65699245
308,79.95727500,-205.14229000,144.77760000,1.73823500,-0.60652800,0.65699245
309,73.85366600,-206.24094000,120.54627300,0.61729500,-1.35422000,0.71241327
310,-9.58266600,20.81330600,-19.34844000,-2.85917400,-1.49777700,-0.05493245
311,-9.58266600,20.81330600,-19.34844000,-2.85917400,-1.49777700,-0.05493245
312,-48.95094200,71.83947500,-49.50026700,-7.05821300,-1.06112500,-0.34961469
313,-48.95094200,71.83947500,-49.50026700,-7.05821300,-1.06112500,-0.34961469
314,-62.19577300,129.39650600,-77.51583100,-11.45225000,-2.08277100,-0.34009306
315,-62.19577300,129.39650600,-77.51583100,-11.45225000,-2.08277100,-0.34009306
316,-55.66491200,172.85420000,-129.15236100,-11.08259100,-2.35313600,0.65027847
317,-55.66491200,172.85420000,-129.15236100,-11.08259100,-2.35313600,0.65027847
318,-78.06515600,159.91454900,-196.10894900,-11.89488400,3.90953200,1.67641714
319,-78.06515600,159.91454900,-196.10894900,-11.89488400,3.90953200,1.67641714
320,1.22072200,-1.83108300,1.22072200,-0.14236100,-0.10407900,1.00282296
321,2.01419100,-1.40383000,1.34279400,-0.13039700,-0.05861900,1.00428776
322,2.01419100,-1.40383000,1.34279400,-0.13039700,-0.05861900,1.00428776
323,2.80766000,-1.03761300,1.46486600,-0.08613400,0.01076700,0.99562061
324,2.80766000,-1.03761300,1.46486600,-0.08613400,0.01076700,0.99562061
325,3.17387700,-0.42725300,1.58693800,-0.04306700,0.12441600,0.99476612
326,3.17387700,-0.42725300,1.58693800,-0.04306700,0.12441600,0.99476612
327,2.86869600,0.06103600,1.64797400,-0.05383400,0.18423100,0.99525449
328,2.86869600,0.06103600,1.64797400,-0.05383400,0.18423100,0.99525449
329,1.09865000,-0.06103600,1.58693800,-0.10886400,0.06340400,0.99354541
330,-0.42725300,6.89707800,1.83108300,-0.16987600,0.08134900,0.99696347
331,-0.54932500,6.53086100,1.89211900,-0.17944600,0.05622600,0.99598684
332,-0.54932500,6.53086100,1.89211900,-0.17944600,0.05622600,0.99598684
333,-0.42725300,6.28671700,2.07522700,-0.21533500,0.07058200,1.00721755
334,-0.42725300,6.28671700,2.07522700,-0.21533500,0.07058200,1.00721755
335,0.36621700,6.16464500,2.44144400,-0.27036500,0.01315900,1.00697337
336,0.36621700,6.16464500,2.44144400,-0.27036500,0.01315900,1.00697337
337,1.28175800,5.92050000,2.92973200,-0.26438400,-0.02751500,0.99720755
338,1.28175800,5.92050000,2.92973200,-0.26438400,-0.02751500,0.99720755
339,2.31937100,5.31014000,3.17387700,-0.24883200,0.00358900,0.99659724
340,5.55428400,24.23132700,1.89211900,-0.20456900,0.16867900,0.98670939
341,5.67635600,24.65857900,1.83108300,-0.14355700,0.20098000,0.98731980
342,5.67635600,24.65857900,1.83108300,-0.14355700,0.20098000,0.98731980
343,5.24910400,25.51308500,1.70901000,-0.09091900,0.21294300,0.98390173
344,5.24910400,25.51308500,1.70901000,-0.09091900,0.21294300,0.98390173
345,4.39459800,26.97795100,1.52590200,-0.07656400,0.18423100,0.98121612
346,4.39459800,26.97795100,1.52590200,-0.07656400,0.18423100,0.98121612
347,3.78423700,28.68696100,1.22072200,-0.12680900,0.13039700,0.98341347
348,3.78423700,28.68696100,1.22072200,-0.12680900,0.13039700,0.98341347
349,5.61532000,37.72030200,3.11284000,-0.25242100,0.02990800,0.97901888
350,-0.48828900,127.56542300,-23.55993000,-12.17362300,-0.04306700,1.77334245
351,-0.48828900,127.56542300,-23.55993000,-12.17362300,-0.04306700,1.77334245
352,-9.82681000,90.15030100,-30.76218800,-11.30151500,-0.96900900,1.52919816
353,-9.82681000,90.15030100,-30.76218800,-11.30151500,-0.96900900,1.52919816
354,-20.75227000,75.31853200,-50.53788100,-10.73446600,-1.29201200,1.30336459
355,-20.75227000,75.31853200,-50.53788100,-10.73446600,-1.29201200,1.30336459
356,-42.23697300,72.69398000,-76.47821800,-10.73326900,-0.53116000,1.44264898
357,-42.23697300,72.69398000,-76.47821800,-10.73326900,-0.53116000,1.44264898
358,-68.66559900,60.97505200,-96.86427100,-10.81701100,-0.11245300,1.61855500
359,-68.66559900,60.97505200,-96.86427100,-10.81701100,-0.11245300,1.61855500
360,4.02838200,-27.83245600,59.57122100,3.13671800,4.04232200,0.97987337
361,8.72816100,-32.47119900,70.92393400,2.78141500,3.94542200,1.02626082
362,8.72816100,-32.47119900,70.92393400,2.78141500,3.94542200,1.02626082
363,13.18379500,-39.79552900,81.84939300,2.46558900,3.83177200,1.06923020
364,13.18379500,-39.79552900,81.84939300,2.46558900,3.83177200,1.06923020
365,17.21217700,-49.43923100,92.40863700,2.21436500,3.75640500,1.09376673
366,17.21217700,-49.43923100,92.40863700,2.21436500,3.75640500,1.09376673
367,20.63019800,-60.54779900,101.99130200,2.01099300,3.67744900,1.11403071
368,20.63019800,-60.54779900,101.99130200,2.01099300,3.67744900,1.11403071
369,35.70611100,-135.92736700,157.35103400,1.57912600,2.78261100,1.05787745
370,23.80407400,-127.80956700,-3.84527400,-2.68929900,-0.90321200,0.44483102
371,23.80407400,-127.80956700,-3.84527400,-2.68929900,-0.90321200,0.44483102
372,17.39528500,-118.71519000,-6.40878900,-2.87353000,-0.59097600,0.46265357
373,17.39528500,-118.71519000,-6.40878900,-2.87353000,-0.59097600,0.46265357
374,11.23064000,-110.41428200,-7.81261900,-2.99914200,-0.35410700,0.48633551
375,11.23064000,-110.41428200,-7.81261900,-2.99914200,-0.35410700,0.48633551
376,5.67635600,-102.96788000,-8.17883600,-3.14150300,-0.12441600,0.50867480
377,5.67635600,-102.96788000,-8.17883600,-3.14150300,-0.12441600,0.50867480
378,0.30518000,-96.19287400,-7.69054700,-3.25276000,0.00239300,0.53003735
379,0.30518000,-96.19287400,-7.69054700,-3.25276000,0.00239300,0.53003735
380,-106.44693700,-16.35767100,-15.86938300,0.11006000,2.33160300,0.98231480
381,-106.44693700,-16.35767100,-15.86938300,0.11006000,2.33160300,0.98231480
382,-169.31410700,-33.02052300,-24.17029100,1.75378700,-0.75128100,0.74439612
383,-169.31410700,-33.02052300,-24.17029100,1.75378700,-0.75128100,0.74439612
384,-177.85915900,-21.48470300,-28.74799700,1.92485800,-2.64982100,0.71522092
385,-177.85915900,-21.48470300,-28.74799700,1.92485800,-2.64982100,0.71522092
386,-130.18997500,2.80766000,-23.13267700,0.57542400,-4.33900700,0.86378276
387,-130.18997500,2.80766000,-23.13267700,0.57542400,-4.33900700,0.86378276
388,-45.41084900,22.52231600,-12.26825400,-1.56955500,-5.37859800,0.99794000
389,16.90699600,4.94392300,0.18310800,1.00609400,2.96923500,0.92103459
390,-0.24414400,0.67139700,1.40383000,-0.25361700,0.01555200,0.99391163
391,-0.24414400,0.67139700,1.40383000,-0.25361700,0.01555200,0.99391163
392,0.18310800,0.54932500,1.70901000,-0.22849500,0.00000000,0.99122602
393,0.18310800,0.54932500,1.70901000,-0.22849500,0.00000000,0.99122602
394,0.79346900,0.36621700,1.95315500,-0.16987600,0.05742300,0.99415582
395,0.79346900,0.36621700,1.95315500,-0.16987600,0.05742300,0.99415582
396,1.09865000,0.54932500,2.25833500,-0.15193100,0.06819000,0.99342337
397,1.09865000,0.54932500,2.25833500,-0.15193100,0.06819000,0.99342337
398,1.22072200,1.03761300,2.44144400,-0.13877200,0.10647100,0.98793010
399,1.22072200,1.03761300,2.44144400,-0.13877200,0.10647100,0.98793010
400,2.25833500,15.68627500,-0.30518000,-0.30146900,0.18064200,0.98365755
401,2.25833500,15.68627500,-0.30518000,-0.30146900,0.18064200,0.98365755
402,2.13626300,15.56420200,-0.42725300,-0.26079500,0.16987600,0.99061571
403,2.13626300,15.56420200,-0.42725300,-0.26079500,0.16987600,0.99061571
404,2.44144400,15.01487800,-0.42725300,-0.24883200,0.16867900,0.98304724
405,2.44144400,15.01487800,-0.42725300,-0.24883200,0.16867900,0.98304724
406,2.44144400,14.77073300,-0.12207200,-0.29070300,0.15312700,0.98133827
407,2.44144400,14.77073300,-0.12207200,-0.29070300,0.15312700,0.98133827
408,2.86869600,14.89280500,0.00000000,-0.30146900,0.16628700,0.98402378
409,2.99076800,13.24483100,-0.67139700,-0.39478100,0.18542800,0.98426796
410,4.33356200,90.02822900,0.06103600,-0.18064200,0.00478500,0.95069806
411,4.33356200,90.02822900,0.06103600,-0.18064200,0.00478500,0.95069806
412,4.08941800,94.66697200,0.18310800,-0.09690100,-0.03708600,0.93568327
413,4.08941800,94.66697200,0.18310800,-0.09690100,-0.03708600,0.93568327
414,3.72320100,100.52643600,-0.06103600,-0.04187100,-0.00957000,0.93031204
415,3.72320100,100.52643600,-0.06103600,-0.04187100,-0.00957000,0.93031204
416,3.72320100,107.42351400,-0.12207200,-0.01315900,0.02512200,0.92933551
417,3.72320100,107.42351400,-0.12207200,-0.01315900,0.02512200,0.92933551
418,3.29594900,114.62577200,0.42725300,0.08134900,0.09211600,0.92945755
419,3.29594900,114.62577200,0.42725300,0.08134900,0.09211600,0.92945755
420,-23.19371300,207.46166200,-138.91813500,-8.18274200,-0.66514700,0.91456469
421,-5.43221200,217.77676100,-130.55619100,-8.82994400,0.25481300,0.97364765
422,-5.43221200,217.77676100,-130.55619100,-8.82994400,0.25481300,0.97364765
423,5.85946400,223.51415300,-117.37239600,-9.06322400,-0.01315900,1.01783776
424,5.85946400,223.51415300,-117.37239600,-9.06322400,-0.01315900,1.01783776
425,12.87861400,226.81010100,-107.60662200,-9.08715000,0.66634300,1.04774551
426,12.87861400,226.81010100,-107.60662200,-9.08715000,0.66634300,1.04774551
427,20.08087300,230.83848300,-96.55909100,-8.85506700,1.15563300,1.06996265
428,20.08087300,230.83848300,-96.55909100,-8.85506700,1.15563300,1.06996265
429,-57.80117500,234.25650400,-76.17303700,-5.08550200,1.45710200,1.15516898
430,-70.61875300,-123.04875300,16.17456300,3.60208100,3.22165600,1.00196837
431,-69.33699600,-129.03028900,21.17952200,3.31257500,3.05178000,1.01405357
432,-69.33699600,-129.03028900,21.17952200,3.31257500,3.05178000,1.01405357
433,-66.65140800,-135.86633100,26.18448200,3.05536900,2.92497100,1.02174408
434,-66.65140800,-135.86633100,26.18448200,3.05536900,2.92497100,1.02174408
435,-62.68406200,-143.61791400,31.31151300,2.79457400,2.82926700,1.03358510
436,-62.68406200,-143.61791400,31.31151300,2.79457400,2.82926700,1.03358510
437,-57.80117500,-151.79675000,36.49958000,2.52181600,2.76945100,1.04200806
438,-52.30792700,-160.46387400,41.80972000,2.18685000,2.72279500,1.05397112
439,-52.30792700,-160.46387400,41.80972000,2.18685000,2.72279500,1.05397112
440,-7.08018600,-293.27840100,123.10978900,-3.46450600,2.91300800,0.96852061
441,-7.08018600,-293.27840100,123.10978900,-3.46450600,2.91300800,0.96852061
442,-9.03334100,-290.47074100,122.43839200,-3.37478300,2.89745600,0.96717786
443,-9.03334100,-290.47074100,122.43839200,-3.37478300,2.89745600,0.96717786
444,-10.49820700,-287.35790000,121.82803100,-3.30659300,2.84362200,0.97169449
445,-10.49820700,-287.35790000,121.82803100,-3.30659300,2.84362200,0.97169449
446,-10.86442400,-283.75677100,121.40077800,-3.25515200,2.79098500,0.97694357
447,-10.86442400,-283.75677100,121.40077800,-3.25515200,2.79098500,0.97694357
448,-10.25406300,-279.85046200,121.27870600,-3.23003000,2.74193600,0.97669949
449,-2.01419100,-251.10246400,123.23186100,-3.23481500,2.68929900,1.03395133
450,37.23201300,-70.49668100,146.48661000,-10.86007800,-1.28961900,0.61817347
451,45.71603000,-71.47325900,149.41634200,-9.77981200,-1.59587400,0.50562296
452,45.71603000,-71.47325900,149.41634200,-9.77981200,-1.59587400,0.50562296
453,54.13901000,-67.44487700,152.34607500,-8.58589800,-1.75498300,0.38525980
454,54.13901000,-67.44487700,152.34607500,-8.58589800,-1.75498300,0.38525980
455,60.48676300,-58.77775200,154.54337400,-7.36207500,-1.82317200,0.28235296
456,60.48676300,-58.77775200,154.54337400,-7.36207500,-1.82317200,0.28235296
457,63.11131500,-46.14328200,155.03166200,-6.19328300,-1.76575000,0.20093082
458,63.11131500,-46.14328200,155.03166200,-6.19328300,-1.76575000,0.20093082
459,62.68406200,-30.21286300,153.01747200,-5.20872200,-1.59348100,0.13464561
460,-25.81826500,57.00770600,-14.64866100,-2.82687400,2.94411200,1.22975510
461,-42.60318900,40.22278200,-16.47974400,-2.00979600,1.74660900,1.20485235
462,-42.60318900,40.22278200,-16.47974400,-2.00979600,1.74660900,1.20485235
463,-55.29869500,26.30655400,-20.08087300,-1.00250600,0.93312000,1.11390857
464,-55.29869500,26.30655400,-20.08087300,-1.00250600,0.93312000,1.11390857
465,-60.30365500,18.31082600,-22.70542500,-0.09809700,0.30745100,1.01429765
466,-60.30365500,18.31082600,-22.70542500,-0.09809700,0.30745100,1.01429765
467,-57.49599500,17.39528500,-23.80407400,0.52517900,-0.06220800,0.95899898
468,-23.92614600,32.28809000,-23.43785800,-0.92594200,0.78717000,1.09510949
469,-27.28313100,26.85587900,-22.88853300,-0.87091200,0.81229300,1.10109102
470,-2.74662400,9.94888200,-6.65293400,-0.31223600,0.21772800,0.98878459
471,-2.74662400,9.94888200,-6.65293400,-0.31223600,0.21772800,0.98878459
472,-3.47905700,9.76577400,-6.65293400,-0.31821800,0.13159400,0.99244673
473,-3.47905700,9.76577400,-6.65293400,-0.31821800,0.13159400,0.99244673
474,-3.90631000,9.15541300,-6.83604200,-0.32898500,0.14953800,0.98902878
475,-3.66216500,8.97230500,-6.59189700,-0.31223600,0.10527500,0.98854051
476,-3.66216500,8.97230500,-6.59189700,-0.31223600,0.10527500,0.98854051
477,-2.99076800,8.85023300,-6.40878900,-0.29309500,0.02871100,0.98695357
478,-2.99076800,8.85023300,-6.40878900,-0.29309500,0.02871100,0.98695357
479,-2.38040700,8.91126900,-6.46982500,-0.28711400,0.10407900,0.97987337
480,-3.35698500,20.26398100,-3.41802100,-0.39717400,0.09091900,0.96083010
481,-3.35698500,21.30159500,-2.99076800,-0.36128500,0.03469300,0.97596704
482,-3.35698500,21.30159500,-2.99076800,-0.36128500,0.03469300,0.97596704
483,-3.90631000,21.91195500,-2.38040700,-0.21533500,-0.08852700,0.99720755
484,-3.90631000,21.91195500,-2.38040700,-0.21533500,-0.08852700,0.99720755
485,-4.08941800,22.94956900,-0.79346900,-0.27156200,-0.16150100,0.92909133
486,-4.08941800,22.94956900,-0.79346900,-0.27156200,-0.16150100,0.92909133
487,-0.67139700,26.06240900,-1.28175800,-0.30266600,-0.02631900,0.95313959
488,-0.67139700,26.06240900,-1.28175800,-0.30266600,-0.02631900,0.95313959
489,-3.11284000,33.93606500,-1.70901000,-0.23208400,-0.07417100,0.94947735
490,-262.69932100,324.52887800,-162.96635400,-4.53400500,0.57303100,1.02858010
491,-262.69932100,324.52887800,-162.96635400,-4.53400500,0.57303100,1.02858010
492,-273.07545600,324.34576900,-170.65690100,-5.01492000,1.17716600,1.09657439
493,-273.07545600,324.34576900,-170.65690100,-5.01492000,1.17716600,1.09657439
494,-281.92568900,320.31738800,-170.90104500,-5.69801200,1.88657700,1.15663388
495,-281.92568900,320.31738800,-170.90104500,-5.69801200,1.88657700,1.15663388
496,-287.66308100,311.03990200,-164.91950900,-6.06408200,2.12703400,1.14882122
497,-287.66308100,311.03990200,-164.91950900,-6.06408200,2.12703400,1.14882122
498,-294.13290600,302.25070600,-158.57175600,-6.34042900,2.13660500,1.08241398
499,-294.13290600,302.25070600,-158.57175600,-6.34042900,2.13660500,1.08241398
500,-151.91882200,-209.35378000,53.40657700,-2.49430100,1.99783300,0.96546888
501,-151.91882200,-209.35378000,53.40657700,-2.49430100,1.99783300,0.96546888
502,-144.77760000,-218.14297700,54.87144300,-2.61034300,1.97151400,0.95667959
503,-144.77760000,-218.14297700,54.87144300,-2.61034300,1.97151400,0.95667959
504,-137.45326900,-226.56595700,56.33630900,-2.67255100,1.95237400,0.93983367
505,-129.70168600,-234.13443200,57.74013900,-2.68690600,1.98826300,0.91737235
506,-129.70168600,-234.13443200,57.74013900,-2.68690600,1.98826300,0.91737235
507,-121.52285000,-240.54322100,59.32707700,-2.73475900,2.01338500,0.90589765
508,-121.52285000,-240.54322100,59.32707700,-2.73475900,2.01338500,0.90589765
509,-76.84443400,-268.25360500,75.68474900,-3.57456600,2.92377500,0.82984663
510,-58.04531900,-239.62768000,237.79659700,-6.10116700,4.09615600,0.83643857
511,-52.91828800,-241.76394300,244.81574700,-5.87267300,4.07821200,0.81849398
512,-52.91828800,-241.76394300,244.81574700,-5.87267300,4.07821200,0.81849398
513,-47.79125700,-243.71709800,251.52971700,-5.42405700,3.92747700,0.78553449
514,-43.45769400,-243.90020600,257.26710900,-5.01970600,3.84253900,0.72828255
515,-43.45769400,-243.90020600,257.26710900,-5.01970600,3.84253900,0.72828255
516,-39.73449300,-240.17700500,262.14999600,-4.76130300,3.75760100,0.67469296
517,-39.73449300,-240.17700500,262.14999600,-4.76130300,3.75760100,0.67469296
518,-36.37750800,-233.76821500,266.54459500,-4.61655000,3.59490300,0.63367663
519,-36.37750800,-233.76821500,266.54459500,-4.61655000,3.59490300,0.63367663
520,5.00495900,16.05249100,100.52643600,-3.72171200,0.54671200,0.39856561
521,5.00495900,16.05249100,100.52643600,-3.72171200,0.54671200,0.39856561
522,1.52590200,26.73380600,98.45120900,-3.82339800,0.45459700,0.41760888
523,1.52590200,26.73380600,98.45120900,-3.82339800,0.45459700,0.41760888
524,-2.25833500,35.95025600,95.70458500,-3.82459400,0.32419900,0.42603194
525,-6.65293400,44.43427200,91.92034800,-3.76358300,0.18064200,0.43616388
526,-6.65293400,44.43427200,91.92034800,-3.76358300,0.18064200,0.43616388
527,-10.98649600,53.04036000,87.52575000,-4.30311700,1.05873200,0.33008316
528,-10.98649600,53.04036000,87.52575000,-4.30311700,1.05873200,0.33008316
529,-244.63263900,182.68101000,-34.66849800,-6.73760300,-6.73999500,-0.18200959
530,1.09865000,5.61532000,-0.61036100,-0.88287500,-0.35171400,1.02943469
531,3.90631000,3.05180400,0.24414400,-0.70342900,-0.19858700,1.01454184
532,3.90631000,3.05180400,0.24414400,-0.70342900,-0.19858700,1.01454184
533,5.00495900,1.52590200,1.22072200,-0.40674400,0.04785200,1.01087969
534,5.00495900,1.52590200,1.22072200,-0.40674400,0.04785200,1.01087969
535,4.94392300,1.03761300,2.25833500,-0.25601000,0.14594900,1.00465398
536,4.94392300,1.03761300,2.25833500,-0.25601000,0.14594900,1.00465398
537,4.69977900,1.15968600,3.23491300,-0.16030500,0.11245300,1.00209051
538,4.69977900,1.15968600,3.23491300,-0.16030500,0.11245300,1.00209051
539,4.02838200,1.77004700,4.15045400,-0.09809700,0.18303500,1.00502020
540,1.34279400,0.18310800,2.19729900,-0.13039700,0.05263800,1.00172429
541,1.34279400,0.18310800,2.19729900,-0.13039700,0.05263800,1.00172429
542,1.64797400,0.24414400,2.44144400,-0.09450800,0.01076700,0.99378959
543,1.64797400,0.24414400,2.44144400,-0.09450800,0.01076700,0.99378959
544,1.64797400,0.36621700,2.31937100,-0.09091900,0.05861900,0.98866255
545,2.25833500,0.48828900,2.38040700,-0.05263800,0.07417100,0.99061571
546,2.25833500,0.48828900,2.38040700,-0.05263800,0.07417100,0.99061571
547,2.80766000,0.67139700,2.56351600,-0.03230000,0.04306700,0.98927286
548,2.80766000,0.67139700,2.56351600,-0.03230000,0.04306700,0.98927286
549,4.02838200,3.90631000,3.41802100,-0.13039700,0.16748300,0.98939500
550,5.31014000,7.87365500,1.64797400,-0.08134900,0.18542800,0.98719765
551,5.55428400,8.11780000,2.38040700,0.00717800,0.21413900,0.98512245
552,5.55428400,8.11780000,2.38040700,0.00717800,0.21413900,0.98512245
553,5.98153700,8.91126900,2.56351600,0.06340400,0.25481300,0.97743194
554,5.98153700,8.91126900,2.56351600,0.06340400,0.25481300,0.97743194
555,5.61532000,10.37613500,2.50248000,0.06938600,0.32539600,0.97865265
556,5.61532000,10.37613500,2.50248000,0.06938600,0.32539600,0.97865265
557,5.55428400,12.02410900,2.56351600,-0.00837400,0.34214400,0.98060582
558,5.55428400,12.02410900,2.56351600,-0.00837400,0.34214400,0.98060582
559,5.55428400,13.18379500,2.50248000,-0.07776000,0.30505800,0.98854051
560,17.33424900,222.23239500,-1.40383000,-2.74074000,-0.32419900,0.99769592
561,20.14190900,223.45311700,-4.76081500,-3.61045500,-0.17585700,1.02211031
562,20.14190900,223.45311700,-4.76081500,-3.61045500,-0.17585700,1.02211031
563,23.01060500,227.48149800,-8.66712400,-5.29007100,-0.03947800,1.05983061
564,23.01060500,227.48149800,-8.66712400,-5.29007100,-0.03947800,1.05983061
565,21.05745000,233.03578200,-14.64866100,-7.01036100,0.85655600,1.21254296
566,21.05745000,233.03578200,-14.64866100,-7.01036100,0.85655600,1.21254296
567,4.94392300,230.77744700,-20.50812500,-9.17208800,1.31833100,1.09913786
568,4.94392300,230.77744700,-20.50812500,-9.17208800,1.31833100,1.09913786
569,-106.44693700,135.13389800,-45.28877700,-14.25878700,-0.04426300,1.33485929
570,5.92050000,-127.87060400,79.71313000,3.49082500,3.11159500,0.99647520
571,5.92050000,-127.87060400,79.71313000,3.49082500,3.11159500,0.99647520
572,13.00068700,-136.72083600,89.53994000,3.53149900,3.00153500,0.96693367
573,13.00068700,-136.72083600,89.53994000,3.53149900,3.00153500,0.96693367
574,20.38605300,-145.38796100,99.42778700,3.63916700,2.89267100,0.92506296
575,20.38605300,-145.38796100,99.42778700,3.63916700,2.89267100,0.92506296
576,27.46623900,-153.26161600,108.94941600,3.72889000,2.79935900,0.87489133
577,27.46623900,-153.26161600,108.94941600,3.72889000,2.79935900,0.87489133
578,34.11917300,-159.48729700,117.98275700,3.78631300,2.73475900,0.82972459
579,34.11917300,-159.48729700,117.98275700,3.78631300,2.73475900,0.82972459
580,15.99145500,-35.33989500,4.15045400,-3.83177200,-1.49538400,0.44007020
581,15.99145500,-35.33989500,4.15045400,-3.83177200,-1.49538400,0.44007020
582,15.74731100,-27.10002300,4.15045400,-3.68821500,-1.44155000,0.46790265
583,15.74731100,-27.10002300,4.15045400,-3.68821500,-1.44155000,0.46790265
584,15.56420200,-19.83672800,4.15045400,-3.60327800,-1.33866800,0.49988551
585,15.56420200,-19.83672800,4.15045400,-3.60327800,-1.33866800,0.49988551
586,15.44213000,-13.97726400,4.27252600,-3.51235800,-1.18793300,0.51136031
587,15.44213000,-13.97726400,4.27252600,-3.51235800,-1.18793300,0.51136031
588,15.80834700,-9.39955700,4.76081500,-3.30180800,-1.01327200,0.51062796
589,17.63942900,14.83176900,16.60181600,-1.79685400,0.19021300,0.53418786
590,0.42725300,-9.82681000,-0.67139700,-0.08134900,0.35410700,0.99488827
591,-0.18310800,-9.27748500,-0.79346900,-0.06579700,0.38521100,0.99867245
592,-0.18310800,-9.27748500,-0.79346900,-0.06579700,0.38521100,0.99867245
593,-1.15968600,-8.97230500,-0.85450500,-0.00957000,0.38999600,0.99171439
594,-1.15968600,-8.97230500,-0.85450500,-0.00957000,0.38999600,0.99171439
595,-1.70901000,-8.54505200,-1.09865000,-0.02871100,0.39119200,0.98463418
596,-1.70901000,-8.54505200,-1.09865000,-0.02871100,0.39119200,0.98463418
597,-1.89211900,-8.05676400,-1.34279400,-0.07058200,0.43784800,0.98353551
598,-1.89211900,-8.05676400,-1.34279400,-0.07058200,0.43784800,0.98353551
599,-2.19729900,-7.75158300,-1.64797400,-0.10168600,0.45938200,0.98793010
600,2.99076800,3.41802100,3.41802100,-0.11125700,0.10886400,0.99964908
601,3.47905700,2.86869600,3.60112900,-0.07656400,0.13518300,1.00050357
602,3.47905700,2.86869600,3.60112900,-0.07656400,0.13518300,1.00050357
603,3.60112900,2.38040700,3.60112900,-0.03588900,0.19739100,0.99610898
604,3.60112900,2.38040700,3.60112900,-0.03588900,0.19739100,0.99610898
605,3.29594900,2.01419100,3.54009300,-0.06460100,0.21533500,0.99549857
606,3.29594900,2.01419100,3.54009300,-0.06460100,0.21533500,0.99549857
607,2.74662400,1.83108300,3.41802100,-0.04665600,0.17944600,0.99879449
608,2.74662400,1.83108300,3.41802100,-0.04665600,0.17944600,0.99879449
609,4.76081500,-2.31937100,3.47905700,0.00717800,0.09929400,0.99134816
610,2.99076800,30.88426000,2.25833500,0.04546000,0.25242100,0.98768602
611,2.99076800,30.88426000,2.25833500,0.04546000,0.25242100,0.98768602
612,4.76081500,33.14259600,2.56351600,-0.07417100,0.66753900,1.01393153
613,4.76081500,33.14259600,2.56351600,-0.07417100,0.66753900,1.01393153
614,9.03334100,35.27885900,4.57770700,0.20217600,0.05622600,0.98756388
615,9.03334100,35.27885900,4.57770700,0.20217600,0.05622600,0.98756388
616,7.50743900,37.41512200,3.54009300,0.25122500,0.12082700,0.97425806
617,7.50743900,37.41512200,3.54009300,0.25122500,0.12082700,0.97425806
618,4.39459800,40.58899800,2.50248000,0.14236100,0.26558000,0.98890673
619,4.39459800,40.58899800,2.50248000,0.14236100,0.26558000,0.98890673
620,-31.25047700,83.49736800,-150.75913600,-6.47920000,-2.06363000,1.17885102
621,-31.25047700,83.49736800,-150.75913600,-6.47920000,-2.06363000,1.17885102
622,-18.31082600,88.31921900,-156.55756500,-5.93009500,-1.89734300,1.16542306
623,-18.31082600,88.31921900,-156.55756500,-5.93009500,-1.89734300,1.16542306
624,-7.44640300,94.66697200,-161.92874000,-5.56043600,-1.64492300,1.16139469
625,-7.44640300,94.66697200,-161.92874000,-5.56043600,-1.64492300,1.16139469
626,2.68558800,101.68612200,-166.32333900,-5.26494900,-1.37934200,1.17909510
627,2.68558800,101.68612200,-166.32333900,-5.26494900,-1.37934200,1.17909510
628,12.69550600,107.11833400,-169.43617900,-4.96228300,-0.98934600,1.17921724
629,33.75295600,130.61722700,-173.46456100,-3.40469100,1.30038600,1.23512622
630,65.18654200,-182.13168500,178.04226800,1.67363400,0.14355700,0.73011367
631,65.18654200,-182.13168500,178.04226800,1.67363400,0.14355700,0.73011367
632,63.96582000,-184.32898500,178.10330400,1.54323600,-0.17107200,0.71021592
633,63.96582000,-184.32898500,178.10330400,1.54323600,-0.17107200,0.71021592
634,62.74509800,-184.87830900,177.00465400,1.42599800,-0.57422800,0.70362398
635,62.74509800,-184.87830900,177.00465400,1.42599800,-0.57422800,0.70362398
636,61.82955700,-185.18349000,175.11253500,1.21066300,-0.97499000,0.69056224
637,61.82955700,-185.18349000,175.11253500,1.21066300,-0.97499000,0.69056224
638,61.76852100,-184.93934500,172.12176700,0.94627900,-1.40087600,0.68799878
639,61.76852100,-184.93934500,172.12176700,0.94627900,-1.40087600,0.68799878
640,2.92973200,36.74372500,17.39528500,-4.59501600,2.22632800,0.75977724
641,2.92973200,36.74372500,17.39528500,-4.59501600,2.22632800,0.75977724
642,17.94461000,39.97863700,24.71961500,-5.79132400,3.63318500,0.42310214
643,17.94461000,39.97863700,24.71961500,-5.79132400,3.63318500,0.42310214
644,20.32501700,70.49668100,18.06668200,-6.32248400,4.44188900,0.52210265
645,20.32501700,70.49668100,18.06668200,-6.32248400,4.44188900,0.52210265
646,-35.21782300,104.18860200,-3.17387700,-9.45680900,1.70234500,0.49463643
647,-35.21782300,104.18860200,-3.17387700,-9.45680900,1.70234500,0.49463643
648,-132.69245400,131.89898500,-40.34485400,-11.77764600,-0.05024500,0.70875102
649,-207.15648100,-43.82391100,-46.14328200,-5.79012700,-5.22905900,1.99996949
650,-5.37117600,-2.92973200,-8.23987200,0.02512200,0.23328000,0.99208061
651,-5.37117600,-2.92973200,-8.23987200,0.02512200,0.23328000,0.99208061
652,-5.67635600,-2.56351600,-8.30090800,-0.05861900,0.31821800,0.98658735
653,-5.67635600,-2.56351600,-8.30090800,-0.05861900,0.31821800,0.98658735
654,-6.71397000,-1.89211900,-7.50743900,-0.09331200,0.37803300,1.00013735
655,-6.71397000,-1.89211900,-7.50743900,-0.09331200,0.37803300,1.00013735
656,-6.34775300,-1.95315500,-6.95811400,-0.14594900,0.19021300,0.99464408
657,-6.34775300,-1.95315500,-6.95811400,-0.14594900,0.19021300,0.99464408
658,-6.10360900,-1.83108300,-7.01915000,-0.17226800,0.18782000,0.99623102
659,-6.10360900,-1.83108300,-7.01915000,-0.17226800,0.18782000,0.99623102
660,4.88288700,-1.28175800,3.35698500,0.01914100,0.24524300,0.98133827
661,4.88288700,-1.28175800,3.35698500,0.01914100,0.24524300,0.98133827
662,5.24910400,-0.73243300,3.47905700,0.06101200,0.19380200,0.98377969
663,5.24910400,-0.73243300,3.47905700,0.06101200,0.19380200,0.98377969
664,5.79842800,0.06103600,3.47905700,0.09929400,0.19140900,0.98219276
665,5.79842800,0.06103600,3.47905700,0.09929400,0.19140900,0.98219276
666,6.28671700,1.15968600,3.72320100,0.14116400,0.22370900,0.98231480
667,6.28671700,1.15968600,3.72320100,0.14116400,0.22370900,0.98231480
668,6.65293400,15.56420200,4.39459800,0.33855500,0.25481300,0.98573286
669,6.65293400,15.56420200,4.39459800,0.33855500,0.25481300,0.98573286
670,2.68558800,114.86991700,9.21644900,0.38401500,-0.16509000,0.90406653
671,8.17883600,126.10055700,9.88784600,0.42708200,-0.13398600,0.91786071
672,8.17883600,126.10055700,9.88784600,0.42708200,-0.13398600,0.91786071
673,12.14618100,137.63637800,8.78919700,0.54910500,0.31941400,0.94825663
674,12.14618100,137.63637800,8.78919700,0.54910500,0.31941400,0.94825663
675,14.03830000,148.13458500,8.72816100,0.44622300,0.55747900,0.93495082
676,14.03830000,148.13458500,8.72816100,0.44622300,0.55747900,0.93495082
677,15.99145500,159.60936900,8.11780000,0.40195900,0.62447200,0.93934541
678,15.99145500,159.60936900,8.11780000,0.40195900,0.62447200,0.93934541
679,17.09010500,171.45037000,5.98153700,0.61609800,0.74888800,0.96717786
680,-0.54932500,83.31426000,-102.54062700,-2.50267500,1.97271100,1.51625847
681,-0.18310800,69.27595900,-97.77981200,-2.20120500,2.02415200,1.52895398
682,-0.18310800,69.27595900,-97.77981200,-2.20120500,2.02415200,1.52895398
683,1.09865000,54.44419000,-92.10345600,-1.84111700,2.17847600,1.49404133
684,1.09865000,54.44419000,-92.10345600,-1.84111700,2.17847600,1.49404133
685,4.02838200,40.83314300,-85.38948700,-1.33388300,2.28255400,1.46132602
686,4.02838200,40.83314300,-85.38948700,-1.33388300,2.28255400,1.46132602
687,7.56847500,27.58831200,-78.18722800,-0.90201600,2.33040700,1.40370796
688,7.56847500,27.58831200,-78.18722800,-0.90201600,2.33040700,1.40370796
689,3.17387700,-27.16105900,-44.92256000,3.26591900,3.30061200,1.06617837
690,32.71534300,-207.33959000,88.25818300,-0.83621900,-2.76347000,0.61829561
691,31.12840500,-205.14229000,75.50164000,-1.02045000,-2.77662900,0.61475551
692,31.12840500,-205.14229000,75.50164000,-1.02045000,-2.77662900,0.61475551
693,29.96871900,-202.82291900,62.50095400,-1.21305600,-2.72638400,0.60083929
694,29.96871900,-202.82291900,62.50095400,-1.21305600,-2.72638400,0.60083929
695,29.41939400,-200.07629500,49.80544700,-1.37814600,-2.59598700,0.58338296
696,28.99214200,-197.14656300,37.84237400,-1.54562900,-2.31605100,0.57239643
697,28.99214200,-197.14656300,37.84237400,-1.54562900,-2.31605100,0.57239643
698,28.87006900,-193.72854200,26.97795100,-1.68200800,-1.97151400,0.55860224
699,28.87006900,-193.72854200,26.97795100,-1.68200800,-1.97151400,0.55860224
700,131.47173300,130.49515500,4.02838200,-6.05690400,6.25788400,1.60463878
701,131.47173300,130.49515500,4.02838200,-6.05690400,6.25788400,1.60463878
702,126.28366500,106.69108100,2.86869600,-5.56641800,7.00796800,1.69460592
703,126.28366500,106.69108100,2.86869600,-5.56641800,7.00796800,1.69460592
704,73.06019700,62.50095400,-2.19729900,-3.30300500,6.37272900,1.41945520
705,73.06019700,62.50095400,-2.19729900,-3.30300500,6.37272900,1.41945520
706,-12.51239800,19.95880100,-13.42793900,-0.42110000,4.62612000,0.99769592
707,-12.51239800,19.95880100,-13.42793900,-0.42110000,4.62612000,0.99769592
708,-94.85008000,0.18310800,-26.97795100,1.92366200,3.40349400,0.81275653
709,-2.13626300,23.86511000,-11.77996500,-5.06157600,-4.76010700,1.26735337
710,5.12703100,7.99572700,4.02838200,-0.03828200,0.07656400,0.98500041
711,5.12703100,7.99572700,4.02838200,-0.03828200,0.07656400,0.98500041
712,6.10360900,9.21644900,4.82185100,0.03828200,0.01914100,0.98463418
713,6.10360900,9.21644900,4.82185100,0.03828200,0.01914100,0.98463418
714,7.26329400,10.49820700,5.67635600,0.08254500,-0.00358900,0.98048367
715,7.26329400,10.49820700,5.67635600,0.08254500,-0.00358900,0.98048367
716,7.81261900,12.39032600,6.65293400,0.12920100,-0.02631900,0.98048367
717,7.81261900,12.39032600,6.65293400,0.12920100,-0.02631900,0.98048367
718,8.23987200,14.70969700,7.26329400,0.06220800,-0.01674800,0.97706571
719,8.23987200,14.70969700,7.26329400,0.06220800,-0.01674800,0.97706571
720,-0.48828900,-2.31937100,-0.79346900,-0.43904500,0.14475300,0.97206071
721,-0.48828900,-2.31937100,-0.79346900,-0.43904500,0.14475300,0.97206071
722,-0.24414400,-2.92973200,-1.15968600,-0.40674400,0.20217600,0.97181663
723,-0.24414400,-2.92973200,-1.15968600,-0.40674400,0.20217600,0.97181663
724,-0.06103600,-3.23491300,-1.52590200,-0.36726600,0.25959900,0.97254898
725,-0.06103600,-3.23491300,-1.52590200,-0.36726600,0.25959900,0.97254898
726,-0.12207200,-3.41802100,-1.89211900,-0.36846300,0.29429200,0.97547878
727,-0.12207200,-3.41802100,-1.89211900,-0.36846300,0.29429200,0.97547878
728,-0.18310800,-3.72320100,-2.25833500,-0.36965900,0.32898500,0.97523459
729,-0.67139700,-5.24910400,-3.41802100,-0.41033300,0.16628700,0.97364765
730,-0.67139700,91.55413100,0.91554100,-0.05742300,-0.10647100,0.94605939
731,1.15968600,97.96292100,1.03761300,0.04904900,-0.02153400,0.93373010
732,1.15968600,97.96292100,1.03761300,0.04904900,-0.02153400,0.93373010
733,2.56351600,105.65346800,1.09865000,0.01914100,0.08254500,0.91944765
734,2.56351600,105.65346800,1.09865000,0.01914100,0.08254500,0.91944765
735,2.99076800,114.44266400,0.42725300,0.11604200,0.20456900,0.92726020
736,2.99076800,114.44266400,0.42725300,0.11604200,0.20456900,0.92726020
737,1.03761300,122.56046400,-0.30518000,0.25840200,0.31343300,0.94569316
738,1.03761300,122.56046400,-0.30518000,0.25840200,0.31343300,0.94569316
739,-0.73243300,130.06790300,-0.97657700,0.16389400,0.30146900,0.93104449
740,-46.08224600,184.20691200,-56.70252500,-6.60959800,2.68212100,1.18092622
741,-69.39803200,175.96704100,-55.35973100,-5.84874600,2.57086400,1.16212714
742,-69.39803200,175.96704100,-55.35973100,-5.84874600,2.57086400,1.16212714
743,-87.70885800,170.04654000,-54.07797400,-4.98740500,2.22393500,1.16383612
744,-87.70885800,170.04654000,-54.07797400,-4.98740500,2.22393500,1.16383612
745,-104.12756500,165.16365300,-53.58968500,-4.17750500,1.72986000,1.14991990
746,-104.12756500,165.16365300,-53.58968500,-4.17750500,1.72986000,1.14991990
747,-120.36316500,161.37941600,-55.11558700,-3.45254300,1.35422000,1.14637980
748,-169.92446800,147.70733200,-66.28519100,-1.41762400,-0.75606600,1.18702980
749,-168.58167400,144.59449200,-67.68902100,-1.11376200,-1.02523500,1.19472041
750,1.40383000,-241.88601500,99.79400300,1.60783700,2.99555400,0.82618449
751,1.40383000,-241.88601500,99.79400300,1.60783700,2.99555400,0.82618449
752,2.19729900,-241.88601500,103.02891600,1.40326800,2.94411200,0.81458765
753,2.19729900,-241.88601500,103.02891600,1.40326800,2.94411200,0.81458765
754,2.19729900,-241.15358200,106.56900900,1.13888500,2.88669000,0.81251245
755,2.19729900,-241.15358200,106.56900900,1.13888500,2.88669000,0.81251245
756,1.40383000,-240.29907700,110.17013800,0.89364200,2.84721100,0.82105745
757,1.40383000,-240.29907700,110.17013800,0.89364200,2.84721100,0.82105745
758,0.61036100,-239.50560800,113.52712300,0.70223200,2.77543300,0.83204398
759,0.61036100,-239.50560800,113.52712300,0.70223200,2.77543300,0.83204398
760,12.51239800,-244.99885600,134.58457300,-5.52813600,4.36412900,1.18959337
761,9.21644900,-244.63263900,136.59876400,-5.30921200,4.37011100,1.14833296
762,9.21644900,-244.63263900,136.59876400,-5.30921200,4.37011100,1.14833296
763,6.59189700,-242.37430400,138.79606300,-5.14172900,4.42394400,1.10914776
764,6.59189700,-242.37430400,138.79606300,-5.14172900,4.42394400,1.10914776
765,4.51667000,-238.22385000,141.35957900,-5.07832500,4.50409700,1.06947429
766,4.51667000,-238.22385000,141.35957900,-5.07832500,4.50409700,1.06947429
767,2.74662400,-232.85267400,144.83863600,-5.14053300,4.61655000,1.03346306
768,-15.44213000,-194.64408300,171.20622600,-4.99577900,3.17500000,0.77210653
769,-15.32005800,-184.51209300,177.43190700,-4.73977000,2.58402400,0.71973755
770,17.88357400,83.25322300,-6.22568100,2.04209700,3.48843200,0.75806816
771,-13.00068700,87.34264100,-11.90203700,2.39141800,3.33530500,0.73621724
772,-13.00068700,87.34264100,-11.90203700,2.39141800,3.33530500,0.73621724
773,-41.07728700,95.03318800,-16.47974400,1.89255800,2.40697000,0.75941102
774,-41.07728700,95.03318800,-16.47974400,1.89255800,2.40697000,0.75941102
775,-60.24261800,105.22621500,-20.14190900,0.79913300,1.27765600,0.87122908
776,-60.24261800,105.22621500,-20.14190900,0.79913300,1.27765600,0.87122908
777,-67.87212900,112.24536500,-21.54573900,-0.64600600,0.07297500,1.02040133
778,-67.87212900,112.24536500,-21.54573900,-0.64600600,0.07297500,1.02040133
779,-65.18654200,112.55054600,-21.97299200,-2.43807400,-0.77999200,1.21315327
780,0.79346900,8.05676400,-0.06103600,-0.27515100,0.11125700,0.98976122
781,0.30518000,8.23987200,0.12207200,-0.25959900,0.10407900,0.99024949
782,0.30518000,8.23987200,0.12207200,-0.25959900,0.10407900,0.99024949
783,0.30518000,8.23987200,0.36621700,-0.26318800,0.06460100,0.98951704
784,0.30518000,8.23987200,0.36621700,-0.26318800,0.06460100,0.98951704
785,0.42725300,8.23987200,0.54932500,-0.25122500,0.05742300,0.98707561
786,0.42725300,8.23987200,0.54932500,-0.25122500,0.05742300,0.98707561
787,0.79346900,8.42298000,0.67139700,-0.23686900,0.05144100,0.98951704
788,0.79346900,8.42298000,0.67139700,-0.23686900,0.05144100,0.98951704
789,2.01419100,9.46059400,1.09865000,-0.24883200,0.11125700,0.98548867
790,-7.93469100,-4.02838200,-8.66712400,-0.28352500,0.05503000,0.97877469
791,-6.71397000,-3.96734600,-8.60608800,-0.23208400,0.03947800,0.97438010
792,-6.71397000,-3.96734600,-8.60608800,-0.23208400,0.03947800,0.97438010
793,-5.73739200,-3.47905700,-8.60608800,-0.20098000,0.08852700,0.97633327
794,-5.73739200,-3.47905700,-8.60608800,-0.20098000,0.08852700,0.97633327
795,-5.43221200,-2.99076800,-7.99572700,-0.14834200,0.39478100,0.98597694
796,-5.43221200,-2.99076800,-7.99572700,-0.14834200,0.39478100,0.98597694
797,-4.08941800,-2.62455200,-6.04257300,-0.21653200,-0.03828200,0.97596704
798,-4.08941800,-2.62455200,-6.04257300,-0.21653200,-0.03828200,0.97596704
799,-3.96734600,-1.28175800,-7.01915000,-0.26438400,0.09690100,0.98243684
800,-4.02838200,42.23697300,-3.47905700,0.03708600,0.16269800,0.96595714
801,-5.61532000,46.81467900,-4.15045400,0.13279000,0.08733000,0.95350571
802,-5.61532000,46.81467900,-4.15045400,0.13279000,0.08733000,0.95350571
803,-6.53086100,52.67414400,-5.37117600,0.15312700,0.17944600,0.95045398
804,-6.53086100,52.67414400,-5.37117600,0.15312700,0.17944600,0.95045398
805,-7.08018600,58.96086100,-5.55428400,-0.04187100,0.21055000,0.94728010
806,-7.08018600,58.96086100,-5.55428400,-0.04187100,0.21055000,0.94728010
807,-7.08018600,65.55275800,-5.24910400,0.07177800,0.03230000,0.97450214
808,-7.08018600,65.55275800,-5.24910400,0.07177800,0.03230000,0.97450214
809,-7.81261900,107.24040600,-11.29167600,0.38281800,0.28232900,0.96168459
810,-105.95864800,-32.10498200,63.84374800,-0.82904100,2.74911400,1.10707255
811,-99.79400300,-37.65926600,69.33699600,-0.11723800,2.81730400,1.02308694
812,-99.79400300,-37.65926600,69.33699600,-0.11723800,2.81730400,1.02308694
813,-95.15526100,-40.40589000,73.67055800,0.51321600,2.99196500,0.97340357
814,-95.15526100,-40.40589000,73.67055800,0.51321600,2.99196500,0.97340357
815,-95.88769400,-42.23697300,76.96650600,0.98456100,3.15346600,0.93543908
816,-95.88769400,-42.23697300,76.96650600,0.98456100,3.15346600,0.93543908
817,-101.50301400,-43.94598300,78.85862500,1.16998900,3.20969300,0.89991612
818,-101.50301400,-43.94598300,78.85862500,1.16998900,3.20969300,0.89991612
819,-109.92599400,-45.41084900,79.16380600,1.17597000,3.15585900,0.87489133
820,-113.64919500,-239.26146300,85.02327000,-2.74552500,4.07223000,0.97914092
821,-110.78049900,-239.81078800,87.70885800,-2.91659700,4.21937600,0.98463418
822,-110.78049900,-239.81078800,87.70885800,-2.91659700,4.21937600,0.98463418
823,-107.91180300,-240.05493200,90.76066200,-3.08527700,4.32943600,0.99281296
824,-107.91180300,-240.05493200,90.76066200,-3.08527700,4.32943600,0.99281296
825,-104.92103500,-240.36011300,94.42282800,-3.28027500,4.47418900,0.99623102
826,-104.92103500,-240.36011300,94.42282800,-3.28027500,4.47418900,0.99623102
827,-102.11337500,-240.72632900,98.32913700,-3.43938400,4.61056800,1.00038143
828,-102.11337500,-240.72632900,98.32913700,-3.43938400,4.61056800,1.00038143
829,-92.16449200,-238.10177800,131.22758800,-4.05308900,5.13455100,0.97877469
830,142.70237300,-57.55703100,219.18059100,-7.03907200,-0.55747900,0.41004041
831,142.70237300,-57.55703100,219.18059100,-7.03907200,-0.55747900,0.41004041
832,136.59876400,-47.66918400,206.91233700,-7.44222800,-0.40794100,0.40833143
833,136.59876400,-47.66918400,206.91233700,-7.44222800,-0.40794100,0.40833143
834,126.22262900,-39.91760100,190.85984600,-7.88486200,-0.20217600,0.39551388
835,126.22262900,-39.91760100,190.85984600,-7.88486200,-0.20217600,0.39551388
836,108.15594700,-34.66849800,172.79316400,-8.11694500,-0.12680900,0.39563592
837,108.15594700,-34.66849800,172.79316400,-8.11694500,-0.12680900,0.39563592
838,85.45052300,-31.92187400,152.16296600,-8.17077900,-0.10647100,0.38098724
839,85.45052300,-31.92187400,152.16296600,-8.17077900,-0.10647100,0.38098724
840,-13.97726400,15.74731100,-1.83108300,-0.73094400,-0.06460100,1.05018694
841,-13.97726400,15.74731100,-1.83108300,-0.73094400,-0.06460100,1.05018694
842,-12.08514500,12.20721800,-1.89211900,-0.63882800,-0.28352500,1.04078735
843,-12.08514500,12.20721800,-1.89211900,-0.63882800,-0.28352500,1.04078735
844,-6.65293400,9.70473800,-1.52590200,-0.41272600,-0.25361700,1.02137786
845,-6.65293400,9.70473800,-1.52590200,-0.41272600,-0.25361700,1.02137786
846,-1.34279400,9.09437700,-1.22072200,-0.22849500,-0.04067400,1.01026929
847,-1.34279400,9.09437700,-1.22072200,-0.22849500,-0.04067400,1.01026929
848,1.83108300,9.21644900,-0.85450500,-0.20098000,0.22251300,1.00440990
849,-1.15968600,5.24910400,0.48828900,-0.08972300,0.04067400,0.98939500
850,0.00000000,4.57770700,0.06103600,-0.18782000,0.13518300,0.98658735
851,0.00000000,4.57770700,0.06103600,-0.18782000,0.13518300,0.98658735
852,-0.06103600,4.76081500,-0.12207200,-0.17226800,0.17346500,0.98707561
853,-0.06103600,4.76081500,-0.12207200,-0.17226800,0.17346500,0.98707561
854,-0.42725300,4.69977900,-0.30518000,-0.18782000,0.17466100,0.98915082
855,-0.42725300,4.69977900,-0.30518000,-0.18782000,0.17466100,0.98915082
856,-0.67139700,4.51667000,-0.48828900,-0.17107200,0.11245300,0.98878459
857,-0.67139700,4.51667000,-0.48828900,-0.17107200,0.11245300,0.98878459
858,-0.91554100,4.51667000,-0.67139700,-0.18183900,0.11245300,0.98622112
859,-0.91554100,4.51667000,-0.67139700,-0.18183900,0.11245300,0.98622112
860,4.08941800,35.76714700,0.36621700,-0.38401500,0.14116400,0.97743194
861,3.72320100,36.13336400,0.36621700,-0.34932200,0.19140900,0.98426796
862,3.72320100,36.13336400,0.36621700,-0.34932200,0.19140900,0.98426796
863,3.84527400,36.68268900,0.42725300,-0.29907700,0.13398600,0.97608908
864,3.84527400,36.68268900,0.42725300,-0.29907700,0.13398600,0.97608908
865,3.35698500,37.59823000,-0.36621700,-0.28591700,0.25959900,0.96961929
866,3.35698500,37.59823000,-0.36621700,-0.28591700,0.25959900,0.96961929
867,3.29594900,38.81895200,-0.79346900,-0.29788100,0.36726600,0.97279316
868,3.29594900,38.81895200,-0.79346900,-0.29788100,0.36726600,0.97279316
869,-0.30518000,45.65499400,-4.33356200,-0.29548800,0.22251300,0.96314949
870,-125.91744900,232.42542200,-75.31853200,-11.40679000,1.26090800,1.27687500
871,-149.17219800,205.50850700,-78.06515600,-11.82549800,1.32192000,1.58828102
872,-149.17219800,205.50850700,-78.06515600,-11.82549800,1.32192000,1.58828102
873,-181.21614400,159.42626100,-77.75997600,-12.25258000,0.96900900,1.47695122
874,-181.21614400,159.42626100,-77.75997600,-12.25258000,0.96900900,1.47695122
875,-218.75333800,121.82803100,-78.24826400,-12.77058100,-0.24763600,1.33522541
876,-218.75333800,121.82803100,-78.24826400,-12.77058100,-0.24763600,1.33522541
877,-249.39345400,96.62012700,-82.33768200,-13.09119100,-0.93431600,1.35268173
878,-255.61913500,74.03677400,-84.22980100,-13.01462700,-1.62458500,1.31264214
879,-255.61913500,74.03677400,-84.22980100,-13.01462700,-1.62458500,1.31264214
880,-24.41443500,-141.17647100,101.80819400,1.54562900,1.23937400,0.82142367
881,-24.41443500,-141.17647100,101.80819400,1.54562900,1.23937400,0.82142367
882,-22.64438800,-146.05935800,104.85999800,1.41044600,1.23937400,0.81116959
883,-22.64438800,-146.05935800,104.85999800,1.41044600,1.23937400,0.81116959
884,-19.71465600,-151.30846100,108.88838000,1.46547600,1.21784100,0.78150602
885,-19.71465600,-151.30846100,108.88838000,1.46547600,1.21784100,0.78150602
886,-15.56420200,-156.00824000,113.46608700,1.67363400,1.18673700,0.73548490
887,-15.56420200,-156.00824000,113.46608700,1.67363400,1.18673700,0.73548490
888,-10.86442400,-159.12108000,118.41001000,1.94878500,1.15682900,0.68982990
889,7.87365500,-153.62783200,140.19989300,2.44286000,1.16161400,0.61097122
890,2.92973200,-48.76783400,45.41084900,-4.64286900,-1.55400300,0.52002745
891,2.92973200,-48.76783400,45.41084900,-4.64286900,-1.55400300,0.52002745
892,4.21149000,-39.30724000,37.04890500,-4.62731700,-1.67722300,0.52515449
893,4.21149000,-39.30724000,37.04890500,-4.62731700,-1.67722300,0.52515449
894,5.37117600,-30.45700800,28.07660000,-4.47897500,-1.70593400,0.51355765
895,5.37117600,-30.45700800,28.07660000,-4.47897500,-1.70593400,0.51355765
896,7.62951100,-21.60677500,18.92118700,-4.25167600,-1.68200800,0.50135041
897,7.62951100,-21.60677500,18.92118700,-4.25167600,-1.68200800,0.50135041
898,11.35271200,-11.96307300,10.62027900,-3.96217000,-1.59108900,0.48255133
899,11.35271200,-11.96307300,10.62027900,-3.96217000,-1.59108900,0.48255133
900,-5.43221200,-4.15045400,-10.13199100,-0.21294300,-0.09929400,1.02186622
901,-2.25833500,-5.12703100,-9.70473800,-0.24045800,-0.05503000,1.01747153
902,-0.48828900,-5.67635600,-8.97230500,-0.24524300,-0.01674800,1.01051347
903,-0.48828900,-5.67635600,-8.97230500,-0.24524300,-0.01674800,1.01051347
904,0.06103600,-6.46982500,-8.30090800,-0.21772800,0.06220800,1.00550847
905,0.06103600,-6.46982500,-8.30090800,-0.21772800,0.06220800,1.00550847
906,0.61036100,-7.26329400,-7.99572700,-0.09809700,0.15073500,1.00941480
907,0.61036100,-7.26329400,-7.99572700,-0.09809700,0.15073500,1.00941480
908,1.77004700,-1.03761300,-2.13626300,0.16748300,-0.06460100,1.00538643
909,1.77004700,-1.03761300,-2.13626300,0.16748300,-0.06460100,1.00538643
910,1.28175800,-5.31014000,1.03761300,-0.09331200,0.19140900,0.99073776
911,1.28175800,-5.31014000,1.03761300,-0.09331200,0.19140900,0.99073776
912,0.91554100,-5.61532000,0.73243300,-0.12680900,0.16867900,0.99244673
913,0.91554100,-5.61532000,0.73243300,-0.12680900,0.16867900,0.99244673
914,0.24414400,-6.10360900,0.42725300,-0.13996800,0.10766800,0.99623102
915,0.24414400,-6.10360900,0.42725300,-0.13996800,0.10766800,0.99623102
916,-0.42725300,-6.89707800,0.30518000,-0.12920100,0.09331200,0.99574276
917,-0.42725300,-6.89707800,0.30518000,-0.12920100,0.09331200,0.99574276
918,-0.18310800,-7.20225800,-0.18310800,-0.04187100,0.07297500,0.97853051
919,-0.18310800,-7.20225800,-0.18310800,-0.04187100,0.07297500,0.97853051
920,0.85450500,30.57908000,1.09865000,-0.00119600,0.24285000,0.98731980
921,0.85450500,30.57908000,1.09865000,-0.00119600,0.24285000,0.98731980
922,-0.30518000,32.53223500,1.22072200,0.01435600,0.20456900,0.99391163
923,-0.30518000,32.53223500,1.22072200,0.01435600,0.20456900,0.99391163
924,-0.61036100,34.30228100,1.28175800,0.00957000,0.19021300,0.98805214
925,-0.61036100,34.30228100,1.28175800,0.00957000,0.19021300,0.98805214
926,-0.61036100,36.62165300,1.46486600,0.08374200,0.18901700,0.99098194
927,-0.61036100,36.62165300,1.46486600,0.08374200,0.18901700,0.99098194
928,-0.61036100,39.36827600,1.83108300,0.12561200,0.14594900,0.98829633
929,0.00000000,60.05951000,5.31014000,0.04665600,-0.09450800,0.97816439
930,-71.35118600,94.05661100,-154.66544600,-7.18980700,-0.08493800,1.17213704
931,-71.35118600,94.05661100,-154.66544600,-7.18980700,-0.08493800,1.17213704
932,-65.06446900,100.52643600,-158.08346700,-6.78784800,-0.33137700,1.20460827
933,-65.06446900,100.52643600,-158.08346700,-6.78784800,-0.33137700,1.20460827
934,-55.35973100,104.61585400,-159.54833300,-6.30573600,-0.51441200,1.19459827
935,-55.35973100,104.61585400,-159.54833300,-6.30573600,-0.51441200,1.19459827
936,-44.06805500,109.25459700,-159.91454900,-5.77218300,-0.63763200,1.17872888
937,-44.06805500,109.25459700,-159.91454900,-5.77218300,-0.63763200,1.17872888
938,-31.31151300,114.44266400,-159.60936900,-5.25896700,-0.65438000,1.17396806
939,-31.31151300,114.44266400,-159.60936900,-5.25896700,-0.65438000,1.17396806
940,53.22346800,-233.03578200,171.20622600,2.21795400,1.34823800,0.66639204
941,53.22346800,-233.03578200,171.20622600,2.21795400,1.34823800,0.66639204
942,51.94171100,-234.43961200,176.76051000,2.19043900,0.81588200,0.62049286
943,51.94171100,-234.43961200,176.76051000,2.19043900,0.81588200,0.62049286
944,52.42999900,-234.13443200,180.91096400,2.13660500,0.26199100,0.57776765
945,52.42999900,-234.13443200,180.91096400,2.13660500,0.26199100,0.57776765
946,54.62729800,-231.81506100,183.23033500,1.99544100,-0.16269800,0.54419776
947,54.62729800,-231.81506100,183.23033500,1.99544100,-0.16269800,0.54419776
948,57.86221100,-227.90875100,183.71862400,1.78369400,-0.52159000,0.52661939
949,59.63225800,-201.05287300,163.39360600,0.58140500,-1.28842300,0.50281531
950,-148.50080100,17.51735700,-181.76546900,-8.68040600,4.01241500,1.71657888
951,-148.50080100,17.51735700,-181.76546900,-8.68040600,4.01241500,1.71657888
952,-109.01045200,-8.97230500,-138.42984700,-6.15859000,2.99435700,1.33803306
953,-109.01045200,-8.97230500,-138.42984700,-6.15859000,2.99435700,1.33803306
954,-72.38880000,-28.80903300,-98.14602900,-2.28973200,2.98239400,1.04213020
955,-72.38880000,-28.80903300,-98.14602900,-2.28973200,2.98239400,1.04213020
956,-52.49103500,-33.08155900,-61.95162900,1.33029400,2.43807400,0.82679480
957,-52.49103500,-33.08155900,-61.95162900,1.33029400,2.43807400,0.82679480
958,-48.95094200,-19.95880100,-35.64507500,4.07821200,1.36020100,0.69581143
959,-48.95094200,-19.95880100,-35.64507500,4.07821200,1.36020100,0.69581143
960,-0.06103600,-0.67139700,2.19729900,-0.09450800,0.04187100,0.98097204
961,-1.09865000,-0.18310800,1.95315500,-0.18542800,0.07776000,0.98255898
962,-1.09865000,-0.18310800,1.95315500,-0.18542800,0.07776000,0.98255898
963,-0.67139700,-0.42725300,1.95315500,-0.13518300,0.00957000,0.99452204
964,-0.67139700,-0.42725300,1.95315500,-0.13518300,0.00957000,0.99452204
965,0.36621700,-0.48828900,1.58693800,-0.06699300,0.00000000,0.98878459
966,0.36621700,-0.48828900,1.58693800,-0.06699300,0.00000000,0.98878459
967,-0.42725300,-0.12207200,1.34279400,-0.05861900,0.00000000,0.98829633
968,-0.42725300,-0.12207200,1.34279400,-0.05861900,0.00000000,0.98829633
969,-1.22072200,1.28175800,0.24414400,-0.22131700,0.01794500,0.98866255
970,3.90631000,162.23392100,6.16464500,0.14116400,-0.40554800,0.93800255
971,11.71892900,171.87762300,7.14122200,0.02631900,-0.31104000,0.97267112
972,11.71892900,171.87762300,7.14122200,0.02631900,-0.31104000,0.97267112
973,18.31082600,179.56817000,8.66712400,-0.06819000,-0.37205200,0.99269092
974,18.31082600,179.56817000,8.66712400,-0.06819000,-0.37205200,0.99269092
975,22.21713600,186.22110300,9.82681000,-0.26558000,-0.29189900,0.99464408
976,22.21713600,186.22110300,9.82681000,-0.26558000,-0.29189900,0.99464408
977,26.36759000,193.24025300,10.25406300,-0.64361300,-0.17825000,0.98854051
978,26.36759000,193.24025300,10.25406300,-0.64361300,-0.17825000,0.98854051
979,31.55565700,199.77111500,11.23064000,-1.17477400,-0.15312700,0.98927286
980,-23.92614600,-26.42862600,-48.76783400,3.21328100,3.32932300,1.20424204
981,-24.23132700,-35.52300300,-42.72526100,3.78272400,3.28147100,1.14235143
982,-24.23132700,-35.52300300,-42.72526100,3.78272400,3.28147100,1.14235143
983,-23.43785800,-43.03044200,-36.31647200,4.29833200,3.25754500,1.07679867
984,-23.43785800,-43.03044200,-36.31647200,4.29833200,3.25754500,1.07679867
985,-21.30159500,-48.58472600,-29.23628600,4.75532200,3.18815900,1.02845806
986,-21.30159500,-48.58472600,-29.23628600,4.75532200,3.18815900,1.02845806
987,-17.63942900,-52.49103500,-21.54573900,5.11301700,3.09006200,0.97950714
988,-17.63942900,-52.49103500,-21.54573900,5.11301700,3.09006200,0.97950714
989,20.87434200,-68.48249000,27.34416700,5.26853700,3.06613600,0.88831918
990,10.00991800,-130.98344400,42.84733300,-3.30300500,-1.95955100,0.41419092
991,10.00991800,-130.98344400,42.84733300,-3.30300500,-1.95955100,0.41419092
992,10.62027900,-119.63073200,36.37750800,-3.39153100,-1.87820200,0.43530939
993,10.62027900,-119.63073200,36.37750800,-3.39153100,-1.87820200,0.43530939
994,10.80338800,-108.64423600,30.15182700,-3.59849200,-1.64851100,0.46802469
995,10.80338800,-108.64423600,30.15182700,-3.59849200,-1.64851100,0.46802469
996,9.94888200,-98.69535400,24.17029100,-3.83655800,-1.47504700,0.49500265
997,9.94888200,-98.69535400,24.17029100,-3.83655800,-1.47504700,0.49500265
998,8.30090800,-90.33341000,18.37186200,-3.99327400,-1.26808600,0.51429010
999,8.30090800,-90.33341000,18.37186200,-3.99327400,-1.26808600,0.51429010
1000,26.48966200,-5.85946400,2.13626300,0.07177800,1.29320800,1.02223235
1001,16.11352700,-5.67635600,2.80766000,-0.21413900,1.33029400,1.05445949
1002,16.11352700,-5.67635600,2.80766000,-0.21413900,1.33029400,1.05445949
1003,5.06599500,-7.93469100,1.95315500,-0.28113200,0.91397900,1.04786755
1004,5.06599500,-7.93469100,1.95315500,-0.28113200,0.91397900,1.04786755
1005,-4.27252600,-10.25406300,-0.36621700,-0.09331200,0.55508700,1.02906847
1006,-4.27252600,-10.25406300,-0.36621700,-0.09331200,0.55508700,1.02906847
1007,-8.72816100,-11.47478400,-1.70901000,0.12561200,0.12920100,0.99513235
1008,-8.72816100,-11.47478400,-1.70901000,0.12561200,0.12920100,0.99513235
1009,3.78423700,-9.03334100,1.40383000,-0.08134900,0.02153400,1.00148010
1010,-3.23491300,3.96734600,-2.01419100,-0.23447600,0.04785200,0.99488827
1011,-3.78423700,3.05180400,-2.25833500,-0.24524300,0.04904900,0.99220265
1012,-3.78423700,3.05180400,-2.25833500,-0.24524300,0.04904900,0.99220265
1013,-3.35698500,2.38040700,-2.50248000,-0.24524300,0.07776000,0.99281296
1014,-3.35698500,2.38040700,-2.50248000,-0.24524300,0.07776000,0.99281296
1015,-2.50248000,1.15968600,-2.56351600,-0.32778800,0.03230000,0.99171439
1016,-2.50248000,1.15968600,-2.56351600,-0.32778800,0.03230000,0.99171439
1017,-2.50248000,0.24414400,-2.92973200,-0.32419900,0.04067400,0.99439990
1018,-3.17387700,-0.85450500,-2.99076800,-0.28711400,0.02751500,0.98780806
1019,-3.17387700,-0.85450500,-2.99076800,-0.28711400,0.02751500,0.98780806
1020,3.90631000,29.23628600,2.01419100,0.13159400,-0.04904900,0.98304724
1021,3.90631000,29.23628600,2.01419100,0.13159400,-0.04904900,0.98304724
1022,3.84527400,32.41016300,2.80766000,0.08613400,-0.10766800,0.98805214
1023,3.84527400,32.41016300,2.80766000,0.08613400,-0.10766800,0.98805214
1024,3.47905700,34.97367800,3.17387700,0.04187100,-0.11245300,0.98658735
1025,3.47905700,34.97367800,3.17387700,0.04187100,-0.11245300,0.98658735
1026,3.90631000,37.29305000,3.41802100,0.05622600,-0.13637900,0.98988327
1027,3.90631000,37.29305000,3.41802100,0.05622600,-0.13637900,0.98988327
1028,4.57770700,39.97863700,3.72320100,0.07058200,-0.14475300,0.98768602
1029,3.29594900,53.71175700,4.69977900,-0.01196300,-0.13518300,0.98402378
1030,77.82101200,97.29152400,-79.10277000,-6.51867900,-0.58619100,1.15638969
1031,77.82101200,97.29152400,-79.10277000,-6.51867900,-0.58619100,1.15638969
1032,73.97573800,96.43701800,-86.73228000,-6.29975400,-0.00598200,1.17921724
1033,73.97573800,96.43701800,-86.73228000,-6.29975400,-0.00598200,1.17921724
1034,66.16311900,95.09422400,-93.62935800,-5.98153700,0.52159000,1.19264510
1035,66.16311900,95.09422400,-93.62935800,-5.98153700,0.52159000,1.19264510
1036,56.45838100,93.81246700,-99.30571500,-5.64896300,0.98336500,1.20338755
1037,56.45838100,93.81246700,-99.30571500,-5.64896300,0.98336500,1.20338755
1038,46.14328200,92.83588900,-103.45616800,-5.29844500,1.41642800,1.21620510
1039,46.14328200,92.83588900,-103.45616800,-5.29844500,1.41642800,1.21620510
1040,47.42504000,-182.37583000,129.33547000,2.89626000,0.56585300,0.77833214
1041,47.42504000,-182.37583000,129.33547000,2.89626000,0.56585300,0.77833214
1042,51.20927700,-186.03799500,132.02105700,2.52181600,0.47971900,0.78626684
1043,54.13901000,-190.79881000,134.27939300,2.17010100,0.36367700,0.79078357
1044,54.13901000,-190.79881000,134.27939300,2.17010100,0.36367700,0.79078357
1045,55.90905600,-195.80376900,135.43907800,1.84231300,0.30146900,0.79090561
1046,55.90905600,-195.80376900,135.43907800,1.84231300,0.30146900,0.79090561
1047,56.51941700,-200.68665600,135.98840300,1.51093600,0.21413900,0.79652092
1048,56.51941700,-200.68665600,135.98840300,1.51093600,0.21413900,0.79652092
1049,51.27031400,-223.51415300,129.51857800,0.73453300,-0.74290700,0.66736857
1050,-89.66201300,-30.02975500,-27.40520300,7.22330400,-1.03002100,0.72217898
1051,-109.62081300,-2.80766000,-23.86511000,8.39927400,-3.37717600,0.53296714
1052,-109.62081300,-2.80766000,-23.86511000,8.39927400,-3.37717600,0.53296714
1053,-117.06721600,35.52300300,-32.04394600,6.86082200,-5.16326200,0.48462653
1054,-117.06721600,35.52300300,-32.04394600,6.86082200,-5.16326200,0.48462653
1055,-101.99130200,69.15388700,-41.13832300,3.51355500,-5.17283300,0.62903796
1056,-101.99130200,69.15388700,-41.13832300,3.51355500,-5.17283300,0.62903796
1057,-60.48676300,92.46967300,-39.61242100,-0.40554800,-4.65243900,0.90589765
1058,-60.48676300,92.46967300,-39.61242100,-0.40554800,-4.65243900,0.90589765
1059,-3.41802100,104.79896200,-32.16601800,-3.71573100,-3.23960000,1.19386592
1060,-2.31937100,-4.63874300,-3.35698500,-0.15552000,0.17944600,1.01466388
1061,-2.31937100,-4.63874300,-3.35698500,-0.15552000,0.17944600,1.01466388
1062,-3.84527400,-6.16464500,-4.69977900,0.13279000,0.29309500,1.00953694
1063,-3.84527400,-6.16464500,-4.69977900,0.13279000,0.29309500,1.00953694
1064,-5.24910400,-6.59189700,-5.12703100,-0.04546000,0.40076300,0.98084990
1065,-5.24910400,-6.59189700,-5.12703100,-0.04546000,0.40076300,0.98084990
1066,-5.31014000,-6.59189700,-4.94392300,-0.07417100,0.20217600,1.01576255
1067,-5.31014000,-6.59189700,-4.94392300,-0.07417100,0.20217600,1.01576255
1068,-5.06599500,-7.87365500,-6.10360900,0.04665600,0.08613400,1.01686122
1069,-5.73739200,-7.32433100,-5.31014000,0.11604200,0.17825000,0.95960939
1070,-0.30518000,9.33852100,-2.25833500,-0.03110400,-0.05263800,0.99659724
1071,-0.30518000,9.33852100,-2.25833500,-0.03110400,-0.05263800,0.99659724
1072,0.36621700,9.52163000,-1.70901000,0.04187100,-0.02631900,0.99122602
1073,0.36621700,9.52163000,-1.70901000,0.04187100,-0.02631900,0.99122602
1074,1.15968600,10.13199100,-1.28175800,0.09929400,0.02631900,0.99000531
1075,1.15968600,10.13199100,-1.28175800,0.09929400,0.02631900,0.99000531
1076,1.64797400,10.92546000,-0.79346900,0.13518300,0.10886400,0.99366755
1077,1.64797400,10.92546000,-0.79346900,0.13518300,0.10886400,0.99366755
1078,2.01419100,11.71892900,-0.54932500,0.11245300,0.17107200,0.99037153
1079,2.01419100,11.71892900,-0.54932500,0.11245300,0.17107200,0.99037153
1080,3.11284000,37.96444600,0.54932500,-0.18303500,0.15671600,0.98316929
1081,3.11284000,37.96444600,0.54932500,-0.18303500,0.15671600,0.98316929
1082,2.86869600,39.79552900,0.12207200,-0.08613400,0.14953800,0.99000531
1083,2.86869600,39.79552900,0.12207200,-0.08613400,0.14953800,0.99000531
1084,1.95315500,41.74868400,-0.48828900,-0.05622600,0.23447600,0.98097204
1085,1.46486600,44.43427200,-0.97657700,0.04426300,0.15791300,0.97608908
1086,1.46486600,44.43427200,-0.97657700,0.04426300,0.15791300,0.97608908
1087,0.24414400,47.48607600,-1.64797400,0.17466100,0.11963100,0.97547878
1088,2.92973200,68.42145400,-2.44144400,-0.21413900,-0.00957000,0.97535663
1089,3.72320100,71.29015000,-3.05180400,-0.16509000,0.06579700,0.97511255
1090,-41.01625100,218.81437400,-157.16792600,-12.31119900,-4.10811900,0.90553143
1091,-1.89211900,219.79095100,-149.84359500,-12.14730400,-2.36270700,1.05775541
1092,-1.89211900,219.79095100,-149.84359500,-12.14730400,-2.36270700,1.05775541
1093,31.79980200,215.09117300,-137.39223300,-11.62092900,-0.89962300,1.12782480
1094,51.94171100,208.13305900,-123.47600500,-10.91032300,0.33496600,1.12367439
1095,51.94171100,208.13305900,-123.47600500,-10.91032300,0.33496600,1.12367439
1096,58.10635500,202.57877500,-109.62081300,-10.40069600,1.30756400,1.08595408
1097,58.10635500,202.57877500,-109.62081300,-10.40069600,1.30756400,1.08595408
1098,54.01693800,200.07629500,-96.86427100,-9.73435300,2.13301600,1.08326847
1099,54.01693800,200.07629500,-96.86427100,-9.73435300,2.13301600,1.08326847
1100,-47.18089600,-143.43480600,-16.78492400,3.22165600,2.50147900,0.98463418
1101,-43.45769400,-149.72152300,-10.98649600,3.10800600,2.36031400,0.98573286
1102,-43.45769400,-149.72152300,-10.98649600,3.10800600,2.36031400,0.98573286
1103,-39.12413200,-155.94720400,-5.37117600,2.94889800,2.24546900,0.98316929
1104,-39.12413200,-155.94720400,-5.37117600,2.94889800,2.24546900,0.98316929
1105,-34.18020900,-162.23392100,-0.06103600,2.78261100,2.13780100,0.98487827
1106,-34.18020900,-162.23392100,-0.06103600,2.78261100,2.13780100,0.98487827
1107,-28.62592500,-168.58167400,4.88288700,2.63905400,2.05764900,0.98402378
1108,-28.62592500,-168.58167400,4.88288700,2.63905400,2.05764900,0.98402378
1109,-4.21149000,-209.59792500,24.10925500,1.23578500,2.22991700,1.03138786
1110,-39.12413200,-271.73266200,126.64988200,-6.14184200,3.00033900,1.07594418
1111,-40.46692600,-273.99099700,125.24605200,-5.93966600,2.97880500,1.05372704
1112,-40.46692600,-273.99099700,125.24605200,-5.93966600,2.97880500,1.05372704
1113,-41.26039500,-275.15068300,124.08636600,-5.74825700,2.94052300,1.03321888
1114,-41.26039500,-275.15068300,124.08636600,-5.74825700,2.94052300,1.03321888
1115,-41.38246700,-275.51689900,123.04875300,-5.56641800,2.89865300,1.01747153
1116,-41.38246700,-275.51689900,123.04875300,-5.56641800,2.89865300,1.01747153
1117,-40.89417900,-275.08964700,122.07217500,-5.40491600,2.88788600,1.00184633
1118,-40.89417900,-275.08964700,122.07217500,-5.40491600,2.88788600,1.00184633
1119,-39.97863700,-273.92996100,121.27870600,-5.24461100,2.86635200,0.99269092
1120,-2.62455200,62.98924200,114.86991700,-3.29104100,-2.34237000,0.33752959
1121,8.60608800,79.16380600,109.68184900,-3.32214500,-1.55878800,0.40173949
1122,8.60608800,79.16380600,109.68184900,-3.32214500,-1.55878800,0.40173949
1123,16.29663500,92.46967300,104.37171000,-3.42383200,-0.70462500,0.46814684
1124,16.29663500,92.46967300,104.37171000,-3.42383200,-0.70462500,0.46814684
1125,19.53154800,102.54062700,99.30571500,-3.06493900,0.46775600,0.56763561
1126,19.53154800,102.54062700,99.30571500,-3.06493900,0.46775600,0.56763561
1127,19.22636800,108.82734400,97.16945100,-2.44644800,1.20946700,0.49390398
1128,19.22636800,108.82734400,97.16945100,-2.44644800,1.20946700,0.49390398
1129,-57.49599500,161.80666800,99.30571500,-1.28124500,2.65580200,0.64246582
1130,1.58693800,9.58266600,1.52590200,-0.48809300,0.78717000,1.03248643
1131,-3.60112900,6.83604200,0.67139700,-0.24763600,0.42588500,1.01393153
1132,-3.60112900,6.83604200,0.67139700,-0.24763600,0.42588500,1.01393153
1133,-4.82185100,5.12703100,0.12207200,0.06101200,0.18183900,0.99122602
1134,-4.82185100,5.12703100,0.12207200,0.06101200,0.18183900,0.99122602
1135,-3.23491300,5.73739200,0.48828900,0.28352500,0.02990800,0.97950714
1136,-3.23491300,5.73739200,0.48828900,0.28352500,0.02990800,0.97950714
1137,-0.36621700,8.30090800,0.79346900,0.23088700,0.05144100,0.96668959
1138,-0.36621700,8.30090800,0.79346900,0.23088700,0.05144100,0.96668959
1139,2.25833500,11.10856800,0.79346900,0.02871100,0.16987600,0.97462429
1140,0.79346900,2.74662400,0.54932500,-0.25959900,0.16030500,0.98280306
1141,0.61036100,2.25833500,-0.12207200,-0.19619400,0.17226800,0.98219276
1142,0.61036100,2.25833500,-0.12207200,-0.19619400,0.17226800,0.98219276
1143,-1.22072200,1.95315500,-0.91554100,-0.22012100,0.26916900,0.97572286
1144,-1.22072200,1.95315500,-0.91554100,-0.22012100,0.26916900,0.97572286
1145,-2.13626300,1.40383000,-1.46486600,-0.16389400,0.22969100,0.98854051
1146,-2.13626300,1.40383000,-1.46486600,-0.16389400,0.22969100,0.98854051
1147,-2.62455200,0.85450500,-2.19729900,-0.13398600,0.30027300,0.98060582
1148,-2.62455200,0.85450500,-2.19729900,-0.13398600,0.30027300,0.98060582
1149,-4.69977900,-0.12207200,-4.88288700,-0.27156200,0.15193100,0.98756388
1150,-2.56351600,7.69054700,-2.01419100,-0.32419900,0.18303500,0.94325173
1151,-1.09865000,8.72816100,-1.95315500,-0.50005600,0.16509000,0.99781796
1152,-1.09865000,8.72816100,-1.95315500,-0.50005600,0.16509000,0.99781796
1153,-1.46486600,6.89707800,-2.80766000,-0.54790900,0.25002800,1.00782786
1154,-1.46486600,6.89707800,-2.80766000,-0.54790900,0.25002800,1.00782786
1155,-3.54009300,4.76081500,-3.60112900,-0.36607000,0.25840200,0.99366755
1156,-3.54009300,4.76081500,-3.60112900,-0.36607000,0.25840200,0.99366755
1157,-5.24910400,3.66216500,-4.15045400,-0.19380200,0.16150100,0.97206071
1158,-5.24910400,3.66216500,-4.15045400,-0.19380200,0.16150100,0.97206071
1159,-6.16464500,4.39459800,-4.51667000,-0.16748300,0.08493800,0.96913102
1160,-15.56420200,134.52353700,-12.93965100,-0.01555200,0.10886400,0.94825663
1161,-13.79415600,142.64133700,-13.24483100,0.06340400,0.15552000,0.95130847
1162,-13.79415600,142.64133700,-13.24483100,0.06340400,0.15552000,0.95130847
1163,-12.57343400,150.69810000,-13.67208400,0.01914100,0.33377000,0.94019990
1164,-12.57343400,150.69810000,-13.67208400,0.01914100,0.33377000,0.94019990
1165,-12.57343400,158.99900800,-13.67208400,0.12561200,0.44383000,0.96070806
1166,-12.57343400,158.99900800,-13.67208400,0.12561200,0.44383000,0.96070806
1167,-13.73312000,166.62851900,-13.67208400,0.00119600,0.37803300,0.94996571
1168,-13.73312000,166.62851900,-13.67208400,0.00119600,0.37803300,0.94996571
1169,-41.87075600,215.76257000,-32.47119900,-1.21903700,0.62447200,0.97486837
1170,-136.72083600,-25.26894000,41.93179200,0.02871100,1.57553700,0.94410622
1171,-136.72083600,-25.26894000,41.93179200,0.02871100,1.57553700,0.94410622
1172,-140.99336200,-31.92187400,38.33066300,-0.02033700,1.46786900,0.94935531
1173,-143.67895000,-39.24620400,34.97367800,-0.07536700,1.41164300,0.96095214
1174,-143.67895000,-39.24620400,34.97367800,-0.07536700,1.41164300,0.96095214
1175,-145.08278000,-47.11986000,32.22705400,-0.17226800,1.36020100,0.96876480
1176,-145.08278000,-47.11986000,32.22705400,-0.17226800,1.36020100,0.96876480
1177,-145.38796100,-55.42076800,29.84664700,-0.28113200,1.34823800,0.97584500
1178,-145.38796100,-55.42076800,29.84664700,-0.28113200,1.34823800,0.97584500
1179,-145.08278000,-64.27100000,27.95452800,-0.41033300,1.29560100,0.97853051
1180,-46.57053500,-250.61417600,157.53414200,-6.38349600,3.34248300,0.83253224
1181,-46.57053500,-250.61417600,157.53414200,-6.38349600,3.34248300,0.83253224
1182,-48.03540100,-250.49210300,158.63279200,-6.32966200,3.40229800,0.81861602
1183,-48.03540100,-250.49210300,158.63279200,-6.32966200,3.40229800,0.81861602
1184,-49.86648400,-249.82070700,159.48729700,-6.26266900,3.40469100,0.79359122
1185,-49.86648400,-249.82070700,159.48729700,-6.26266900,3.40469100,0.79359122
1186,-52.18585500,-248.29480400,160.15869400,-6.17773100,3.41186800,0.77430378
1187,-52.18585500,-248.29480400,160.15869400,-6.17773100,3.41186800,0.77430378
1188,-54.87144300,-246.58579400,160.46387400,-6.04613700,3.41306500,0.75770204
1189,-64.33203600,-230.83848300,160.70801900,-5.66571100,3.44177600,0.71790643
1190,-44.73945200,-73.48744900,219.85198700,-2.89626000,-0.51082300,0.64039061
1191,-44.43427200,-68.66559900,211.73418800,-2.83405200,-0.71299900,0.64124510
1192,-44.43427200,-68.66559900,211.73418800,-2.83405200,-0.71299900,0.64124510
1193,-41.62661200,-63.90478400,203.43328000,-2.75629200,-0.85894900,0.63953612
1194,-41.62661200,-63.90478400,203.43328000,-2.75629200,-0.85894900,0.63953612
1195,-37.72030200,-58.89982500,195.13237200,-2.68331700,-0.98815000,0.63709469
1196,-37.72030200,-58.89982500,195.13237200,-2.68331700,-0.98815000,0.63709469
1197,-33.75295600,-53.89486500,186.52628400,-2.61034300,-1.05992800,0.63672847
1198,-33.75295600,-53.89486500,186.52628400,-2.61034300,-1.05992800,0.63672847
1199,-30.15182700,-48.70679800,177.49294300,-2.61034300,-1.09701400,0.62464337
1200,0.48828900,102.66269900,-37.29305000,-0.22490600,4.11290500,0.92262153
1201,-23.01060500,104.31067400,-36.62165300,-2.64742800,4.18229000,1.20888071
1202,-23.01060500,104.31067400,-36.62165300,-2.64742800,4.18229000,1.20888071
1203,-33.32570400,96.92530700,-25.81826500,-5.43482400,3.85569800,1.48476388
1204,-33.32570400,96.92530700,-25.81826500,-5.43482400,3.85569800,1.48476388
1205,-27.22209500,83.07011500,-12.57343400,-6.25668700,2.14737200,1.73586633
1206,-27.22209500,83.07011500,-12.57343400,-6.25668700,2.14737200,1.73586633
1207,-17.51735700,50.11062800,-7.01915000,-5.38457900,0.09091900,1.53640041
1208,-17.51735700,50.11062800,-7.01915000,-5.38457900,0.09091900,1.53640041
1209,7.20225800,37.41512200,1.28175800,-0.16987600,-0.73094400,1.00355531
1210,-4.39459800,0.48828900,-3.84527400,-0.13279000,-0.08134900,0.99220265
1211,-4.39459800,0.48828900,-3.84527400,-0.13279000,-0.08134900,0.99220265
1212,-3.54009300,0.48828900,-4.15045400,-0.19858700,0.00000000,0.98768602
1213,-3.54009300,0.48828900,-4.15045400,-0.19858700,0.00000000,0.98768602
1214,-2.80766000,0.54932500,-4.08941800,-0.16867900,-0.06220800,0.99037153
1215,-2.80766000,0.54932500,-4.08941800,-0.16867900,-0.06220800,0.99037153
1216,-2.86869600,0.54932500,-4.33356200,-0.21892400,-0.04665600,0.98988327
1217,-2.86869600,0.54932500,-4.33356200,-0.21892400,-0.04665600,0.98988327
1218,-3.17387700,0.42725300,-4.39459800,-0.23806500,-0.07656400,0.99684143
1219,-3.17387700,0.42725300,-4.39459800,-0.23806500,-0.07656400,0.99684143
1220,0.91554100,1.15968600,1.52590200,-0.29189900,-0.05981500,0.98011745
1221,0.91554100,1.15968600,1.52590200,-0.29189900,-0.05981500,0.98011745
1222,1.70901000,1.03761300,1.64797400,-0.24643900,-0.00478500,0.98060582
1223,1.70901000,1.03761300,1.64797400,-0.24643900,-0.00478500,0.98060582
1224,2.56351600,1.28175800,1.77004700,-0.21174600,0.06938600,0.97901888
1225,2.56351600,1.28175800,1.77004700,-0.21174600,0.06938600,0.97901888
1226,2.92973200,1.77004700,1.89211900,-0.22251300,0.08972300,0.98023959
1227,2.92973200,1.77004700,1.89211900,-0.22251300,0.08972300,0.98023959
1228,2.68558800,2.07522700,1.95315500,-0.21174600,0.08015300,0.98536663
1229,2.80766000,4.69977900,1.95315500,-0.23088700,0.04187100,0.98280306
1230,-8.97230500,71.53429500,9.70473800,-0.05024500,-0.03588900,1.00318918
1231,-10.86442400,74.89127900,11.10856800,-0.03349700,-0.11843400,0.97718776
1232,-10.86442400,74.89127900,11.10856800,-0.03349700,-0.11843400,0.97718776
1233,-9.76577400,80.56763600,12.45136200,-0.00119600,-0.15432400,0.96388194
1234,-9.76577400,80.56763600,12.45136200,-0.00119600,-0.15432400,0.96388194
1235,-7.20225800,86.54917200,14.70969700,-0.22969100,-0.27515100,0.96278327
1236,-7.20225800,86.54917200,14.70969700,-0.22969100,-0.27515100,0.96278327
1237,-5.00495900,92.04242000,18.18875400,-0.72735500,-0.31343300,0.96412602
1238,-5.00495900,92.04242000,18.18875400,-0.72735500,-0.31343300,0.96412602
1239,-0.85450500,96.68116300,22.52231600,-1.33507900,-0.27515100,0.96192878
1240,-13.91622800,140.99336200,-78.24826400,0.36607000,1.64970800,1.40981153
1241,-12.57343400,133.97421200,-75.44060400,0.62088300,1.71430800,1.38930347
1242,-12.57343400,133.97421200,-75.44060400,0.62088300,1.71430800,1.38930347
1243,-11.90203700,126.58884600,-72.93812500,0.92594200,1.83633200,1.37233541
1244,-11.90203700,126.58884600,-72.93812500,0.92594200,1.83633200,1.37233541
1245,-11.84100100,118.71519000,-70.67978900,0.98695400,1.93682200,1.36220337
1246,-11.84100100,118.71519000,-70.67978900,0.98695400,1.93682200,1.36220337
1247,-12.14618100,110.53635500,-68.84870700,1.08624700,2.13062300,1.36501102
1248,-12.14618100,110.53635500,-68.84870700,1.08624700,2.13062300,1.36501102
1249,-25.63515700,29.84664700,-53.46761300,0.38999600,2.72997300,1.52590214
1250,20.87434200,-202.94499100,34.72953400,-1.35541600,-0.99413100,0.45618367
1251,16.72388800,-196.90241900,28.50385300,-1.63535200,-0.58260200,0.45276571
1252,16.72388800,-196.90241900,28.50385300,-1.63535200,-0.58260200,0.45276571
1253,13.48897500,-190.61570200,24.59754300,-1.87581000,-0.20696100,0.43787286
1254,13.48897500,-190.61570200,24.59754300,-1.87581000,-0.20696100,0.43787286
1255,11.23064000,-183.71862400,23.13267700,-2.05525600,0.10049000,0.41089490
1256,11.23064000,-183.71862400,23.13267700,-2.05525600,0.10049000,0.41089490
1257,9.64370200,-175.96704100,23.98718200,-2.13421200,0.39717400,0.37976653
1258,9.64370200,-175.96704100,23.98718200,-2.13421200,0.39717400,0.37976653
1259,8.05676400,-166.99473600,26.73380600,-2.16172700,0.67950300,0.33643092
1260,-85.26741400,7.93469100,-13.61104800,-5.18360000,-3.41306500,1.40541694
1261,-56.58045300,-20.26398100,-12.32929000,-3.81263100,-4.21339400,1.21754786
1262,-56.58045300,-20.26398100,-12.32929000,-3.81263100,-4.21339400,1.21754786
1263,-19.89776500,-38.26962700,-9.33852100,-1.23339300,-3.55901400,0.99024949
1264,-19.89776500,-38.26962700,-9.33852100,-1.23339300,-3.55901400,0.99024949
1265,13.61104800,-38.02548300,-5.92050000,0.60413500,-1.87820200,0.82630653
1266,13.61104800,-38.02548300,-5.92050000,0.60413500,-1.87820200,0.82630653
1267,36.07232800,-24.23132700,-2.31937100,0.88287500,-0.16628700,0.82948041
1268,36.07232800,-24.23132700,-2.31937100,0.88287500,-0.16628700,0.82948041
1269,-10.19302700,-19.47051200,0.06103600,1.01207600,-0.19978300,0.94300755
1270,-5.73739200,-13.24483100,-5.67635600,-0.10288200,-0.10288200,1.00062561
1271,-5.49324800,-13.42793900,-5.43221200,-0.11006000,-0.12800500,1.00123602
1272,-5.49324800,-13.42793900,-5.43221200,-0.11006000,-0.12800500,1.00123602
1273,-5.12703100,-13.61104800,-5.06599500,-0.16748300,-0.14236100,1.00392153
1274,-5.12703100,-13.61104800,-5.06599500,-0.16748300,-0.14236100,1.00392153
1275,-4.82185100,-13.97726400,-4.76081500,-0.12800500,-0.22849500,1.00843827
1276,-4.82185100,-13.97726400,-4.76081500,-0.12800500,-0.22849500,1.00843827
1277,-3.90631000,-14.46555300,-4.82185100,-0.10049000,-0.10647100,0.99757378
1278,-3.90631000,-14.46555300,-4.82185100,-0.10049000,-0.10647100,0.99757378
1279,-3.23491300,-14.70969700,-4.21149000,0.01914100,-0.22490600,1.00514224
1280,2.92973200,5.12703100,0.54932500,0.54790900,-0.26079500,0.97962918
1281,2.92973200,5.12703100,0.54932500,0.54790900,-0.26079500,0.97962918
1282,4.21149000,7.26329400,1.09865000,0.48570100,-0.27634700,0.98304724
1283,4.21149000,7.26329400,1.09865000,0.48570100,-0.27634700,0.98304724
1284,5.98153700,8.91126900,1.22072200,0.49766400,-0.17944600,0.98683143
1285,5.98153700,8.91126900,1.22072200,0.49766400,-0.17944600,0.98683143
1286,7.62951100,10.49820700,1.15968600,0.58020900,0.03469300,0.97779816
1287,7.62951100,10.49820700,1.15968600,0.58020900,0.03469300,0.97779816
1288,7.87365500,12.57343400,1.46486600,0.66753900,0.13398600,0.97425806
1289,7.56847500,25.69619300,2.92973200,0.52757200,-0.23686900,0.99537653
1290,152.28503900,165.71297800,17.21217700,-13.32088200,-0.81827400,1.70888837
1291,163.21049800,136.53772800,9.09437700,-12.44398900,0.34812500,1.65590908
1292,163.21049800,136.53772800,9.09437700,-12.44398900,0.34812500,1.65590908
1293,169.55825100,101.68612200,-0.18310800,-10.73087700,0.19739100,1.34999622
1294,169.55825100,101.68612200,-0.18310800,-10.73087700,0.19739100,1.34999622
1295,150.75913600,85.75570300,-23.80407400,-8.79884000,1.42360600,1.10756082
1296,150.75913600,85.75570300,-23.80407400,-8.79884000,1.42360600,1.10756082
1297,103.21202400,79.28587800,-48.58472600,-7.79035300,3.31377100,1.17604337
1298,103.21202400,79.28587800,-48.58472600,-7.79035300,3.31377100,1.17604337
1299,52.24689100,68.23834600,-64.82032500,-7.06299800,3.19414100,1.18373388
1300,-10.25406300,-77.57686700,64.33203600,3.43100900,1.81958300,1.01039143
1301,-10.25406300,-77.57686700,64.33203600,3.43100900,1.81958300,1.01039143
1302,-7.56847500,-84.59601700,69.09285100,3.48843200,1.66286700,0.98817429
1303,-7.56847500,-84.59601700,69.09285100,3.48843200,1.66286700,0.98817429
1304,-4.27252600,-90.63859000,73.60952200,3.52791000,1.53007700,0.96827653
1305,-4.27252600,-90.63859000,73.60952200,3.52791000,1.53007700,0.96827653
1306,-0.24414400,-96.00976600,77.94308400,3.52432100,1.41642800,0.95680173
1307,-0.24414400,-96.00976600,77.94308400,3.52432100,1.41642800,0.95680173
1308,4.15045400,-100.83161700,82.15457400,3.43699100,1.32909700,0.95838867
1309,18.43289800,-129.88479400,96.62012700,2.92497100,0.86014500,0.93934541
1310,0.61036100,-67.81109300,37.53719400,-2.81251900,-0.47373800,0.60657663
1311,0.36621700,-62.01266500,35.58403900,-2.86276300,-0.28472100,0.63953612
1312,0.36621700,-62.01266500,35.58403900,-2.86276300,-0.28472100,0.63953612
1313,-0.42725300,-57.00770600,34.24124500,-2.95129000,-0.11364900,0.67505908
1314,-0.42725300,-57.00770600,34.24124500,-2.95129000,-0.11364900,0.67505908
1315,-1.52590200,-53.10139600,33.26466800,-3.04699500,0.03110400,0.70130469
1316,-1.52590200,-53.10139600,33.26466800,-3.04699500,0.03110400,0.70130469
1317,-2.86869600,-50.17166400,32.77637900,-3.13432500,0.11604200,0.72169071
1318,-2.86869600,-50.17166400,32.77637900,-3.13432500,0.11604200,0.72169071
1319,-4.51667000,-48.15747300,32.71534300,-3.21328100,0.17346500,0.73096816
1320,-13.18379500,-16.84596000,-4.76081500,0.32659200,-0.08972300,0.98683143
1321,-13.18379500,-16.84596000,-4.76081500,0.32659200,-0.08972300,0.98683143
1322,-11.41374800,-13.48897500,-4.45563400,0.44502600,-0.25720600,0.96107429
1323,-11.41374800,-13.48897500,-4.45563400,0.44502600,-0.25720600,0.96107429
1324,-7.93469100,-8.42298000,-3.78423700,0.25481300,-0.30984400,0.96876480
1325,-4.08941800,-4.08941800,-2.80766000,-0.04546000,-0.26558000,0.98756388
1326,-4.08941800,-4.08941800,-2.80766000,-0.04546000,-0.26558000,0.98756388
1327,-1.70901000,-2.13626300,-1.64797400,-0.21533500,-0.16867900,1.02052337
1328,-0.36621700,-3.66216500,0.61036100,-0.13757500,0.09570500,0.99720755
1329,-0.97657700,-3.23491300,0.30518000,-0.13159400,0.14594900,1.00086980
1330,-0.06103600,-3.60112900,2.99076800,-0.10049000,-0.08134900,0.99757378
1331,0.61036100,-3.66216500,2.99076800,-0.13398600,-0.07895600,0.99415582
1332,0.61036100,-3.66216500,2.99076800,-0.13398600,-0.07895600,0.99415582
1333,1.64797400,-3.84527400,2.99076800,-0.15432400,-0.06699300,0.99195847
1334,1.64797400,-3.84527400,2.99076800,-0.15432400,-0.06699300,0.99195847
1335,2.01419100,-3.60112900,3.05180400,-0.21055000,-0.05981500,0.99720755
1336,2.01419100,-3.60112900,3.05180400,-0.21055000,-0.05981500,0.99720755
1337,1.83108300,-4.57770700,3.23491300,-0.23208400,-0.02033700,1.00489816
1338,1.83108300,-4.57770700,3.23491300,-0.23208400,-0.02033700,1.00489816
1339,2.19729900,-5.43221200,3.72320100,-0.26916900,0.01076700,1.00099184
1340,3.05180400,9.27748500,0.36621700,0.24883200,-0.03349700,0.98170439
1341,3.05180400,9.27748500,0.36621700,0.24883200,-0.03349700,0.98170439
1342,3.05180400,10.49820700,0.36621700,0.27874000,0.00717800,0.97792020
1343,3.29594900,12.20721800,0.42725300,0.33377000,0.04306700,0.98170439
1344,3.29594900,12.20721800,0.42725300,0.33377000,0.04306700,0.98170439
1345,3.47905700,14.09933600,0.67139700,0.38521100,0.09211600,0.98341347
1346,3.47905700,14.09933600,0.67139700,0.38521100,0.09211600,0.98341347
1347,3.41802100,16.05249100,0.97657700,0.40315600,0.09450800,0.98255898
1348,3.41802100,16.05249100,0.97657700,0.40315600,0.09450800,0.98255898
1349,4.94392300,28.68696100,4.33356200,0.00957000,0.09690100,0.99049367
1350,74.52506300,213.80941500,0.00000000,-13.31370400,-0.11723800,1.48696112
1351,74.34195500,193.72854200,-8.60608800,-13.48477600,-0.36607000,1.62673378
1352,74.34195500,193.72854200,-8.60608800,-13.48477600,-0.36607000,1.62673378
1353,72.02258300,162.23392100,-14.22140800,-12.44398900,-0.65438000,1.49489582
1354,72.02258300,162.23392100,-14.22140800,-12.44398900,-0.65438000,1.49489582
1355,73.18226900,133.11970700,-19.59258400,-10.85648900,-0.46416700,1.25539020
1356,73.18226900,133.11970700,-19.59258400,-10.85648900,-0.46416700,1.25539020
1357,84.04669300,124.87983500,-29.96871900,-9.94131400,-1.27885300,1.01893643
1358,84.04669300,124.87983500,-29.96871900,-9.94131400,-1.27885300,1.01893643
1359,84.29083700,135.43907800,-53.52864900,-10.26072800,0.10886400,1.05702296
1360,10.86442400,-153.32265200,72.08361900,3.61045500,2.23829100,0.93019000
1361,10.86442400,-153.32265200,72.08361900,3.61045500,2.23829100,0.93019000
1362,14.52658900,-160.03662200,78.30930000,3.34009000,2.20120500,0.93202102
1363,14.52658900,-160.03662200,78.30930000,3.34009000,2.20120500,0.93202102
1364,18.31082600,-167.60509700,84.65705300,3.12834400,2.14497900,0.92176704
1365,18.31082600,-167.60509700,84.65705300,3.12834400,2.14497900,0.92176704
1366,22.03402800,-175.60082400,90.94377100,2.93095300,2.07679000,0.90077061
1367,22.03402800,-175.60082400,90.94377100,2.93095300,2.07679000,0.90077061
1368,26.30655400,-183.41344300,97.29152400,2.85438900,1.98108500,0.87330439
1369,48.70679800,-214.78599200,133.91317600,2.08277100,1.39489400,0.80201418
1370,5.49324800,5.61532000,-24.84168800,-3.30898600,-0.27515100,0.48120847
1371,8.05676400,14.34348100,-23.07164100,-3.16542900,0.11006000,0.51490041
1372,8.05676400,14.34348100,-23.07164100,-3.16542900,0.11006000,0.51490041
1373,11.23064000,22.58335200,-19.47051200,-3.21328100,0.50125300,0.58118561
1374,11.23064000,22.58335200,-19.47051200,-3.21328100,0.50125300,0.58118561
1375,15.13695000,29.05317800,-14.09933600,-3.46211300,0.82784500,0.65784694
1376,15.13695000,29.05317800,-14.09933600,-3.46211300,0.82784500,0.65784694
1377,19.77569200,32.10498200,-6.95811400,-3.76956400,1.03361000,0.72693980
1378,19.77569200,32.10498200,-6.95811400,-3.76956400,1.03361000,0.72693980
1379,24.84168800,31.31151300,1.22072200,-3.81861300,1.26569300,0.76917673
1380,-3.84527400,6.22568100,1.03761300,-0.07536700,0.11604200,0.99623102
1381,-4.45563400,6.83604200,1.58693800,-0.04187100,-0.01555200,0.98841837
1382,-4.45563400,6.83604200,1.58693800,-0.04187100,-0.01555200,0.98841837
1383,-3.47905700,7.99572700,1.83108300,-0.08613400,-0.03230000,0.99232469
1384,-3.47905700,7.99572700,1.83108300,-0.08613400,-0.03230000,0.99232469
1385,-1.09865000,8.91126900,2.07522700,-0.10886400,-0.02751500,0.99501031
1386,-1.09865000,8.91126900,2.07522700,-0.10886400,-0.02751500,0.99501031
1387,1.03761300,9.58266600,2.13626300,-0.09809700,0.04426300,0.99366755
1388,-0.42725300,9.64370200,1.77004700,-0.36487400,0.01674800,1.00013735
1389,0.18310800,8.78919700,1.95315500,-0.32778800,-0.01914100,0.99562061
1390,0.79346900,3.11284000,-0.06103600,-0.23328000,0.19619400,0.97706571
1391,0.79346900,3.11284000,-0.06103600,-0.23328000,0.19619400,0.97706571
1392,0.73243300,2.92973200,-0.18310800,-0.23567300,0.20696100,0.97499051
1393,0.67139700,3.05180400,-0.24414400,-0.21892400,0.17944600,0.97816439
1394,0.67139700,3.05180400,-0.24414400,-0.21892400,0.17944600,0.97816439
1395,0.85450500,3.11284000,-0.36621700,-0.21294300,0.20098000,0.97853051
1396,0.85450500,3.11284000,-0.36621700,-0.21294300,0.20098000,0.97853051
1397,1.09865000,3.17387700,-0.36621700,-0.22610200,0.23806500,0.98182653
1398,1.09865000,3.17387700,-0.36621700,-0.22610200,0.23806500,0.98182653
1399,0.91554100,3.17387700,-0.30518000,-0.20456900,0.21413900,0.98194857
1400,2.19729900,12.20721800,-0.36621700,-0.24763600,0.18423100,0.98048367
1401,2.19729900,12.20721800,-0.36621700,-0.24763600,0.18423100,0.98048367
1402,2.50248000,12.87861400,-0.24414400,-0.25002800,0.16987600,0.98182653
1403,2.50248000,12.87861400,-0.24414400,-0.25002800,0.16987600,0.98182653
1404,2.44144400,13.48897500,-0.06103600,-0.25122500,0.19380200,0.98097204
1405,2.44144400,13.48897500,-0.06103600,-0.25122500,0.19380200,0.98097204
1406,2.19729900,14.09933600,-0.06103600,-0.26677700,0.19380200,0.98280306
1407,2.19729900,14.09933600,-0.06103600,-0.26677700,0.19380200,0.98280306
1408,3.17387700,19.59258400,0.42725300,-0.22610200,0.23447600,0.97438010
1409,2.50248000,20.63019800,0.24414400,-0.22012100,0.18183900,0.97706571
1410,40.95521500,222.04928700,13.18379500,-3.50757300,-0.32659200,0.98646520
1411,40.95521500,222.04928700,13.18379500,-3.50757300,-0.32659200,0.98646520
1412,40.22278200,224.97901900,7.62951100,-4.93117900,-0.44263400,0.94215306
1413,40.22278200,224.97901900,7.62951100,-4.93117900,-0.44263400,0.94215306
1414,26.24551800,227.17631800,-2.74662400,-6.57251200,-0.99532800,0.95985347
1415,26.24551800,227.17631800,-2.74662400,-6.57251200,-0.99532800,0.95985347
1416,6.53086100,223.20897200,-18.31082600,-7.79992400,-1.67841900,0.98793010
1417,6.53086100,223.20897200,-18.31082600,-7.79992400,-1.67841900,0.98793010
1418,-8.66712400,213.80941500,-35.58403900,-8.82755200,-1.82676100,1.10035857
1419,-8.66712400,213.80941500,-35.58403900,-8.82755200,-1.82676100,1.10035857
1420,-38.39169900,118.16586600,-112.30640100,0.37922900,1.02164600,1.27052724
1421,-38.39169900,118.16586600,-112.30640100,0.37922900,1.02164600,1.27052724
1422,-39.49034900,104.61585400,-112.48950900,0.67112800,1.31833100,1.27602041
1423,-39.49034900,104.61585400,-112.48950900,0.67112800,1.31833100,1.27602041
1424,-40.34485400,91.67620400,-111.20775200,0.89842700,1.58750000,1.27736327
1425,-40.34485400,91.67620400,-111.20775200,0.89842700,1.58750000,1.27736327
1426,-40.77210700,79.46898600,-108.52216400,1.08505100,1.82078000,1.27858398
1427,-40.77210700,79.46898600,-108.52216400,1.08505100,1.82078000,1.27858398
1428,-40.65003400,67.26176900,-104.49378200,1.24296300,1.99304800,1.26771949
1429,-44.00701900,7.20225800,-74.28091900,2.31844400,3.01589100,1.18995959
1430,-37.47615800,-306.21805100,108.27801900,-2.17010100,2.51822700,1.00758378
1431,-37.90341000,-306.21805100,106.20279200,-2.34476200,2.73834700,1.00221255
1432,-37.90341000,-306.21805100,106.20279200,-2.34476200,2.73834700,1.00221255
1433,-39.24620400,-306.09597900,104.49378200,-2.49789000,2.94530900,0.99879449
1434,-41.68764800,-306.09597900,103.21202400,-2.59000500,3.05058400,0.99586480
1435,-41.68764800,-306.09597900,103.21202400,-2.59000500,3.05058400,0.99586480
1436,-44.86152400,-305.72976300,101.74715800,-2.68571000,3.19892600,0.99134816
1437,-44.86152400,-305.72976300,101.74715800,-2.68571000,3.19892600,0.99134816
1438,-48.52369000,-304.87525800,100.03814800,-2.75031100,3.26352600,0.99623102
1439,-48.52369000,-304.87525800,100.03814800,-2.75031100,3.26352600,0.99623102
1440,-8.36194400,-114.99198900,163.14946200,-9.87671300,-0.80152600,0.46765847
1441,-8.36194400,-114.99198900,163.14946200,-9.87671300,-0.80152600,0.46765847
1442,-12.20721800,-109.74288500,144.71656400,-9.75349400,-1.29679700,0.40991837
1443,-12.20721800,-109.74288500,144.71656400,-9.75349400,-1.29679700,0.40991837
1444,-12.81757800,-103.82238500,127.38231500,-9.52021400,-1.77173100,0.35181204
1445,-12.81757800,-103.82238500,127.38231500,-9.52021400,-1.77173100,0.35181204
1446,-9.33852100,-96.31494600,112.67261800,-9.11107700,-2.23589800,0.27856867
1447,-9.33852100,-96.31494600,112.67261800,-9.11107700,-2.23589800,0.27856867
1448,-0.12207200,-86.30502800,100.58747200,-8.55479400,-2.58282700,0.22290378
1449,78.55344500,-0.67139700,75.44060400,-6.06049300,-1.35541600,0.14819561
1450,-3.54009300,15.50316600,-5.06599500,-0.16389400,0.50723400,0.99745173
1451,-3.54009300,15.50316600,-5.06599500,-0.16389400,0.50723400,0.99745173
1452,-5.24910400,15.19798600,-5.31014000,-0.31821800,0.40315600,1.00599684
1453,-5.24910400,15.19798600,-5.31014000,-0.31821800,0.40315600,1.00599684
1454,-6.34775300,14.09933600,-5.43221200,-0.31582500,0.29070300,1.01576255
1455,-6.34775300,14.09933600,-5.43221200,-0.31582500,0.29070300,1.01576255
1456,-6.22568100,12.39032600,-5.85946400,-0.25002800,0.21413900,0.99989316
1457,-6.22568100,12.39032600,-5.85946400,-0.25002800,0.21413900,0.99989316
1458,-5.79842800,11.84100100,-6.10360900,-0.20456900,0.23686900,0.99513235
1459,-5.79842800,11.84100100,-6.10360900,-0.20456900,0.23686900,0.99513235
1460,-2.80766000,0.48828900,-5.00495900,-0.23208400,0.11604200,0.98439000
1461,-2.80766000,0.48828900,-5.00495900,-0.23208400,0.11604200,0.98439000
1462,-3.17387700,0.79346900,-5.18806700,-0.19739100,0.05861900,0.99403367
1463,-3.17387700,0.79346900,-5.18806700,-0.19739100,0.05861900,0.99403367
1464,-4.51667000,0.54932500,-5.24910400,-0.07417100,0.01196300,1.00440990
1465,-4.51667000,0.54932500,-5.24910400,-0.07417100,0.01196300,1.00440990
1466,-5.98153700,0.06103600,-4.15045400,-0.24524300,0.07177800,0.96925306
1467,-5.98153700,0.06103600,-4.15045400,-0.24524300,0.07177800,0.96925306
1468,-3.11284000,1.52590200,-4.51667000,-0.18183900,0.11843400,0.98072786
1469,-4.02838200,3.11284000,-3.60112900,-0.11843400,-0.07656400,0.98707561
1470,-8.97230500,74.58609900,-0.79346900,0.31582500,0.07417100,0.95057602
1471,-9.15541300,82.70389900,-1.46486600,0.35410700,0.11245300,0.95545888
1472,-9.15541300,82.70389900,-1.46486600,0.35410700,0.11245300,0.95545888
1473,-9.64370200,90.69962600,-2.38040700,0.39119200,0.19978300,0.96144041
1474,-9.64370200,90.69962600,-2.38040700,0.39119200,0.19978300,0.96144041
1475,-11.16960400,98.69535400,-3.47905700,0.42708200,0.15312700,0.95680173
1476,-11.16960400,98.69535400,-3.47905700,0.42708200,0.15312700,0.95680173
1477,-13.36690300,107.30144200,-5.31014000,0.44143700,0.22610200,0.95204092
1478,-13.36690300,107.30144200,-5.31014000,0.44143700,0.22610200,0.95204092
1479,-14.77073300,116.88410800,-7.20225800,0.46656000,0.39478100,0.95606929
1480,-95.21629700,-6.71397000,145.75417700,2.03611500,3.59729600,0.78028531
1481,-95.21629700,-6.71397000,145.75417700,2.03611500,3.59729600,0.78028531
1482,-108.15594700,-2.31937100,141.66475900,1.80283500,3.43459800,0.81361102
1483,-108.15594700,-2.31937100,141.66475900,1.80283500,3.43459800,0.81361102
1484,-121.88906700,-0.54932500,135.92736700,1.44872800,3.18576600,0.84913408
1485,-121.88906700,-0.54932500,135.92736700,1.44872800,3.18576600,0.84913408
1486,-135.50011400,-1.52590200,129.64065000,1.15084800,2.92856000,0.89393449
1487,-135.50011400,-1.52590200,129.64065000,1.15084800,2.92856000,0.89393449
1488,-147.95147600,-5.00495900,123.59807700,0.90440800,2.67015800,0.93714806
1489,-171.20622600,-42.66422500,107.42351400,0.51680500,1.48461700,1.07301439
1490,-84.29083700,-270.32883200,186.03799500,-3.73606800,4.74575100,1.01588459
1491,-84.29083700,-270.32883200,186.03799500,-3.73606800,4.74575100,1.01588459
1492,-83.55840400,-266.72770300,192.38574800,-3.91312100,4.85102600,1.01026929
1493,-83.55840400,-266.72770300,192.38574800,-3.91312100,4.85102600,1.01026929
1494,-82.88700700,-262.76035700,198.85557300,-4.12606400,5.03047200,1.00538643
1495,-82.88700700,-262.76035700,198.85557300,-4.12606400,5.03047200,1.00538643
1496,-82.39871800,-258.18265100,205.32539900,-4.37968100,5.28050000,1.00062561
1497,-82.39871800,-258.18265100,205.32539900,-4.37968100,5.28050000,1.00062561
1498,-82.45975400,-253.11665500,211.91729600,-4.68234700,5.57239900,1.00001531
1499,-82.45975400,-253.11665500,211.91729600,-4.68234700,5.57239900,1.00001531
1500,-63.72167500,56.15320100,-40.03967300,-2.56249000,3.58054800,0.81239031
1501,-58.71671600,57.12977800,-32.10498200,-1.21664500,2.25145000,0.70240327
1502,-58.71671600,57.12977800,-32.10498200,-1.21664500,2.25145000,0.70240327
1503,-63.35545900,75.25749600,-21.66781100,0.13039700,4.89887800,0.91529714
1504,-63.35545900,75.25749600,-21.66781100,0.13039700,4.89887800,0.91529714
1505,-40.03967300,86.30502800,7.87365500,0.99054200,5.14531800,1.07045092
1506,-40.03967300,86.30502800,7.87365500,0.99054200,5.14531800,1.07045092
1507,-6.22568100,81.72732100,33.20363200,1.41403500,3.92628100,0.86903184
1508,-6.22568100,81.72732100,33.20363200,1.41403500,3.92628100,0.86903184
1509,-175.47875200,182.61997400,18.92118700,6.86441100,-2.79218100,0.56849010
1510,-6.89707800,5.37117600,-8.05676400,-0.11723800,0.28950600,0.99989316
1511,-8.17883600,4.69977900,-9.15541300,-0.04904900,0.35889200,0.99244673
1512,-8.17883600,4.69977900,-9.15541300,-0.04904900,0.35889200,0.99244673
1513,-9.64370200,4.15045400,-9.82681000,-0.02512200,0.33257300,0.98255898
1514,-9.64370200,4.15045400,-9.82681000,-0.02512200,0.33257300,0.98255898
1515,-10.80338800,4.15045400,-10.68131500,0.05024500,0.44861500,0.98170439
1516,-10.80338800,4.15045400,-10.68131500,0.05024500,0.44861500,0.98170439
1517,-10.74235100,4.51667000,-10.49820700,0.01674800,0.47014900,0.98561071
1518,-10.74235100,4.51667000,-10.49820700,0.01674800,0.47014900,0.98561071
1519,-10.43717100,5.31014000,-9.76577400,-0.03469300,0.37683700,0.99232469
1520,0.00000000,1.58693800,-1.15968600,0.00837400,-0.05144100,0.99134816
1521,0.00000000,1.58693800,-1.15968600,0.00837400,-0.05144100,0.99134816
1522,0.00000000,2.07522700,-2.31937100,0.00478500,0.06220800,0.98255898
1523,0.00000000,2.07522700,-2.31937100,0.00478500,0.06220800,0.98255898
1524,0.18310800,2.01419100,-1.89211900,-0.04306700,0.05981500,0.98622112
1525,0.18310800,2.01419100,-1.89211900,-0.04306700,0.05981500,0.98622112
1526,1.28175800,2.38040700,-1.46486600,0.01674800,0.03469300,0.99574276
1527,1.28175800,2.38040700,-1.46486600,0.01674800,0.03469300,0.99574276
1528,1.40383000,3.11284000,-1.40383000,0.08374200,0.03230000,0.98939500
1529,1.46486600,7.38536700,0.42725300,-0.00598200,-0.14236100,0.99024949
1530,-0.73243300,32.28809000,-0.67139700,-0.30505800,0.06579700,0.97364765
1531,-0.73243300,32.28809000,-0.67139700,-0.30505800,0.06579700,0.97364765
1532,-1.09865000,33.38674000,-0.36621700,-0.31702100,0.02033700,0.97328143
1533,-1.09865000,33.38674000,-0.36621700,-0.31702100,0.02033700,0.97328143
1534,-1.83108300,34.60746200,0.00000000,-0.37085500,0.00837400,0.96754408
1535,-1.83108300,34.60746200,0.00000000,-0.37085500,0.00837400,0.96754408
1536,-1.89211900,35.76714700,0.48828900,-0.41631500,-0.04067400,0.96803235
1537,-1.89211900,35.76714700,0.48828900,-0.41631500,-0.04067400,0.96803235
1538,-1.09865000,36.62165300,0.67139700,-0.41751100,0.01435600,0.96803235
1539,-1.09865000,36.62165300,0.67139700,-0.41751100,0.01435600,0.96803235
1540,-70.49668100,217.34950800,-64.51514500,-7.04864300,0.87330400,1.16127265
1541,-70.49668100,217.34950800,-64.51514500,-7.04864300,0.87330400,1.16127265
1542,-76.53925400,211.00175500,-63.47753100,-7.57621400,1.06471400,1.19960327
1543,-76.53925400,211.00175500,-63.47753100,-7.57621400,1.06471400,1.19960327
1544,-84.84016200,200.13733100,-62.92820600,-8.37654400,1.56955500,1.25502408
1545,-84.84016200,200.13733100,-62.92820600,-8.37654400,1.56955500,1.25502408
1546,-94.91111600,182.74204600,-60.24261800,-8.81439200,2.02654500,1.36574347
1547,-94.91111600,182.74204600,-60.24261800,-8.81439200,2.02654500,1.36574347
1548,-108.15594700,156.49652900,-55.17662300,-9.77143800,2.26102100,1.41139847
1549,-176.39429300,-12.08514500,1.15968600,-9.17567700,-0.79913300,1.09095898
1550,-65.00343300,-100.83161700,11.16960400,0.27874000,1.27167500,0.85719082
1551,-65.00343300,-100.83161700,11.16960400,0.27874000,1.27167500,0.85719082
1552,-58.71671600,-103.70031300,18.73807900,0.46416700,1.15802500,0.83436337
1553,-58.71671600,-103.70031300,18.73807900,0.46416700,1.15802500,0.83436337
1554,-51.27031400,-105.83657600,26.36759000,0.64600600,1.10658400,0.81763939
1555,-51.27031400,-105.83657600,26.36759000,0.64600600,1.10658400,0.81763939
1556,-42.90837000,-107.48455000,33.99710100,0.85775200,1.09581800,0.79639888
1557,-42.90837000,-107.48455000,33.99710100,0.85775200,1.09581800,0.79639888
1558,-34.72953400,-108.40009200,41.13832300,1.04437600,1.15084800,0.77357133
1559,-34.72953400,-108.40009200,41.13832300,1.04437600,1.15084800,0.77357133
1560,4.39459800,-138.06363000,83.00907900,-1.05633900,-1.59707000,0.76038755
1561,4.94392300,-138.24673800,72.87708900,-1.23100000,-1.53964800,0.76844439
1562,5.24910400,-138.61295500,62.98924200,-1.36379000,-1.42001700,0.76673531
1563,5.24910400,-138.61295500,62.98924200,-1.36379000,-1.42001700,0.76673531
1564,5.37117600,-139.04020800,53.71175700,-1.43437200,-1.26449700,0.75709163
1565,5.37117600,-139.04020800,53.71175700,-1.43437200,-1.26449700,0.75709163
1566,6.04257300,-139.22331600,45.34981300,-1.42480200,-1.09701400,0.74634929
1567,6.04257300,-139.22331600,45.34981300,-1.42480200,-1.09701400,0.74634929
1568,16.60181600,-122.43839200,14.03830000,-1.74780500,-0.14834200,0.69129469
1569,16.60181600,-122.43839200,14.03830000,-1.74780500,-0.14834200,0.69129469
1570,3.11284000,16.84596000,1.15968600,-0.41990400,0.83621900,1.00392153
1571,3.54009300,14.52658900,1.95315500,0.19140900,1.36977200,0.93641561
1572,3.54009300,14.52658900,1.95315500,0.19140900,1.36977200,0.93641561
1573,1.89211900,16.05249100,2.44144400,0.34932200,1.46667300,0.97010755
1574,1.89211900,16.05249100,2.44144400,0.34932200,1.46667300,0.97010755
1575,-1.52590200,18.24979000,2.99076800,0.10049000,1.02045000,1.01112388
1576,-1.52590200,18.24979000,2.99076800,0.10049000,1.02045000,1.01112388
1577,-6.71397000,18.12771800,2.86869600,-0.41392200,0.46895200,1.02052337
1578,-6.71397000,18.12771800,2.86869600,-0.41392200,0.46895200,1.02052337
1579,-11.84100100,15.86938300,1.03761300,-0.70821400,-0.07417100,1.06691082
1580,-5.67635600,-3.47905700,-4.69977900,0.15791300,-0.07776000,1.01112388
1581,-6.59189700,-3.29594900,-4.15045400,0.18183900,-0.11604200,1.00721755
1582,-6.59189700,-3.29594900,-4.15045400,0.18183900,-0.11604200,1.00721755
1583,-5.73739200,-3.05180400,-3.78423700,0.22012100,-0.12920100,1.00746163
1584,-5.73739200,-3.05180400,-3.78423700,0.22012100,-0.12920100,1.00746163
1585,-4.51667000,-2.25833500,-3.78423700,0.12680900,0.01674800,1.00306704
1586,-4.51667000,-2.25833500,-3.78423700,0.12680900,0.01674800,1.00306704
1587,-4.08941800,-2.07522700,-3.35698500,0.05981500,-0.02871100,1.01466388
1588,-4.08941800,-2.07522700,-3.35698500,0.05981500,-0.02871100,1.01466388
1589,-0.30518000,-0.97657700,-2.38040700,-0.06579700,0.07656400,1.04359500
1590,3.41802100,12.20721800,2.07522700,0.00358900,-0.09929400,1.00172429
1591,3.41802100,11.71892900,2.01419100,-0.04306700,-0.05383400,1.00257878
1592,3.41802100,11.71892900,2.01419100,-0.04306700,-0.05383400,1.00257878
1593,3.11284000,11.04753200,1.83108300,-0.01914100,-0.01196300,1.00404367
1594,3.11284000,11.04753200,1.83108300,-0.01914100,-0.01196300,1.00404367
1595,2.68558800,10.43717100,1.58693800,-0.00957000,0.02512200,1.00074765
1596,2.68558800,10.43717100,1.58693800,-0.00957000,0.02512200,1.00074765
1597,2.50248000,10.00991800,1.40383000,-0.00478500,0.01076700,0.99745173
1598,2.50248000,10.00991800,1.40383000,-0.00478500,0.01076700,0.99745173
1599,2.31937100,9.64370200,1.28175800,-0.05742300,-0.00239300,1.00209051
1600,3.47905700,29.54146600,2.68558800,-0.03708600,-0.04546000,0.99354541
