Packet number,Gyroscope X (deg/s),Gyroscope Y (deg/s),Gyroscope Z (deg/s),Accelerometer X (g),Accelerometer Y (g),Accelerometer Z (g)
0,-0.183108,-0.427253,0.244144,0.142361,-0.157913,9.870732
1,-0.183108,-0.427253,0.244144,0.142361,-0.157913,9.870732
2,-0.183108,-0.427253,0.305180,0.141164,-0.156716,9.875517
3,-0.183108,-0.427253,0.305180,0.141164,-0.156716,9.875517
4,-0.122072,-0.427253,0.305180,0.153127,-0.162698,9.849198
5,-0.122072,-0.427253,0.305180,0.153127,-0.162698,9.849198
6,-0.122072,-0.427253,0.366217,0.165090,-0.161501,9.839628
7,-0.122072,-0.427253,0.366217,0.165090,-0.161501,9.839628
8,-0.183108,-0.427253,0.366217,0.165090,-0.138772,9.864750
9,-0.183108,-0.427253,0.366217,0.165090,-0.138772,9.864750
10,0.366217,0.305180,0.305180,0.156716,-0.149538,9.846806
11,0.366217,0.305180,0.305180,0.136379,-0.187820,9.862358
12,0.366217,0.305180,0.305180,0.136379,-0.187820,9.862358
13,0.427253,0.183108,0.366217,0.136379,-0.159109,9.885087
14,0.427253,0.183108,0.366217,0.136379,-0.159109,9.885087
15,0.427253,0.061036,0.366217,0.149538,-0.155520,9.839628
16,0.427253,0.061036,0.366217,0.149538,-0.155520,9.839628
17,0.366217,0.122072,0.366217,0.178250,-0.145949,9.864750
18,0.366217,0.122072,0.366217,0.178250,-0.145949,9.864750
19,0.305180,0.122072,0.366217,0.177053,-0.163894,9.857572
20,0.061036,-0.183108,0.183108,0.153127,-0.144753,9.845609
21,0.061036,-0.122072,0.183108,0.154324,-0.143557,9.859965
22,0.061036,-0.122072,0.183108,0.154324,-0.143557,9.859965
23,0.000000,-0.122072,0.183108,0.136379,-0.159109,9.850394
24,0.000000,-0.061036,0.183108,0.163894,-0.172268,9.836039
25,0.000000,-0.061036,0.244144,0.171072,-0.173465,9.836039
26,0.000000,-0.061036,0.244144,0.171072,-0.173465,9.836039
27,0.000000,0.000000,0.244144,0.151931,-0.162698,9.852787
28,0.000000,0.000000,0.244144,0.151931,-0.162698,9.852787
29,0.000000,0.061036,0.366217,0.148342,-0.166287,9.844413
30,0.000000,-0.122072,0.244144,0.154324,-0.151931,9.836039
31,0.000000,-0.122072,0.244144,0.154324,-0.151931,9.836039
32,0.061036,-0.122072,0.244144,0.159109,-0.163894,9.845609
33,0.061036,-0.122072,0.244144,0.159109,-0.163894,9.845609
34,0.061036,-0.183108,0.305180,0.142361,-0.153127,9.844413
35,0.061036,-0.183108,0.305180,0.142361,-0.153127,9.844413
36,0.061036,-0.122072,0.366217,0.136379,-0.136379,9.821683
37,0.061036,-0.122072,0.366217,0.136379,-0.136379,9.821683
38,0.061036,-0.122072,0.366217,0.144753,-0.124416,9.839628
39,0.061036,-0.122072,0.366217,0.144753,-0.124416,9.839628
40,-0.061036,-0.366217,0.244144,0.223709,-0.166287,9.824076
41,-0.061036,-0.366217,0.244144,0.223709,-0.166287,9.824076
42,0.061036,-0.122072,0.244144,0.220121,-0.153127,9.827665
43,0.061036,-0.122072,0.244144,0.220121,-0.153127,9.827665
44,0.305180,0.061036,0.305180,0.215335,-0.154324,9.833646
45,0.305180,0.061036,0.305180,0.215335,-0.154324,9.833646
46,0.488289,0.366217,0.305180,0.194998,-0.159109,9.848002
47,0.488289,0.366217,0.305180,0.194998,-0.159109,9.848002
48,0.732433,0.732433,0.427253,0.141164,-0.179446,9.861161
49,0.732433,0.732433,0.427253,0.141164,-0.179446,9.861161
50,0.244144,0.061036,0.305180,0.149538,-0.166287,9.842020
51,0.244144,0.000000,0.366217,0.145949,-0.154324,9.826468
52,0.305180,-0.061036,0.305180,0.130397,-0.125612,9.848002
53,0.305180,-0.061036,0.305180,0.130397,-0.125612,9.848002
54,0.183108,-0.122072,0.305180,0.151931,-0.147146,9.839628
55,0.183108,-0.122072,0.305180,0.151931,-0.147146,9.839628
56,0.061036,-0.183108,0.244144,0.155520,-0.165090,9.876713
57,0.061036,-0.183108,0.244144,0.155520,-0.165090,9.876713
58,0.061036,-0.122072,0.244144,0.162698,-0.157913,9.818094
59,0.061036,-0.122072,0.244144,0.162698,-0.157913,9.818094
60,0.793469,1.098650,0.061036,0.106471,-0.133986,9.855180
61,0.793469,1.098650,0.061036,0.106471,-0.133986,9.855180
62,0.610361,0.854505,0.061036,0.132790,-0.145949,9.868339
63,0.610361,0.854505,0.061036,0.132790,-0.145949,9.868339
64,0.671397,0.732433,0.061036,0.137575,-0.147146,9.852787
65,0.671397,0.732433,0.061036,0.137575,-0.147146,9.852787
66,0.793469,0.732433,0.122072,0.142361,-0.162698,9.819290
67,0.793469,0.732433,0.122072,0.142361,-0.162698,9.819290
68,0.671397,0.305180,0.183108,0.142361,-0.138772,9.828861
69,0.671397,0.305180,0.183108,0.142361,-0.138772,9.828861
70,-0.671397,-0.549325,0.366217,0.171072,-0.178250,9.803738
71,-0.793469,-0.488289,0.366217,0.150735,-0.132790,9.830057
72,-0.793469,-0.488289,0.366217,0.150735,-0.132790,9.830057
73,-0.061036,-0.427253,0.427253,0.191409,-0.147146,9.816898
74,-0.061036,-0.427253,0.427253,0.191409,-0.147146,9.816898
75,0.000000,-0.549325,0.427253,0.186624,-0.128005,9.825272
76,0.000000,-0.549325,0.427253,0.186624,-0.128005,9.825272
77,-0.244144,-0.488289,0.366217,0.169876,-0.135183,9.842020
78,-0.244144,-0.488289,0.366217,0.169876,-0.135183,9.842020
79,-0.427253,-0.549325,0.366217,0.181839,-0.153127,9.816898
80,0.671397,0.610361,0.549325,0.178250,-0.147146,9.850394
81,0.671397,0.610361,0.549325,0.178250,-0.147146,9.850394
82,0.549325,0.610361,0.549325,0.178250,-0.157913,9.833646
83,0.549325,0.610361,0.549325,0.178250,-0.157913,9.833646
84,0.427253,0.549325,0.549325,0.166287,-0.167483,9.813309
85,0.427253,0.549325,0.549325,0.166287,-0.167483,9.813309
86,0.366217,0.549325,0.549325,0.147146,-0.147146,9.819290
87,0.366217,0.549325,0.549325,0.147146,-0.147146,9.819290
88,0.427253,0.610361,0.549325,0.119631,-0.142361,9.840824
89,0.061036,0.183108,0.366217,0.139968,-0.142361,9.838431
90,0.000000,0.305180,0.122072,0.224906,-0.142361,9.804935
91,0.000000,0.305180,0.122072,0.224906,-0.142361,9.804935
92,0.000000,0.610361,0.122072,0.215335,-0.144753,9.826468
93,0.000000,0.610361,0.122072,0.215335,-0.144753,9.826468
94,0.061036,0.854505,0.183108,0.177053,-0.147146,9.818094
95,0.061036,0.854505,0.183108,0.177053,-0.147146,9.818094
96,0.305180,1.037613,0.305180,0.145949,-0.151931,9.846806
97,0.305180,1.037613,0.305180,0.145949,-0.151931,9.846806
98,0.427253,1.159686,0.366217,0.132790,-0.145949,9.819290
99,0.427253,1.159686,0.366217,0.132790,-0.145949,9.819290
100,-0.061036,-0.122072,0.366217,0.113649,-0.180642,9.801346
101,0.305180,-0.183108,0.366217,0.118434,-0.147146,9.864750
102,0.305180,-0.183108,0.366217,0.118434,-0.147146,9.864750
103,0.427253,-0.366217,0.366217,0.156716,-0.129201,9.851591
104,0.427253,-0.366217,0.366217,0.156716,-0.129201,9.851591
105,-0.061036,-0.549325,0.305180,0.175857,-0.143557,9.856376
106,-0.061036,-0.549325,0.305180,0.175857,-0.143557,9.856376
107,-0.488289,-0.549325,0.244144,0.163894,-0.137575,9.844413
108,0.183108,-0.305180,0.366217,0.157913,-0.123220,9.834842
109,-0.183108,-0.366217,0.427253,0.174661,-0.133986,9.803738
110,0.610361,0.122072,0.366217,0.157913,-0.102882,9.842020
111,0.366217,0.122072,0.305180,0.143557,-0.129201,9.864750
112,0.366217,0.122072,0.305180,0.143557,-0.129201,9.864750
113,0.183108,0.000000,0.305180,0.126809,-0.165090,9.838431
114,0.183108,0.000000,0.305180,0.126809,-0.165090,9.838431
115,0.122072,-0.122072,0.305180,0.118434,-0.168679,9.828861
116,0.122072,-0.122072,0.305180,0.118434,-0.168679,9.828861
117,0.000000,0.000000,0.366217,0.095705,-0.191409,9.814505
118,0.000000,0.000000,0.366217,0.095705,-0.191409,9.814505
119,0.000000,0.061036,0.488289,0.062208,-0.217728,9.889873
120,-0.305180,-2.258335,0.183108,0.135183,-0.278740,9.900639
121,-0.366217,-2.624552,0.000000,0.147146,-0.184231,9.869535
122,-0.366217,-2.624552,0.000000,0.147146,-0.184231,9.869535
123,0.671397,-2.624552,0.488289,0.181839,-0.151931,9.836039
124,0.671397,-2.624552,0.488289,0.181839,-0.151931,9.836039
125,2.014191,-2.380407,0.671397,0.216532,-0.083742,9.812113
126,2.014191,-2.380407,0.671397,0.216532,-0.083742,9.812113
127,1.953155,-2.197299,0.671397,0.215335,-0.058619,9.815702
128,-0.305180,-2.685588,0.427253,0.156716,-0.178250,9.808524
129,0.244144,-2.624552,0.366217,0.116042,-0.160305,9.865946
130,1.525902,-1.892119,1.159686,0.214139,-0.174661,9.909014
131,1.098650,-2.258335,1.586938,0.272758,-0.228495,9.785794
132,1.098650,-2.258335,1.586938,0.272758,-0.228495,9.785794
133,2.014191,-1.831083,1.403830,0.288310,-0.197391,9.743923
134,2.014191,-1.831083,1.403830,0.288310,-0.197391,9.743923
135,3.479057,-1.159686,1.281758,0.258402,-0.129201,9.733156
136,3.479057,-1.159686,1.281758,0.258402,-0.129201,9.733156
137,4.028382,-0.549325,1.464866,0.222513,-0.110060,9.906621
138,4.028382,-0.549325,1.464866,0.222513,-0.110060,9.906621
139,3.418021,-0.732433,1.831083,0.202176,-0.130397,9.909014
140,4.028382,1.037613,1.770047,0.233280,-0.153127,9.903032
141,3.418021,0.793469,1.831083,0.086134,-0.222513,10.058552
142,3.418021,0.793469,1.831083,0.086134,-0.222513,10.058552
143,3.967346,0.183108,1.098650,0.114846,-0.131594,10.031037
144,3.967346,0.183108,1.098650,0.114846,-0.131594,10.031037
145,3.418021,-0.915541,1.403830,0.180642,-0.098097,9.846806
146,2.929732,-1.464866,1.525902,0.240458,-0.082545,9.808524
147,2.929732,-1.464866,1.525902,0.240458,-0.082545,9.808524
148,3.112840,-1.342794,1.525902,0.284721,-0.113649,9.852787
149,4.333562,-2.502480,1.525902,0.204569,-0.116042,9.932940
150,-0.610361,12.390326,-4.089418,0.236869,0.074171,9.955669
151,-0.610361,12.390326,-4.089418,0.236869,0.074171,9.955669
152,-0.244144,12.268254,-3.723201,0.214139,-0.010767,9.808524
153,-0.244144,12.268254,-3.723201,0.214139,-0.010767,9.808524
154,0.305180,13.000687,-4.211490,0.295488,0.033497,9.830057
155,0.305180,13.000687,-4.211490,0.295488,0.033497,9.830057
156,-0.183108,14.099336,-3.845274,0.315825,0.058619,9.910210
157,-0.183108,14.099336,-3.845274,0.315825,0.058619,9.910210
158,-0.305180,15.808347,-2.868696,0.299077,-0.120827,9.728371
159,-0.305180,15.808347,-2.868696,0.299077,-0.120827,9.728371
160,6.103609,-228.091859,41.809720,1.972711,0.211746,14.689458
161,19.409476,-241.519799,49.256123,1.845902,0.112453,14.145138
162,19.409476,-241.519799,49.256123,1.845902,0.112453,14.145138
163,35.523003,-252.811475,57.434958,1.619800,0.040674,13.554162
164,35.523003,-252.811475,57.434958,1.619800,0.040674,13.554162
165,51.331350,-262.333104,65.796902,1.392502,0.061012,13.123491
166,51.331350,-262.333104,65.796902,1.392502,0.061012,13.123491
167,63.843748,-270.572976,73.670558,1.116155,0.198587,12.830396
168,72.083619,-278.080415,81.116960,0.813489,0.366070,12.607883
169,75.928893,-316.105898,104.371710,-1.122136,0.544320,12.527730
170,69.214923,-150.576028,16.235599,-18.185068,-4.068641,-2.489516
171,62.684062,-120.180056,-5.798428,-18.258042,-3.206104,-2.946505
172,62.684062,-120.180056,-5.798428,-18.258042,-3.206104,-2.946505
173,52.735180,-93.385214,-27.344167,-18.017584,-2.250254,-3.228833
174,52.735180,-93.385214,-27.344167,-18.017584,-2.250254,-3.228833
175,40.161746,-69.275959,-46.936751,-17.523510,-1.350631,-3.475273
176,40.161746,-69.275959,-46.936751,-17.523510,-1.350631,-3.475273
177,25.329976,-45.654994,-63.599603,-16.858363,-0.556283,-3.799472
178,25.329976,-45.654994,-63.599603,-16.858363,-0.556283,-3.799472
179,11.779965,-21.057450,-75.989929,-16.147756,0.023926,-4.078212
180,-0.488289,27.344167,-3.845274,-0.287114,0.565853,9.895854
181,-2.807660,26.245518,-4.150454,-0.123220,0.413922,9.856376
182,-2.807660,26.245518,-4.150454,-0.123220,0.413922,9.856376
183,-2.136263,26.611734,-3.967346,0.008374,0.227298,9.684108
184,-0.732433,28.747997,-3.479057,0.032300,0.125612,9.734353
185,-0.732433,28.747997,-3.479057,0.032300,0.125612,9.734353
186,1.586938,30.579080,-3.295949,-0.116042,0.258402,9.717604
187,1.586938,30.579080,-3.295949,-0.116042,0.258402,9.717604
188,1.647974,40.039673,-2.197299,0.114846,0.144753,9.704445
189,1.647974,40.039673,-2.197299,0.114846,0.144753,9.704445
190,-10.070954,99.855039,-91.187915,-7.902806,0.777600,16.875111
191,-10.070954,99.855039,-91.187915,-7.902806,0.777600,16.875111
192,8.239872,85.633631,-78.614481,-6.548586,0.679503,14.806696
193,8.239872,85.633631,-78.614481,-6.548586,0.679503,14.806696
194,9.277485,83.924620,-69.764248,-4.574679,0.657969,12.545675
195,9.277485,83.924620,-69.764248,-4.574679,0.657969,12.545675
196,6.286717,96.375982,-64.759289,-2.836445,0.803919,10.964157
197,6.286717,96.375982,-64.759289,-2.836445,0.803919,10.964157
198,5.920500,118.471046,-62.317845,-1.589892,1.052750,10.599283
199,7.690547,143.617914,-61.280232,-1.065910,1.232197,10.838544
200,68.726635,-443.732357,82.398718,-3.470488,0.185428,10.092049
201,68.726635,-443.732357,82.398718,-3.470488,0.185428,10.092049
202,69.275959,-456.672007,82.093538,-3.615241,0.302666,9.569262
203,69.275959,-456.672007,82.093538,-3.615241,0.302666,9.569262
204,68.848707,-467.170214,81.361105,-3.641559,0.348125,9.027335
205,68.848707,-467.170214,81.361105,-3.641559,0.348125,9.027335
206,68.299382,-475.165942,79.468986,-3.448954,0.361285,8.660069
207,68.299382,-475.165942,79.468986,-3.448954,0.361285,8.660069
208,66.712444,-481.330587,76.905470,-3.147485,0.318218,8.317925
209,56.153201,-470.405127,51.331350,-3.639167,-0.224906,8.140871
210,70.679789,49.073014,-82.215610,-15.965917,1.498973,-0.391192
211,70.679789,49.073014,-82.215610,-15.965917,1.498973,-0.391192
212,57.495995,57.801175,-69.459068,-15.020835,1.899736,0.468952
213,57.495995,57.801175,-69.459068,-15.020835,1.899736,0.468952
214,38.086519,63.294423,-61.402304,-13.587659,2.092341,1.067106
215,38.086519,63.294423,-61.402304,-13.587659,2.092341,1.067106
216,12.390326,67.750057,-56.397345,-11.710652,2.001422,1.463084
217,12.390326,67.750057,-56.397345,-11.710652,2.001422,1.463084
218,-11.963073,74.097810,-53.162432,-9.467576,1.906914,1.794461
219,-11.963073,74.097810,-53.162432,-9.467576,1.906914,1.794461
220,7.629511,35.645075,3.295949,0.202176,-0.061012,9.591992
221,7.629511,35.645075,3.295949,0.202176,-0.061012,9.591992
222,8.667124,39.978637,3.967346,0.159109,0.055030,9.760671
223,8.667124,39.978637,3.967346,0.159109,0.055030,9.760671
224,7.019150,43.335622,4.211490,0.179446,0.083742,9.816898
225,7.019150,43.335622,4.211490,0.179446,0.083742,9.816898
226,5.127031,46.936751,4.638743,0.190213,0.063404,9.682911
227,5.127031,46.936751,4.638743,0.190213,0.063404,9.682911
228,9.887846,93.812467,16.052491,0.641221,-0.550301,9.243867
229,12.024109,107.362478,18.005646,0.573031,-0.502449,9.018961
230,-34.424353,77.210651,-116.151675,-7.436246,-0.800330,18.136019
231,-9.887846,58.228428,-110.963607,-5.303230,-0.784778,16.098708
232,-9.887846,58.228428,-110.963607,-5.303230,-0.784778,16.098708
233,3.418021,49.500267,-106.202792,-3.532696,-0.538338,14.724150
234,3.418021,49.500267,-106.202792,-3.532696,-0.538338,14.724150
235,12.878614,49.744411,-101.503014,-2.472767,-0.270365,13.764712
236,12.878614,49.744411,-101.503014,-2.472767,-0.270365,13.764712
237,25.024796,54.383154,-97.230488,-1.856669,-0.070582,13.174932
238,25.024796,54.383154,-97.230488,-1.856669,-0.070582,13.174932
239,40.588998,60.364691,-94.789044,-1.397287,0.113649,12.732299
240,125.368124,-448.432136,37.293050,-3.036228,-3.798276,9.800150
241,125.368124,-448.432136,37.293050,-3.036228,-3.798276,9.800150
242,140.444038,-449.713893,29.297322,-3.006320,-3.965759,9.855180
243,140.444038,-449.713893,29.297322,-3.006320,-3.965759,9.855180
244,154.726482,-450.446326,21.301595,-2.963253,-4.134438,9.848002
245,154.726482,-450.446326,21.301595,-2.963253,-4.134438,9.848002
246,166.750591,-450.690471,13.122759,-2.987179,-4.224161,9.935332
247,166.750591,-450.690471,13.122759,-2.987179,-4.224161,9.935332
248,176.211185,-450.019074,4.516670,-3.084080,-4.248087,10.084871
249,214.480812,-446.112764,-47.180896,-4.723021,-3.517144,10.828974
