Packet number,Gyroscope X (deg/s),Gyroscope Y (deg/s),Gyroscope Z (deg/s),Accelerometer X (g),Accelerometer Y (g),Accelerometer Z (g)
0,-0.549325,-0.244144,0.000000,0.047852,-0.034693,9.802542
1,-0.549325,-0.244144,0.000000,0.047852,-0.034693,9.802542
2,-0.610361,-0.244144,0.000000,0.043067,-0.049049,9.798953
3,-0.610361,-0.244144,0.000000,0.043067,-0.049049,9.798953
4,-0.610361,-0.244144,0.000000,0.038282,-0.053834,9.785794
5,-0.610361,-0.244144,0.000000,0.038282,-0.053834,9.785794
6,-0.427253,-0.122072,0.061036,0.071778,-0.066993,9.797757
7,-0.427253,-0.122072,0.061036,0.071778,-0.066993,9.797757
8,-0.244144,0.000000,0.061036,0.063404,-0.084938,9.783401
9,-0.244144,0.000000,0.061036,0.063404,-0.084938,9.783401
10,-0.244144,-0.427253,0.000000,0.055030,-0.035889,9.796561
11,-0.244144,-0.427253,0.000000,0.055030,-0.035889,9.796561
12,-0.305180,-0.488289,-0.061036,0.040674,-0.025122,9.795364
13,-0.305180,-0.488289,-0.061036,0.040674,-0.025122,9.795364
14,-0.366217,-0.488289,-0.061036,0.038282,-0.056226,9.788186
15,-0.488289,-0.549325,0.000000,0.045460,-0.066993,9.776223
16,-0.488289,-0.549325,0.000000,0.045460,-0.066993,9.776223
17,-0.366217,-0.549325,0.000000,0.044263,-0.069386,9.773831
18,-0.366217,-0.549325,0.000000,0.044263,-0.069386,9.773831
19,-0.366217,-0.549325,0.061036,0.062208,-0.056226,9.794168
20,0.183108,1.464866,0.061036,0.004785,-0.051441,9.788186
21,0.183108,1.281758,0.061036,0.011963,-0.077760,9.812113
22,0.183108,1.281758,0.061036,0.011963,-0.077760,9.812113
23,0.183108,1.159686,0.000000,0.011963,-0.063404,9.792972
24,0.000000,0.610361,0.000000,0.004785,-0.047852,9.784598
25,0.000000,0.610361,0.000000,0.004785,-0.047852,9.784598
26,0.000000,0.549325,0.000000,0.014356,-0.080153,9.796561
27,0.000000,0.549325,0.000000,0.014356,-0.080153,9.796561
28,0.000000,0.427253,0.000000,0.011963,-0.090919,9.785794
29,0.000000,0.427253,0.000000,0.011963,-0.090919,9.785794
30,-0.610361,-0.366217,-0.061036,0.016748,-0.061012,9.773831
31,-0.610361,-0.366217,-0.061036,0.016748,-0.061012,9.773831
32,-0.305180,-0.305180,0.000000,0.004785,-0.045460,9.786990
33,-0.305180,-0.305180,0.000000,0.004785,-0.045460,9.786990
34,-0.305180,-0.305180,0.122072,0.016748,-0.062208,9.779812
35,-0.305180,-0.305180,0.122072,0.016748,-0.062208,9.779812
36,-0.122072,-0.305180,0.122072,0.001196,-0.084938,9.788186
37,-0.122072,-0.305180,0.122072,0.001196,-0.084938,9.788186
38,0.000000,-0.244144,0.183108,0.015552,-0.052638,9.742727
39,0.000000,-0.244144,0.183108,0.015552,-0.052638,9.742727
40,0.549325,-0.122072,0.366217,0.004785,-0.032300,9.776223
41,0.549325,-0.122072,0.366217,0.004785,-0.032300,9.776223
42,0.488289,-0.061036,0.305180,-0.021534,-0.010767,9.755886
43,0.488289,-0.061036,0.305180,-0.021534,-0.010767,9.755886
44,0.549325,-0.244144,0.244144,-0.020337,0.001196,9.830057
45,0.549325,-0.244144,0.244144,-0.020337,0.001196,9.830057
46,0.427253,-0.366217,0.244144,0.007178,-0.019141,9.767849
47,0.427253,-0.366217,0.244144,0.007178,-0.019141,9.767849
48,0.000000,-0.732433,0.122072,-0.007178,-0.004785,9.800150
49,0.000000,-0.732433,0.122072,-0.007178,-0.004785,9.800150
50,-0.061036,-0.671397,0.366217,0.026319,-0.014356,9.786990
51,-0.061036,-0.671397,0.366217,0.026319,-0.014356,9.786990
52,-0.061036,-0.610361,0.427253,0.033497,-0.010767,9.785794
53,-0.061036,-0.610361,0.427253,0.033497,-0.010767,9.785794
54,0.061036,-0.488289,0.427253,0.025122,-0.041871,9.796561
55,0.061036,-0.488289,0.427253,0.025122,-0.041871,9.796561
56,0.061036,-0.366217,0.366217,0.027515,-0.027515,9.778616
57,0.061036,-0.366217,0.366217,0.017945,-0.007178,9.789383
58,0.061036,-0.366217,0.366217,0.017945,-0.007178,9.789383
59,-0.061036,-0.427253,0.305180,0.008374,-0.002393,9.752297
60,0.549325,-1.831083,0.976577,0.027515,-0.033497,9.827665
61,0.366217,-2.136263,1.220722,0.005982,-0.095705,9.771438
62,0.366217,-2.136263,1.220722,0.005982,-0.095705,9.771438
63,0.732433,-2.197299,1.403830,0.068190,-0.068190,9.785794
64,0.732433,-2.197299,1.403830,0.068190,-0.068190,9.785794
65,2.136263,-1.647974,1.220722,0.050245,-0.004785,9.770242
66,2.136263,-1.647974,1.220722,0.050245,-0.004785,9.770242
67,2.014191,-1.281758,1.220722,0.025122,0.101686,9.795364
68,0.915541,-1.098650,0.793469,0.045460,0.062208,9.742727
69,0.000000,-0.915541,0.610361,-0.007178,0.057423,9.850394
70,-2.014191,-1.525902,-0.549325,0.043067,-0.084938,9.796561
71,-1.770047,-1.586938,-0.427253,0.040674,-0.094508,9.773831
72,-1.770047,-1.586938,-0.427253,0.040674,-0.094508,9.773831
73,-1.586938,-1.464866,-0.305180,0.047852,-0.104079,9.790579
74,-1.586938,-1.464866,-0.305180,0.047852,-0.104079,9.790579
75,-1.403830,-1.403830,-0.244144,0.027515,-0.081349,9.820487
76,-1.403830,-1.403830,-0.244144,0.027515,-0.081349,9.820487
77,-1.220722,-1.464866,-0.183108,0.021534,-0.078956,9.771438
78,-1.220722,-1.464866,-0.183108,0.021534,-0.078956,9.771438
79,-1.037613,-1.403830,-0.061036,0.045460,-0.071778,9.766653
80,1.525902,0.305180,0.793469,0.046656,-0.072975,9.781009
81,1.647974,0.244144,0.854505,0.051441,-0.046656,9.813309
82,1.464866,0.305180,0.854505,0.057423,-0.002393,9.826468
83,1.464866,0.305180,0.854505,0.057423,-0.002393,9.826468
84,1.159686,0.366217,0.854505,0.061012,-0.016748,9.833646
85,1.159686,0.366217,0.854505,0.061012,-0.016748,9.833646
86,0.854505,0.366217,0.854505,0.061012,-0.023926,9.830057
87,0.854505,0.366217,0.854505,0.061012,-0.023926,9.830057
88,0.732433,0.366217,0.732433,0.070582,-0.039478,9.809720
89,-0.061036,0.000000,0.122072,0.056226,0.039478,9.813309
90,-0.793469,0.244144,-0.366217,0.084938,0.022730,9.777420
91,-0.793469,0.244144,-0.366217,0.084938,0.022730,9.777420
92,-1.159686,0.366217,-0.488289,0.071778,0.026319,9.792972
93,-1.159686,0.366217,-0.488289,0.071778,0.026319,9.792972
94,-1.403830,0.549325,-0.549325,0.071778,0.000000,9.800150
95,-1.403830,0.549325,-0.549325,0.071778,0.000000,9.800150
96,-1.709010,0.610361,-0.610361,0.056226,-0.043067,9.777420
97,-1.709010,0.610361,-0.610361,0.056226,-0.043067,9.777420
98,-1.953155,0.732433,-0.671397,0.021534,-0.056226,9.788186
99,-1.953155,0.732433,-0.671397,0.021534,-0.056226,9.788186
100,-1.037613,-0.244144,-0.427253,0.023926,-0.003589,9.820487
101,-1.037613,-0.244144,-0.427253,0.023926,-0.003589,9.820487
102,-1.037613,-0.488289,-0.610361,0.045460,0.017945,9.801346
103,-1.037613,-0.488289,-0.610361,0.045460,0.017945,9.801346
104,-1.342794,-0.671397,-0.793469,0.032300,-0.004785,9.763064
105,-1.342794,-0.671397,-0.793469,0.032300,-0.004785,9.763064
106,-1.953155,-0.671397,-0.915541,0.035889,-0.022730,9.770242
107,-1.953155,-0.671397,-0.915541,0.035889,-0.022730,9.770242
108,-2.441444,-0.610361,-1.098650,0.010767,-0.052638,9.794168
109,-1.770047,-1.159686,-0.732433,0.049049,-0.143557,9.797757
110,2.319371,-1.403830,1.159686,0.025122,-0.083742,9.836039
111,2.319371,-1.403830,1.159686,0.025122,-0.083742,9.836039
112,2.380407,-1.586938,1.159686,0.057423,-0.055030,9.808524
113,2.380407,-1.586938,1.159686,0.057423,-0.055030,9.808524
114,2.014191,-1.586938,1.098650,0.069386,-0.068190,9.819290
115,2.014191,-1.586938,1.098650,0.069386,-0.068190,9.819290
116,1.586938,-1.586938,0.976577,0.058619,-0.061012,9.814505
117,1.586938,-1.586938,0.976577,0.058619,-0.061012,9.814505
118,1.403830,-1.403830,0.854505,0.075367,-0.096901,9.808524
119,1.403830,-1.281758,0.915541,0.072975,-0.142361,9.791775
120,0.305180,-1.647974,0.671397,0.145949,-0.116042,9.767849
121,0.305180,-0.976577,0.915541,0.136379,-0.104079,9.794168
122,0.305180,-0.976577,0.915541,0.136379,-0.104079,9.794168
123,0.793469,-0.549325,1.586938,0.088527,-0.270365,9.778616
124,0.793469,-0.549325,1.586938,0.088527,-0.270365,9.778616
125,1.770047,-0.366217,1.525902,0.096901,-0.217728,9.798953
126,1.770047,-0.366217,1.525902,0.096901,-0.217728,9.798953
127,2.380407,-0.244144,1.831083,0.120827,-0.196194,9.804935
128,2.319371,0.976577,1.892119,0.090919,-0.022730,9.820487
129,1.647974,1.037613,1.647974,0.125612,-0.023926,9.760671
130,0.305180,0.488289,0.366217,0.040674,-0.110060,9.786990
131,0.305180,0.488289,0.366217,0.040674,-0.110060,9.786990
132,0.732433,0.366217,0.549325,0.074171,-0.138772,9.810916
133,0.732433,0.366217,0.549325,0.074171,-0.138772,9.810916
134,1.159686,0.549325,0.732433,0.101686,-0.113649,9.758279
135,1.159686,0.549325,0.732433,0.101686,-0.113649,9.758279
136,1.403830,0.793469,0.854505,0.081349,-0.080153,9.767849
137,1.403830,0.793469,0.854505,0.081349,-0.080153,9.767849
138,1.586938,1.098650,0.854505,0.052638,-0.076564,9.778616
139,1.586938,1.098650,0.854505,0.052638,-0.076564,9.778616
140,0.183108,15.869383,-0.122072,0.197391,0.094508,9.739138
141,0.183108,15.869383,-0.122072,0.197391,0.094508,9.739138
142,0.244144,17.395285,-0.122072,0.229691,0.157913,9.775027
143,0.244144,17.395285,-0.122072,0.229691,0.157913,9.775027
144,0.122072,19.104295,0.000000,0.251225,0.128005,9.804935
145,0.122072,19.104295,0.000000,0.251225,0.128005,9.804935
146,-0.183108,21.057450,-0.061036,0.275151,0.155520,9.766653
147,-0.183108,21.057450,-0.061036,0.275151,0.155520,9.766653
148,-0.549325,23.193713,-0.122072,0.242850,0.263188,9.620703
149,-1.892119,47.241932,-0.732433,0.934316,-0.361285,9.558495
150,-68.970779,316.227970,-61.097124,-3.733675,0.265580,10.038215
151,-68.970779,316.227970,-61.097124,-3.733675,0.265580,10.038215
152,-73.121233,314.702068,-65.369650,-3.977722,0.284721,10.193735
153,-73.121233,314.702068,-65.369650,-3.977722,0.284721,10.193735
154,-77.454795,312.260624,-70.923934,-4.435908,0.141164,10.537075
155,-77.454795,312.260624,-70.923934,-4.435908,0.141164,10.537075
156,-80.567636,309.025711,-77.698940,-4.572287,0.677110,11.636481
157,-80.567636,309.025711,-77.698940,-4.572287,0.677110,11.636481
158,-80.445563,303.410391,-80.750744,-4.751733,1.222626,12.597116
159,-80.445563,303.410391,-80.750744,-4.751733,1.222626,12.597116
160,87.769894,-179.385061,11.779965,-0.964224,-1.971514,9.286934
161,97.596704,-179.690242,11.779965,-0.776403,-1.690382,8.945986
162,97.596704,-179.690242,11.779965,-0.776403,-1.690382,8.945986
163,104.798962,-178.347448,11.474784,-0.641221,-1.326705,8.809607
164,104.798962,-178.347448,11.474784,-0.641221,-1.326705,8.809607
165,110.475319,-176.516365,10.925460,-0.635239,-1.007291,8.575131
166,110.475319,-176.516365,10.925460,-0.635239,-1.007291,8.575131
167,113.160906,-174.319066,10.070954,-0.709410,-0.643613,8.599057
168,113.160906,-174.319066,10.070954,-0.709410,-0.643613,8.599057
169,76.295109,-178.774701,1.831083,-1.671241,0.474934,9.679323
170,19.165332,-168.764782,62.928206,-1.370968,-1.787283,5.129766
171,19.165332,-168.764782,62.928206,-1.370968,-1.787283,5.129766
172,12.268254,-160.830091,56.702525,-1.520507,-1.677223,5.370224
173,7.202258,-153.871977,52.063783,-1.772927,-1.536059,5.609485
174,7.202258,-153.871977,52.063783,-1.772927,-1.536059,5.609485
175,3.540093,-148.195621,49.134051,-1.964337,-1.364987,5.834391
176,3.540093,-148.195621,49.134051,-1.964337,-1.364987,5.834391
177,0.732433,-143.434806,47.974365,-2.155746,-1.217841,6.006659
178,0.732433,-143.434806,47.974365,-2.155746,-1.217841,6.006659
179,-1.953155,-139.223316,48.401617,-2.234702,-1.137688,6.133468
180,-62.623026,142.030976,-57.923247,-4.214591,-1.043180,9.149358
181,-22.888533,178.896773,-51.453422,-6.262669,-0.320610,14.568631
182,-22.888533,178.896773,-51.453422,-6.262669,-0.320610,14.568631
183,10.315099,190.371557,-53.101396,-10.716521,2.286143,19.599701
184,10.315099,190.371557,-53.101396,-10.716521,2.286143,19.599701
185,-0.915541,167.544060,-52.735180,-14.464552,3.542266,19.599701
186,-0.915541,167.544060,-52.735180,-14.464552,3.542266,19.599701
187,-50.598917,106.202792,-49.683375,-15.238563,3.182177,19.599701
188,-50.598917,106.202792,-49.683375,-15.238563,3.182177,19.599701
189,19.897765,-6.347753,5.981537,8.937612,-4.092567,1.180755
190,-6.286717,-3.601129,-4.699779,0.338555,0.058619,9.800150
191,-7.568475,-2.502480,-4.821851,0.294292,-0.062208,9.879106
192,-7.568475,-2.502480,-4.821851,0.294292,-0.062208,9.879106
193,-7.995727,-1.831083,-4.943923,0.119631,-0.093312,9.868339
194,-7.995727,-1.831083,-4.943923,0.119631,-0.093312,9.868339
195,-7.934691,-1.403830,-4.760815,0.081349,-0.241654,10.065730
196,-7.934691,-1.403830,-4.760815,0.081349,-0.241654,10.065730
197,-7.324331,-1.953155,-4.455634,-0.010767,-0.235673,9.997540
198,-7.324331,-1.953155,-4.455634,-0.010767,-0.235673,9.997540
199,-6.164645,-2.502480,-4.089418,0.045460,-0.220121,9.947295
200,2.624552,-2.807660,0.671397,0.232084,-0.167483,9.809720
201,2.624552,-2.807660,0.671397,0.232084,-0.167483,9.809720
202,2.868696,-2.624552,0.305180,0.271562,-0.046656,9.832450
203,2.868696,-2.624552,0.305180,0.271562,-0.046656,9.832450
204,2.319371,-2.258335,0.549325,0.202176,-0.062208,9.885087
205,2.319371,-2.258335,0.549325,0.202176,-0.062208,9.885087
206,2.136263,-2.563516,0.610361,0.171072,-0.123220,9.937725
207,2.136263,-2.563516,0.610361,0.171072,-0.123220,9.937725
208,1.831083,-3.051804,0.732433,0.208157,-0.203372,9.973614
209,5.249104,-2.197299,1.647974,0.362481,-0.108864,9.834842
210,12.939651,22.766461,5.493248,0.259599,-0.159109,9.942510
211,12.878614,23.315785,5.676356,0.314629,-0.086134,9.876713
212,12.878614,23.315785,5.676356,0.314629,-0.086134,9.876713
213,13.427939,23.743038,5.798428,0.337359,0.032300,9.830057
214,14.343481,24.475471,5.920500,0.340948,0.080153,9.844413
215,14.343481,24.475471,5.920500,0.340948,0.080153,9.844413
216,14.343481,25.574121,5.676356,0.315825,0.149538,9.881498
217,14.343481,25.574121,5.676356,0.315825,0.149538,9.881498
218,13.183795,26.550698,5.127031,0.271562,0.265580,9.806131
219,13.183795,26.550698,5.127031,0.271562,0.265580,9.806131
220,6.836042,232.791638,16.113527,-1.097014,0.220121,10.434192
221,12.390326,235.965515,17.395285,-1.793265,-0.020337,10.833759
222,12.390326,235.965515,17.395285,-1.793265,-0.020337,10.833759
223,19.165332,235.965515,18.677043,-2.350744,-0.323003,11.101732
224,19.165332,235.965515,18.677043,-2.350744,-0.323003,11.101732
225,24.475471,234.866865,19.775692,-2.934542,-0.196194,11.098143
226,24.475471,234.866865,19.775692,-2.934542,-0.196194,11.098143
227,29.846647,235.599298,22.400244,-4.243302,-0.617295,10.882808
228,17.822538,203.128099,-7.812619,-13.881950,-1.626978,18.455433
229,2.441444,160.830091,-17.883574,-14.405933,-2.027741,19.111009
230,12.085145,-5.127031,-28.992142,4.873756,5.032865,10.070515
231,12.085145,-5.127031,-28.992142,4.873756,5.032865,10.070515
232,10.559243,-6.225681,-17.151141,4.955105,5.079521,9.905425
233,10.559243,-6.225681,-17.151141,4.955105,5.079521,9.905425
234,8.850233,-7.690547,-5.554284,4.889308,5.025687,9.960455
235,8.850233,-7.690547,-5.554284,4.889308,5.025687,9.960455
236,8.056764,-10.070954,5.920500,4.709862,4.938357,10.154257
237,8.056764,-10.070954,5.920500,4.709862,4.938357,10.154257
238,8.361944,-14.038300,17.395285,4.408392,4.775659,10.424622
239,8.361944,-14.038300,17.395285,4.408392,4.775659,10.424622
240,51.575494,-209.109636,109.681849,-1.382931,-0.654380,4.980227
241,51.575494,-209.109636,109.681849,-1.382931,-0.654380,4.980227
242,46.082246,-204.409857,108.888380,-1.549218,-0.544320,4.866578
243,46.082246,-204.409857,108.888380,-1.549218,-0.544320,4.866578
244,39.368276,-199.221790,108.522164,-1.772927,-0.592172,4.705077
245,39.368276,-199.221790,108.522164,-1.772927,-0.592172,4.705077
246,32.410163,-193.484398,107.911803,-1.964337,-0.618491,4.525631
247,32.410163,-193.484398,107.911803,-1.964337,-0.618491,4.525631
248,24.719615,-187.747005,106.996262,-2.211972,-0.759655,4.371307
249,-12.024109,-151.613642,92.957961,-2.939327,-2.067219,3.622419
250,111.146716,132.387274,-13.427939,-4.465815,1.607837,14.519582
251,142.275120,124.086366,1.037613,-6.568923,3.806650,16.302080
252,142.275120,124.086366,1.037613,-6.568923,3.806650,16.302080
253,143.129625,99.000534,2.563516,-6.899104,4.639280,16.546126
254,143.129625,99.000534,2.563516,-6.899104,4.639280,16.546126
255,104.249638,59.571221,-3.051804,-5.160870,6.140645,15.017246
256,104.249638,59.571221,-3.051804,-5.160870,6.140645,15.017246
257,35.523003,14.282444,-4.516670,-2.325621,4.845045,10.496400
258,35.523003,14.282444,-4.516670,-2.325621,4.845045,10.496400
259,-30.090791,-12.329290,-14.160372,0.806311,4.066249,7.451798
260,3.234913,3.540093,3.967346,-0.084938,0.174661,9.797757
261,3.234913,3.540093,3.967346,-0.084938,0.174661,9.797757
262,2.746624,3.295949,4.028382,-0.069386,0.123220,9.802542
263,2.746624,3.295949,4.028382,-0.069386,0.123220,9.802542
264,2.624552,2.990768,4.028382,-0.077760,0.095705,9.771438
265,2.624552,2.990768,4.028382,-0.077760,0.095705,9.771438
266,2.807660,2.990768,4.028382,-0.081349,0.094508,9.766653
267,2.807660,2.990768,4.028382,-0.081349,0.094508,9.766653
268,3.234913,2.807660,3.967346,-0.090919,0.129201,9.758279
269,0.000000,0.244144,2.441444,0.017945,0.183035,9.626685
270,1.953155,6.408789,0.427253,0.050245,0.193802,9.670948
271,1.953155,6.408789,0.427253,0.050245,0.193802,9.670948
272,1.831083,7.141222,0.305180,0.026319,0.172268,9.731960
273,1.831083,7.141222,0.305180,0.026319,0.172268,9.731960
274,1.586938,7.446403,0.427253,0.011963,0.107668,9.693678
275,1.586938,7.446403,0.427253,0.011963,0.107668,9.693678
276,1.647974,7.629511,0.183108,0.023926,0.086134,9.663771
277,1.647974,7.629511,0.183108,0.023926,0.086134,9.663771
278,1.770047,7.751583,-0.061036,0.098097,0.117238,9.676930
279,1.770047,7.751583,-0.061036,0.098097,0.117238,9.676930
280,2.807660,61.280232,2.258335,0.087330,0.228495,9.593188
281,2.807660,61.280232,2.258335,0.087330,0.228495,9.593188
282,0.976577,66.285191,1.831083,0.189017,0.196194,9.615918
283,0.976577,66.285191,1.831083,0.189017,0.196194,9.615918
284,-0.244144,72.449836,1.403830,0.305058,0.161501,9.515428
285,-0.244144,72.449836,1.403830,0.305058,0.161501,9.515428
286,0.122072,79.835203,1.098650,0.417511,0.287114,9.474754
287,0.122072,79.835203,1.098650,0.417511,0.287114,9.474754
288,3.662165,143.984131,-3.723201,0.553890,0.117238,9.247456
289,3.662165,143.984131,-3.723201,0.553890,0.117238,9.247456
290,-14.526589,161.745632,-151.247425,-2.971627,0.919960,14.366455
291,-17.029068,155.275807,-150.331884,-2.918990,1.205878,14.862922
292,-17.029068,155.275807,-150.331884,-2.918990,1.205878,14.862922
293,-20.080873,146.852827,-148.378729,-2.875923,1.507347,15.281630
294,-20.080873,146.852827,-148.378729,-2.875923,1.507347,15.281630
295,-22.461280,136.842908,-145.326925,-2.798163,1.701149,15.761349
296,-22.461280,136.842908,-145.326925,-2.798163,1.701149,15.761349
297,-24.048219,124.757763,-141.359579,-2.853193,1.905718,16.190823
298,-24.048219,124.757763,-141.359579,-2.853193,1.905718,16.190823
299,-24.597543,110.292210,-136.659800,-2.752703,2.034919,16.456403
300,77.698940,-197.573816,157.412070,1.821976,-0.001196,7.527166
301,78.980697,-200.869764,155.519951,1.680812,-0.264384,7.196985
302,78.980697,-200.869764,155.519951,1.680812,-0.264384,7.196985
303,80.628672,-203.677424,152.651255,1.697560,-0.439045,6.856037
304,80.628672,-203.677424,152.651255,1.697560,-0.439045,6.856037
305,80.750744,-205.203326,149.050126,1.765750,-0.535946,6.591653
306,80.750744,-205.203326,149.050126,1.765750,-0.535946,6.591653
307,79.957275,-205.142290,144.777600,1.738235,-0.606528,6.438526
308,79.957275,-205.142290,144.777600,1.738235,-0.606528,6.438526
309,73.853666,-206.240940,120.546273,0.617295,-1.354220,6.981650
310,-9.582666,20.813306,-19.348440,-2.859174,-1.497777,-0.538338
311,-9.582666,20.813306,-19.348440,-2.859174,-1.497777,-0.538338
312,-48.950942,71.839475,-49.500267,-7.058213,-1.061125,-3.426224
313,-48.950942,71.839475,-49.500267,-7.058213,-1.061125,-3.426224
314,-62.195773,129.396506,-77.515831,-11.452250,-2.082771,-3.332912
315,-62.195773,129.396506,-77.515831,-11.452250,-2.082771,-3.332912
316,-55.664912,172.854200,-129.152361,-11.082591,-2.353136,6.372729
317,-55.664912,172.854200,-129.152361,-11.082591,-2.353136,6.372729
318,-78.065156,159.914549,-196.108949,-11.894884,3.909532,16.428888
319,-78.065156,159.914549,-196.108949,-11.894884,3.909532,16.428888
320,1.220722,-1.831083,1.220722,-0.142361,-0.104079,9.827665
321,2.014191,-1.403830,1.342794,-0.130397,-0.058619,9.842020
322,2.014191,-1.403830,1.342794,-0.130397,-0.058619,9.842020
323,2.807660,-1.037613,1.464866,-0.086134,0.010767,9.757082
324,2.807660,-1.037613,1.464866,-0.086134,0.010767,9.757082
325,3.173877,-0.427253,1.586938,-0.043067,0.124416,9.748708
326,3.173877,-0.427253,1.586938,-0.043067,0.124416,9.748708
327,2.868696,0.061036,1.647974,-0.053834,0.184231,9.753494
328,2.868696,0.061036,1.647974,-0.053834,0.184231,9.753494
329,1.098650,-0.061036,1.586938,-0.108864,0.063404,9.736745
330,-0.427253,6.897078,1.831083,-0.169876,0.081349,9.770242
331,-0.549325,6.530861,1.892119,-0.179446,0.056226,9.760671
332,-0.549325,6.530861,1.892119,-0.179446,0.056226,9.760671
333,-0.427253,6.286717,2.075227,-0.215335,0.070582,9.870732
334,-0.427253,6.286717,2.075227,-0.215335,0.070582,9.870732
335,0.366217,6.164645,2.441444,-0.270365,0.013159,9.868339
336,0.366217,6.164645,2.441444,-0.270365,0.013159,9.868339
337,1.281758,5.920500,2.929732,-0.264384,-0.027515,9.772634
338,1.281758,5.920500,2.929732,-0.264384,-0.027515,9.772634
339,2.319371,5.310140,3.173877,-0.248832,0.003589,9.766653
340,5.554284,24.231327,1.892119,-0.204569,0.168679,9.669752
341,5.676356,24.658579,1.831083,-0.143557,0.200980,9.675734
342,5.676356,24.658579,1.831083,-0.143557,0.200980,9.675734
343,5.249104,25.513085,1.709010,-0.090919,0.212943,9.642237
344,5.249104,25.513085,1.709010,-0.090919,0.212943,9.642237
345,4.394598,26.977951,1.525902,-0.076564,0.184231,9.615918
346,4.394598,26.977951,1.525902,-0.076564,0.184231,9.615918
347,3.784237,28.686961,1.220722,-0.126809,0.130397,9.637452
348,3.784237,28.686961,1.220722,-0.126809,0.130397,9.637452
349,5.615320,37.720302,3.112840,-0.252421,0.029908,9.594385
350,-0.488289,127.565423,-23.559930,-12.173623,-0.043067,17.378756
351,-0.488289,127.565423,-23.559930,-12.173623,-0.043067,17.378756
352,-9.826810,90.150301,-30.762188,-11.301515,-0.969009,14.986142
353,-9.826810,90.150301,-30.762188,-11.301515,-0.969009,14.986142
354,-20.752270,75.318532,-50.537881,-10.734466,-1.292012,12.772973
355,-20.752270,75.318532,-50.537881,-10.734466,-1.292012,12.772973
356,-42.236973,72.693980,-76.478218,-10.733269,-0.531160,14.137960
357,-42.236973,72.693980,-76.478218,-10.733269,-0.531160,14.137960
358,-68.665599,60.975052,-96.864271,-10.817011,-0.112453,15.861839
359,-68.665599,60.975052,-96.864271,-10.817011,-0.112453,15.861839
360,4.028382,-27.832456,59.571221,3.136718,4.042322,9.602759
361,8.728161,-32.471199,70.923934,2.781415,3.945422,10.057356
362,8.728161,-32.471199,70.923934,2.781415,3.945422,10.057356
363,13.183795,-39.795529,81.849393,2.465589,3.831772,10.478456
364,13.183795,-39.795529,81.849393,2.465589,3.831772,10.478456
365,17.212177,-49.439231,92.408637,2.214365,3.756405,10.718914
366,17.212177,-49.439231,92.408637,2.214365,3.756405,10.718914
367,20.630198,-60.547799,101.991302,2.010993,3.677449,10.917501
368,20.630198,-60.547799,101.991302,2.010993,3.677449,10.917501
369,35.706111,-135.927367,157.351034,1.579126,2.782611,10.367199
370,23.804074,-127.809567,-3.845274,-2.689299,-0.903212,4.359344
371,23.804074,-127.809567,-3.845274,-2.689299,-0.903212,4.359344
372,17.395285,-118.715190,-6.408789,-2.873530,-0.590976,4.534005
373,17.395285,-118.715190,-6.408789,-2.873530,-0.590976,4.534005
374,11.230640,-110.414282,-7.812619,-2.999142,-0.354107,4.766088
375,11.230640,-110.414282,-7.812619,-2.999142,-0.354107,4.766088
376,5.676356,-102.967880,-8.178836,-3.141503,-0.124416,4.985013
377,5.676356,-102.967880,-8.178836,-3.141503,-0.124416,4.985013
378,0.305180,-96.192874,-7.690547,-3.252760,0.002393,5.194366
379,0.305180,-96.192874,-7.690547,-3.252760,0.002393,5.194366
380,-106.446937,-16.357671,-15.869383,0.110060,2.331603,9.626685
381,-106.446937,-16.357671,-15.869383,0.110060,2.331603,9.626685
382,-169.314107,-33.020523,-24.170291,1.753787,-0.751281,7.295082
383,-169.314107,-33.020523,-24.170291,1.753787,-0.751281,7.295082
384,-177.859159,-21.484703,-28.747997,1.924858,-2.649821,7.009165
385,-177.859159,-21.484703,-28.747997,1.924858,-2.649821,7.009165
386,-130.189975,2.807660,-23.132677,0.575424,-4.339007,8.465071
387,-130.189975,2.807660,-23.132677,0.575424,-4.339007,8.465071
388,-45.410849,22.522316,-12.268254,-1.569555,-5.378598,9.779812
389,16.906996,4.943923,0.183108,1.006094,2.969235,9.026139
390,-0.244144,0.671397,1.403830,-0.253617,0.015552,9.740334
391,-0.244144,0.671397,1.403830,-0.253617,0.015552,9.740334
392,0.183108,0.549325,1.709010,-0.228495,0.000000,9.714015
393,0.183108,0.549325,1.709010,-0.228495,0.000000,9.714015
394,0.793469,0.366217,1.953155,-0.169876,0.057423,9.742727
395,0.793469,0.366217,1.953155,-0.169876,0.057423,9.742727
396,1.098650,0.549325,2.258335,-0.151931,0.068190,9.735549
397,1.098650,0.549325,2.258335,-0.151931,0.068190,9.735549
398,1.220722,1.037613,2.441444,-0.138772,0.106471,9.681715
399,1.220722,1.037613,2.441444,-0.138772,0.106471,9.681715
400,2.258335,15.686275,-0.305180,-0.301469,0.180642,9.639844
401,2.258335,15.686275,-0.305180,-0.301469,0.180642,9.639844
402,2.136263,15.564202,-0.427253,-0.260795,0.169876,9.708034
403,2.136263,15.564202,-0.427253,-0.260795,0.169876,9.708034
404,2.441444,15.014878,-0.427253,-0.248832,0.168679,9.633863
405,2.441444,15.014878,-0.427253,-0.248832,0.168679,9.633863
406,2.441444,14.770733,-0.122072,-0.290703,0.153127,9.617115
407,2.441444,14.770733,-0.122072,-0.290703,0.153127,9.617115
408,2.868696,14.892805,0.000000,-0.301469,0.166287,9.643433
409,2.990768,13.244831,-0.671397,-0.394781,0.185428,9.645826
410,4.333562,90.028229,0.061036,-0.180642,0.004785,9.316841
411,4.333562,90.028229,0.061036,-0.180642,0.004785,9.316841
412,4.089418,94.666972,0.183108,-0.096901,-0.037086,9.169696
413,4.089418,94.666972,0.183108,-0.096901,-0.037086,9.169696
414,3.723201,100.526436,-0.061036,-0.041871,-0.009570,9.117058
415,3.723201,100.526436,-0.061036,-0.041871,-0.009570,9.117058
416,3.723201,107.423514,-0.122072,-0.013159,0.025122,9.107488
417,3.723201,107.423514,-0.122072,-0.013159,0.025122,9.107488
418,3.295949,114.625772,0.427253,0.081349,0.092116,9.108684
419,3.295949,114.625772,0.427253,0.081349,0.092116,9.108684
420,-23.193713,207.461662,-138.918135,-8.182742,-0.665147,8.962734
421,-5.432212,217.776761,-130.556191,-8.829944,0.254813,9.541747
422,-5.432212,217.776761,-130.556191,-8.829944,0.254813,9.541747
423,5.859464,223.514153,-117.372396,-9.063224,-0.013159,9.974810
424,5.859464,223.514153,-117.372396,-9.063224,-0.013159,9.974810
425,12.878614,226.810101,-107.606622,-9.087150,0.666343,10.267906
426,12.878614,226.810101,-107.606622,-9.087150,0.666343,10.267906
427,20.080873,230.838483,-96.559091,-8.855067,1.155633,10.485634
428,20.080873,230.838483,-96.559091,-8.855067,1.155633,10.485634
429,-57.801175,234.256504,-76.173037,-5.085502,1.457102,11.320656
430,-70.618753,-123.048753,16.174563,3.602081,3.221656,9.819290
431,-69.336996,-129.030289,21.179522,3.312575,3.051780,9.937725
432,-69.336996,-129.030289,21.179522,3.312575,3.051780,9.937725
433,-66.651408,-135.866331,26.184482,3.055369,2.924971,10.013092
434,-66.651408,-135.866331,26.184482,3.055369,2.924971,10.013092
435,-62.684062,-143.617914,31.311513,2.794574,2.829267,10.129134
436,-62.684062,-143.617914,31.311513,2.794574,2.829267,10.129134
437,-57.801175,-151.796750,36.499580,2.521816,2.769451,10.211679
438,-52.307927,-160.463874,41.809720,2.186850,2.722795,10.328917
439,-52.307927,-160.463874,41.809720,2.186850,2.722795,10.328917
440,-7.080186,-293.278401,123.109789,-3.464506,2.913008,9.491502
441,-7.080186,-293.278401,123.109789,-3.464506,2.913008,9.491502
442,-9.033341,-290.470741,122.438392,-3.374783,2.897456,9.478343
443,-9.033341,-290.470741,122.438392,-3.374783,2.897456,9.478343
444,-10.498207,-287.357900,121.828031,-3.306593,2.843622,9.522606
445,-10.498207,-287.357900,121.828031,-3.306593,2.843622,9.522606
446,-10.864424,-283.756771,121.400778,-3.255152,2.790985,9.574047
447,-10.864424,-283.756771,121.400778,-3.255152,2.790985,9.574047
448,-10.254063,-279.850462,121.278706,-3.230030,2.741936,9.571655
449,-2.014191,-251.102464,123.231861,-3.234815,2.689299,10.132723
450,37.232013,-70.496681,146.486610,-10.860078,-1.289619,6.058100
451,45.716030,-71.473259,149.416342,-9.779812,-1.595874,4.955105
452,45.716030,-71.473259,149.416342,-9.779812,-1.595874,4.955105
453,54.139010,-67.444877,152.346075,-8.585898,-1.754983,3.775546
454,54.139010,-67.444877,152.346075,-8.585898,-1.754983,3.775546
455,60.486763,-58.777752,154.543374,-7.362075,-1.823172,2.767059
456,60.486763,-58.777752,154.543374,-7.362075,-1.823172,2.767059
457,63.111315,-46.143282,155.031662,-6.193283,-1.765750,1.969122
458,63.111315,-46.143282,155.031662,-6.193283,-1.765750,1.969122
459,62.684062,-30.212863,153.017472,-5.208722,-1.593481,1.319527
460,-25.818265,57.007706,-14.648661,-2.826874,2.944112,12.051600
461,-42.603189,40.222782,-16.479744,-2.009796,1.746609,11.807553
462,-42.603189,40.222782,-16.479744,-2.009796,1.746609,11.807553
463,-55.298695,26.306554,-20.080873,-1.002506,0.933120,10.916304
464,-55.298695,26.306554,-20.080873,-1.002506,0.933120,10.916304
465,-60.303655,18.310826,-22.705425,-0.098097,0.307451,9.940117
466,-60.303655,18.310826,-22.705425,-0.098097,0.307451,9.940117
467,-57.495995,17.395285,-23.804074,0.525179,-0.062208,9.398190
468,-23.926146,32.288090,-23.437858,-0.925942,0.787170,10.732073
469,-27.283131,26.855879,-22.888533,-0.870912,0.812293,10.790692
470,-2.746624,9.948882,-6.652934,-0.312236,0.217728,9.690089
471,-2.746624,9.948882,-6.652934,-0.312236,0.217728,9.690089
472,-3.479057,9.765774,-6.652934,-0.318218,0.131594,9.725978
473,-3.479057,9.765774,-6.652934,-0.318218,0.131594,9.725978
474,-3.906310,9.155413,-6.836042,-0.328985,0.149538,9.692482
475,-3.662165,8.972305,-6.591897,-0.312236,0.105275,9.687697
476,-3.662165,8.972305,-6.591897,-0.312236,0.105275,9.687697
477,-2.990768,8.850233,-6.408789,-0.293095,0.028711,9.672145
478,-2.990768,8.850233,-6.408789,-0.293095,0.028711,9.672145
479,-2.380407,8.911269,-6.469825,-0.287114,0.104079,9.602759
480,-3.356985,20.263981,-3.418021,-0.397174,0.090919,9.416135
481,-3.356985,21.301595,-2.990768,-0.361285,0.034693,9.564477
482,-3.356985,21.301595,-2.990768,-0.361285,0.034693,9.564477
483,-3.906310,21.911955,-2.380407,-0.215335,-0.088527,9.772634
484,-3.906310,21.911955,-2.380407,-0.215335,-0.088527,9.772634
485,-4.089418,22.949569,-0.793469,-0.271562,-0.161501,9.105095
486,-4.089418,22.949569,-0.793469,-0.271562,-0.161501,9.105095
487,-0.671397,26.062409,-1.281758,-0.302666,-0.026319,9.340768
488,-0.671397,26.062409,-1.281758,-0.302666,-0.026319,9.340768
489,-3.112840,33.936065,-1.709010,-0.232084,-0.074171,9.304878
490,-262.699321,324.528878,-162.966354,-4.534005,0.573031,10.080085
491,-262.699321,324.528878,-162.966354,-4.534005,0.573031,10.080085
492,-273.075456,324.345769,-170.656901,-5.014920,1.177166,10.746429
493,-273.075456,324.345769,-170.656901,-5.014920,1.177166,10.746429
494,-281.925689,320.317388,-170.901045,-5.698012,1.886577,11.335012
495,-281.925689,320.317388,-170.901045,-5.698012,1.886577,11.335012
496,-287.663081,311.039902,-164.919509,-6.064082,2.127034,11.258448
497,-287.663081,311.039902,-164.919509,-6.064082,2.127034,11.258448
498,-294.132906,302.250706,-158.571756,-6.340429,2.136605,10.607657
499,-294.132906,302.250706,-158.571756,-6.340429,2.136605,10.607657
500,-151.918822,-209.353780,53.406577,-2.494301,1.997833,9.461595
501,-151.918822,-209.353780,53.406577,-2.494301,1.997833,9.461595
502,-144.777600,-218.142977,54.871443,-2.610343,1.971514,9.375460
503,-144.777600,-218.142977,54.871443,-2.610343,1.971514,9.375460
504,-137.453269,-226.565957,56.336309,-2.672551,1.952374,9.210370
505,-129.701686,-234.134432,57.740139,-2.686906,1.988263,8.990249
506,-129.701686,-234.134432,57.740139,-2.686906,1.988263,8.990249
507,-121.522850,-240.543221,59.327077,-2.734759,2.013385,8.877797
508,-121.522850,-240.543221,59.327077,-2.734759,2.013385,8.877797
509,-76.844434,-268.253605,75.684749,-3.574566,2.923775,8.132497
510,-58.045319,-239.627680,237.796597,-6.101167,4.096156,8.197098
511,-52.918288,-241.763943,244.815747,-5.872673,4.078212,8.021241
512,-52.918288,-241.763943,244.815747,-5.872673,4.078212,8.021241
513,-47.791257,-243.717098,251.529717,-5.424057,3.927477,7.698238
514,-43.457694,-243.900206,257.267109,-5.019706,3.842539,7.137169
515,-43.457694,-243.900206,257.267109,-5.019706,3.842539,7.137169
516,-39.734493,-240.177005,262.149996,-4.761303,3.757601,6.611991
517,-39.734493,-240.177005,262.149996,-4.761303,3.757601,6.611991
518,-36.377508,-233.768215,266.544595,-4.616550,3.594903,6.210031
519,-36.377508,-233.768215,266.544595,-4.616550,3.594903,6.210031
520,5.004959,16.052491,100.526436,-3.721712,0.546712,3.905943
521,5.004959,16.052491,100.526436,-3.721712,0.546712,3.905943
522,1.525902,26.733806,98.451209,-3.823398,0.454597,4.092567
523,1.525902,26.733806,98.451209,-3.823398,0.454597,4.092567
524,-2.258335,35.950256,95.704585,-3.824594,0.324199,4.175113
525,-6.652934,44.434272,91.920348,-3.763583,0.180642,4.274406
526,-6.652934,44.434272,91.920348,-3.763583,0.180642,4.274406
527,-10.986496,53.040360,87.525750,-4.303117,1.058732,3.234815
528,-10.986496,53.040360,87.525750,-4.303117,1.058732,3.234815
529,-244.632639,182.681010,-34.668498,-6.737603,-6.739995,-1.783694
530,1.098650,5.615320,-0.610361,-0.882875,-0.351714,10.088460
531,3.906310,3.051804,0.244144,-0.703429,-0.198587,9.942510
532,3.906310,3.051804,0.244144,-0.703429,-0.198587,9.942510
533,5.004959,1.525902,1.220722,-0.406744,0.047852,9.906621
534,5.004959,1.525902,1.220722,-0.406744,0.047852,9.906621
535,4.943923,1.037613,2.258335,-0.256010,0.145949,9.845609
536,4.943923,1.037613,2.258335,-0.256010,0.145949,9.845609
537,4.699779,1.159686,3.234913,-0.160305,0.112453,9.820487
538,4.699779,1.159686,3.234913,-0.160305,0.112453,9.820487
539,4.028382,1.770047,4.150454,-0.098097,0.183035,9.849198
540,1.342794,0.183108,2.197299,-0.130397,0.052638,9.816898
541,1.342794,0.183108,2.197299,-0.130397,0.052638,9.816898
542,1.647974,0.244144,2.441444,-0.094508,0.010767,9.739138
543,1.647974,0.244144,2.441444,-0.094508,0.010767,9.739138
544,1.647974,0.366217,2.319371,-0.090919,0.058619,9.688893
545,2.258335,0.488289,2.380407,-0.052638,0.074171,9.708034
546,2.258335,0.488289,2.380407,-0.052638,0.074171,9.708034
547,2.807660,0.671397,2.563516,-0.032300,0.043067,9.694874
548,2.807660,0.671397,2.563516,-0.032300,0.043067,9.694874
549,4.028382,3.906310,3.418021,-0.130397,0.167483,9.696071
550,5.310140,7.873655,1.647974,-0.081349,0.185428,9.674537
551,5.554284,8.117800,2.380407,0.007178,0.214139,9.654200
552,5.554284,8.117800,2.380407,0.007178,0.214139,9.654200
553,5.981537,8.911269,2.563516,0.063404,0.254813,9.578833
554,5.981537,8.911269,2.563516,0.063404,0.254813,9.578833
555,5.615320,10.376135,2.502480,0.069386,0.325396,9.590796
556,5.615320,10.376135,2.502480,0.069386,0.325396,9.590796
557,5.554284,12.024109,2.563516,-0.008374,0.342144,9.609937
558,5.554284,12.024109,2.563516,-0.008374,0.342144,9.609937
559,5.554284,13.183795,2.502480,-0.077760,0.305058,9.687697
560,17.334249,222.232395,-1.403830,-2.740740,-0.324199,9.777420
561,20.141909,223.453117,-4.760815,-3.610455,-0.175857,10.016681
562,20.141909,223.453117,-4.760815,-3.610455,-0.175857,10.016681
563,23.010605,227.481498,-8.667124,-5.290071,-0.039478,10.386340
564,23.010605,227.481498,-8.667124,-5.290071,-0.039478,10.386340
565,21.057450,233.035782,-14.648661,-7.010361,0.856556,11.882921
566,21.057450,233.035782,-14.648661,-7.010361,0.856556,11.882921
567,4.943923,230.777447,-20.508125,-9.172088,1.318331,10.771551
568,4.943923,230.777447,-20.508125,-9.172088,1.318331,10.771551
569,-106.446937,135.133898,-45.288777,-14.258787,-0.044263,13.081621
570,5.920500,-127.870604,79.713130,3.490825,3.111595,9.765457
571,5.920500,-127.870604,79.713130,3.490825,3.111595,9.765457
572,13.000687,-136.720836,89.539940,3.531499,3.001535,9.475950
573,13.000687,-136.720836,89.539940,3.531499,3.001535,9.475950
574,20.386053,-145.387961,99.427787,3.639167,2.892671,9.065617
575,20.386053,-145.387961,99.427787,3.639167,2.892671,9.065617
576,27.466239,-153.261616,108.949416,3.728890,2.799359,8.573935
577,27.466239,-153.261616,108.949416,3.728890,2.799359,8.573935
578,34.119173,-159.487297,117.982757,3.786313,2.734759,8.131301
579,34.119173,-159.487297,117.982757,3.786313,2.734759,8.131301
580,15.991455,-35.339895,4.150454,-3.831772,-1.495384,4.312688
581,15.991455,-35.339895,4.150454,-3.831772,-1.495384,4.312688
582,15.747311,-27.100023,4.150454,-3.688215,-1.441550,4.585446
583,15.747311,-27.100023,4.150454,-3.688215,-1.441550,4.585446
584,15.564202,-19.836728,4.150454,-3.603278,-1.338668,4.898878
585,15.564202,-19.836728,4.150454,-3.603278,-1.338668,4.898878
586,15.442130,-13.977264,4.272526,-3.512358,-1.187933,5.011331
587,15.442130,-13.977264,4.272526,-3.512358,-1.187933,5.011331
588,15.808347,-9.399557,4.760815,-3.301808,-1.013272,5.004154
589,17.639429,14.831769,16.601816,-1.796854,0.190213,5.235041
590,0.427253,-9.826810,-0.671397,-0.081349,0.354107,9.749905
591,-0.183108,-9.277485,-0.793469,-0.065797,0.385211,9.786990
592,-0.183108,-9.277485,-0.793469,-0.065797,0.385211,9.786990
593,-1.159686,-8.972305,-0.854505,-0.009570,0.389996,9.718801
594,-1.159686,-8.972305,-0.854505,-0.009570,0.389996,9.718801
595,-1.709010,-8.545052,-1.098650,-0.028711,0.391192,9.649415
596,-1.709010,-8.545052,-1.098650,-0.028711,0.391192,9.649415
597,-1.892119,-8.056764,-1.342794,-0.070582,0.437848,9.638648
598,-1.892119,-8.056764,-1.342794,-0.070582,0.437848,9.638648
599,-2.197299,-7.751583,-1.647974,-0.101686,0.459382,9.681715
600,2.990768,3.418021,3.418021,-0.111257,0.108864,9.796561
601,3.479057,2.868696,3.601129,-0.076564,0.135183,9.804935
602,3.479057,2.868696,3.601129,-0.076564,0.135183,9.804935
603,3.601129,2.380407,3.601129,-0.035889,0.197391,9.761868
604,3.601129,2.380407,3.601129,-0.035889,0.197391,9.761868
605,3.295949,2.014191,3.540093,-0.064601,0.215335,9.755886
606,3.295949,2.014191,3.540093,-0.064601,0.215335,9.755886
607,2.746624,1.831083,3.418021,-0.046656,0.179446,9.788186
608,2.746624,1.831083,3.418021,-0.046656,0.179446,9.788186
609,4.760815,-2.319371,3.479057,0.007178,0.099294,9.715212
610,2.990768,30.884260,2.258335,0.045460,0.252421,9.679323
611,2.990768,30.884260,2.258335,0.045460,0.252421,9.679323
612,4.760815,33.142596,2.563516,-0.074171,0.667539,9.936529
613,4.760815,33.142596,2.563516,-0.074171,0.667539,9.936529
614,9.033341,35.278859,4.577707,0.202176,0.056226,9.678126
615,9.033341,35.278859,4.577707,0.202176,0.056226,9.678126
616,7.507439,37.415122,3.540093,0.251225,0.120827,9.547729
617,7.507439,37.415122,3.540093,0.251225,0.120827,9.547729
618,4.394598,40.588998,2.502480,0.142361,0.265580,9.691286
619,4.394598,40.588998,2.502480,0.142361,0.265580,9.691286
620,-31.250477,83.497368,-150.759136,-6.479200,-2.063630,11.552740
621,-31.250477,83.497368,-150.759136,-6.479200,-2.063630,11.552740
622,-18.310826,88.319219,-156.557565,-5.930095,-1.897343,11.421146
623,-18.310826,88.319219,-156.557565,-5.930095,-1.897343,11.421146
624,-7.446403,94.666972,-161.928740,-5.560436,-1.644923,11.381668
625,-7.446403,94.666972,-161.928740,-5.560436,-1.644923,11.381668
626,2.685588,101.686122,-166.323339,-5.264949,-1.379342,11.555132
627,2.685588,101.686122,-166.323339,-5.264949,-1.379342,11.555132
628,12.695506,107.118334,-169.436179,-4.962283,-0.989346,11.556329
629,33.752956,130.617227,-173.464561,-3.404691,1.300386,12.104237
630,65.186542,-182.131685,178.042268,1.673634,0.143557,7.155114
631,65.186542,-182.131685,178.042268,1.673634,0.143557,7.155114
632,63.965820,-184.328985,178.103304,1.543236,-0.171072,6.960116
633,63.965820,-184.328985,178.103304,1.543236,-0.171072,6.960116
634,62.745098,-184.878309,177.004654,1.425998,-0.574228,6.895515
635,62.745098,-184.878309,177.004654,1.425998,-0.574228,6.895515
636,61.829557,-185.183490,175.112535,1.210663,-0.974990,6.767510
637,61.829557,-185.183490,175.112535,1.210663,-0.974990,6.767510
638,61.768521,-184.939345,172.121767,0.946279,-1.400876,6.742388
639,61.768521,-184.939345,172.121767,0.946279,-1.400876,6.742388
640,2.929732,36.743725,17.395285,-4.595016,2.226328,7.445817
641,2.929732,36.743725,17.395285,-4.595016,2.226328,7.445817
642,17.944610,39.978637,24.719615,-5.791324,3.633185,4.146401
643,17.944610,39.978637,24.719615,-5.791324,3.633185,4.146401
644,20.325017,70.496681,18.066682,-6.322484,4.441889,5.116606
645,20.325017,70.496681,18.066682,-6.322484,4.441889,5.116606
646,-35.217823,104.188602,-3.173877,-9.456809,1.702345,4.847437
647,-35.217823,104.188602,-3.173877,-9.456809,1.702345,4.847437
648,-132.692454,131.898985,-40.344854,-11.777646,-0.050245,6.945760
649,-207.156481,-43.823911,-46.143282,-5.790127,-5.229059,19.599701
650,-5.371176,-2.929732,-8.239872,0.025122,0.233280,9.722390
651,-5.371176,-2.929732,-8.239872,0.025122,0.233280,9.722390
652,-5.676356,-2.563516,-8.300908,-0.058619,0.318218,9.668556
653,-5.676356,-2.563516,-8.300908,-0.058619,0.318218,9.668556
654,-6.713970,-1.892119,-7.507439,-0.093312,0.378033,9.801346
655,-6.713970,-1.892119,-7.507439,-0.093312,0.378033,9.801346
656,-6.347753,-1.953155,-6.958114,-0.145949,0.190213,9.747512
657,-6.347753,-1.953155,-6.958114,-0.145949,0.190213,9.747512
658,-6.103609,-1.831083,-7.019150,-0.172268,0.187820,9.763064
659,-6.103609,-1.831083,-7.019150,-0.172268,0.187820,9.763064
660,4.882887,-1.281758,3.356985,0.019141,0.245243,9.617115
661,4.882887,-1.281758,3.356985,0.019141,0.245243,9.617115
662,5.249104,-0.732433,3.479057,0.061012,0.193802,9.641041
663,5.249104,-0.732433,3.479057,0.061012,0.193802,9.641041
664,5.798428,0.061036,3.479057,0.099294,0.191409,9.625489
665,5.798428,0.061036,3.479057,0.099294,0.191409,9.625489
666,6.286717,1.159686,3.723201,0.141164,0.223709,9.626685
667,6.286717,1.159686,3.723201,0.141164,0.223709,9.626685
668,6.652934,15.564202,4.394598,0.338555,0.254813,9.660182
669,6.652934,15.564202,4.394598,0.338555,0.254813,9.660182
670,2.685588,114.869917,9.216449,0.384015,-0.165090,8.859852
671,8.178836,126.100557,9.887846,0.427082,-0.133986,8.995035
672,8.178836,126.100557,9.887846,0.427082,-0.133986,8.995035
673,12.146181,137.636378,8.789197,0.549105,0.319414,9.292915
674,12.146181,137.636378,8.789197,0.549105,0.319414,9.292915
675,14.038300,148.134585,8.728161,0.446223,0.557479,9.162518
676,14.038300,148.134585,8.728161,0.446223,0.557479,9.162518
677,15.991455,159.609369,8.117800,0.401959,0.624472,9.205585
678,15.991455,159.609369,8.117800,0.401959,0.624472,9.205585
679,17.090105,171.450370,5.981537,0.616098,0.748888,9.478343
680,-0.549325,83.314260,-102.540627,-2.502675,1.972711,14.859333
681,-0.183108,69.275959,-97.779812,-2.201205,2.024152,14.983749
682,-0.183108,69.275959,-97.779812,-2.201205,2.024152,14.983749
683,1.098650,54.444190,-92.103456,-1.841117,2.178476,14.641605
684,1.098650,54.444190,-92.103456,-1.841117,2.178476,14.641605
685,4.028382,40.833143,-85.389487,-1.333883,2.282554,14.320995
686,4.028382,40.833143,-85.389487,-1.333883,2.282554,14.320995
687,7.568475,27.588312,-78.187228,-0.902016,2.330407,13.756338
688,7.568475,27.588312,-78.187228,-0.902016,2.330407,13.756338
689,3.173877,-27.161059,-44.922560,3.265919,3.300612,10.448548
690,32.715343,-207.339590,88.258183,-0.836219,-2.763470,6.059297
691,31.128405,-205.142290,75.501640,-1.020450,-2.776629,6.024604
692,31.128405,-205.142290,75.501640,-1.020450,-2.776629,6.024604
693,29.968719,-202.822919,62.500954,-1.213056,-2.726384,5.888225
694,29.968719,-202.822919,62.500954,-1.213056,-2.726384,5.888225
695,29.419394,-200.076295,49.805447,-1.378146,-2.595987,5.717153
696,28.992142,-197.146563,37.842374,-1.545629,-2.316051,5.609485
697,28.992142,-197.146563,37.842374,-1.545629,-2.316051,5.609485
698,28.870069,-193.728542,26.977951,-1.682008,-1.971514,5.474302
699,28.870069,-193.728542,26.977951,-1.682008,-1.971514,5.474302
700,131.471733,130.495155,4.028382,-6.056904,6.257884,15.725460
701,131.471733,130.495155,4.028382,-6.056904,6.257884,15.725460
702,126.283665,106.691081,2.868696,-5.566418,7.007968,16.607138
703,126.283665,106.691081,2.868696,-5.566418,7.007968,16.607138
704,73.060197,62.500954,-2.197299,-3.303005,6.372729,13.910661
705,73.060197,62.500954,-2.197299,-3.303005,6.372729,13.910661
706,-12.512398,19.958801,-13.427939,-0.421100,4.626120,9.777420
707,-12.512398,19.958801,-13.427939,-0.421100,4.626120,9.777420
708,-94.850080,0.183108,-26.977951,1.923662,3.403494,7.965014
709,-2.136263,23.865110,-11.779965,-5.061576,-4.760107,12.420063
710,5.127031,7.995727,4.028382,-0.038282,0.076564,9.653004
711,5.127031,7.995727,4.028382,-0.038282,0.076564,9.653004
712,6.103609,9.216449,4.821851,0.038282,0.019141,9.649415
713,6.103609,9.216449,4.821851,0.038282,0.019141,9.649415
714,7.263294,10.498207,5.676356,0.082545,-0.003589,9.608740
715,7.263294,10.498207,5.676356,0.082545,-0.003589,9.608740
716,7.812619,12.390326,6.652934,0.129201,-0.026319,9.608740
717,7.812619,12.390326,6.652934,0.129201,-0.026319,9.608740
718,8.239872,14.709697,7.263294,0.062208,-0.016748,9.575244
719,8.239872,14.709697,7.263294,0.062208,-0.016748,9.575244
720,-0.488289,-2.319371,-0.793469,-0.439045,0.144753,9.526195
721,-0.488289,-2.319371,-0.793469,-0.439045,0.144753,9.526195
722,-0.244144,-2.929732,-1.159686,-0.406744,0.202176,9.523803
723,-0.244144,-2.929732,-1.159686,-0.406744,0.202176,9.523803
724,-0.061036,-3.234913,-1.525902,-0.367266,0.259599,9.530980
725,-0.061036,-3.234913,-1.525902,-0.367266,0.259599,9.530980
726,-0.122072,-3.418021,-1.892119,-0.368463,0.294292,9.559692
727,-0.122072,-3.418021,-1.892119,-0.368463,0.294292,9.559692
728,-0.183108,-3.723201,-2.258335,-0.369659,0.328985,9.557299
729,-0.671397,-5.249104,-3.418021,-0.410333,0.166287,9.541747
730,-0.671397,91.554131,0.915541,-0.057423,-0.106471,9.271382
731,1.159686,97.962921,1.037613,0.049049,-0.021534,9.150555
732,1.159686,97.962921,1.037613,0.049049,-0.021534,9.150555
733,2.563516,105.653468,1.098650,0.019141,0.082545,9.010587
734,2.563516,105.653468,1.098650,0.019141,0.082545,9.010587
735,2.990768,114.442664,0.427253,0.116042,0.204569,9.087150
736,2.990768,114.442664,0.427253,0.116042,0.204569,9.087150
737,1.037613,122.560464,-0.305180,0.258402,0.313433,9.267793
738,1.037613,122.560464,-0.305180,0.258402,0.313433,9.267793
739,-0.732433,130.067903,-0.976577,0.163894,0.301469,9.124236
740,-46.082246,184.206912,-56.702525,-6.609598,2.682121,11.573077
741,-69.398032,175.967041,-55.359731,-5.848746,2.570864,11.388846
742,-69.398032,175.967041,-55.359731,-5.848746,2.570864,11.388846
743,-87.708858,170.046540,-54.077974,-4.987405,2.223935,11.405594
744,-87.708858,170.046540,-54.077974,-4.987405,2.223935,11.405594
745,-104.127565,165.163653,-53.589685,-4.177505,1.729860,11.269215
746,-104.127565,165.163653,-53.589685,-4.177505,1.729860,11.269215
747,-120.363165,161.379416,-55.115587,-3.452543,1.354220,11.234522
748,-169.924468,147.707332,-66.285191,-1.417624,-0.756066,11.632892
749,-168.581674,144.594492,-67.689021,-1.113762,-1.025235,11.708260
750,1.403830,-241.886015,99.794003,1.607837,2.995554,8.096608
751,1.403830,-241.886015,99.794003,1.607837,2.995554,8.096608
752,2.197299,-241.886015,103.028916,1.403268,2.944112,7.982959
753,2.197299,-241.886015,103.028916,1.403268,2.944112,7.982959
754,2.197299,-241.153582,106.569009,1.138885,2.886690,7.962622
755,2.197299,-241.153582,106.569009,1.138885,2.886690,7.962622
756,1.403830,-240.299077,110.170138,0.893642,2.847211,8.046363
757,1.403830,-240.299077,110.170138,0.893642,2.847211,8.046363
758,0.610361,-239.505608,113.527123,0.702232,2.775433,8.154031
759,0.610361,-239.505608,113.527123,0.702232,2.775433,8.154031
760,12.512398,-244.998856,134.584573,-5.528136,4.364129,11.658015
761,9.216449,-244.632639,136.598764,-5.309212,4.370111,11.253663
762,9.216449,-244.632639,136.598764,-5.309212,4.370111,11.253663
763,6.591897,-242.374304,138.796063,-5.141729,4.423944,10.869648
764,6.591897,-242.374304,138.796063,-5.141729,4.423944,10.869648
765,4.516670,-238.223850,141.359579,-5.078325,4.504097,10.480848
766,4.516670,-238.223850,141.359579,-5.078325,4.504097,10.480848
767,2.746624,-232.852674,144.838636,-5.140533,4.616550,10.127938
768,-15.442130,-194.644083,171.206226,-4.995779,3.175000,7.566644
769,-15.320058,-184.512093,177.431907,-4.739770,2.584024,7.053428
770,17.883574,83.253223,-6.225681,2.042097,3.488432,7.429068
771,-13.000687,87.342641,-11.902037,2.391418,3.335305,7.214929
772,-13.000687,87.342641,-11.902037,2.391418,3.335305,7.214929
773,-41.077287,95.033188,-16.479744,1.892558,2.406970,7.442228
774,-41.077287,95.033188,-16.479744,1.892558,2.406970,7.442228
775,-60.242618,105.226215,-20.141909,0.799133,1.277656,8.538045
776,-60.242618,105.226215,-20.141909,0.799133,1.277656,8.538045
777,-67.872129,112.245365,-21.545739,-0.646006,0.072975,9.999933
778,-67.872129,112.245365,-21.545739,-0.646006,0.072975,9.999933
779,-65.186542,112.550546,-21.972992,-2.438074,-0.779992,11.888902
780,0.793469,8.056764,-0.061036,-0.275151,0.111257,9.699660
781,0.305180,8.239872,0.122072,-0.259599,0.104079,9.704445
782,0.305180,8.239872,0.122072,-0.259599,0.104079,9.704445
783,0.305180,8.239872,0.366217,-0.263188,0.064601,9.697267
784,0.305180,8.239872,0.366217,-0.263188,0.064601,9.697267
785,0.427253,8.239872,0.549325,-0.251225,0.057423,9.673341
786,0.427253,8.239872,0.549325,-0.251225,0.057423,9.673341
787,0.793469,8.422980,0.671397,-0.236869,0.051441,9.697267
788,0.793469,8.422980,0.671397,-0.236869,0.051441,9.697267
789,2.014191,9.460594,1.098650,-0.248832,0.111257,9.657789
790,-7.934691,-4.028382,-8.667124,-0.283525,0.055030,9.591992
791,-6.713970,-3.967346,-8.606088,-0.232084,0.039478,9.548925
792,-6.713970,-3.967346,-8.606088,-0.232084,0.039478,9.548925
793,-5.737392,-3.479057,-8.606088,-0.200980,0.088527,9.568066
794,-5.737392,-3.479057,-8.606088,-0.200980,0.088527,9.568066
795,-5.432212,-2.990768,-7.995727,-0.148342,0.394781,9.662574
796,-5.432212,-2.990768,-7.995727,-0.148342,0.394781,9.662574
797,-4.089418,-2.624552,-6.042573,-0.216532,-0.038282,9.564477
798,-4.089418,-2.624552,-6.042573,-0.216532,-0.038282,9.564477
799,-3.967346,-1.281758,-7.019150,-0.264384,0.096901,9.627881
800,-4.028382,42.236973,-3.479057,0.037086,0.162698,9.466380
801,-5.615320,46.814679,-4.150454,0.132790,0.087330,9.344356
802,-5.615320,46.814679,-4.150454,0.132790,0.087330,9.344356
803,-6.530861,52.674144,-5.371176,0.153127,0.179446,9.314449
804,-6.530861,52.674144,-5.371176,0.153127,0.179446,9.314449
805,-7.080186,58.960861,-5.554284,-0.041871,0.210550,9.283345
806,-7.080186,58.960861,-5.554284,-0.041871,0.210550,9.283345
807,-7.080186,65.552758,-5.249104,0.071778,0.032300,9.550121
808,-7.080186,65.552758,-5.249104,0.071778,0.032300,9.550121
809,-7.812619,107.240406,-11.291676,0.382818,0.282329,9.424509
810,-105.958648,-32.104982,63.843748,-0.829041,2.749114,10.849311
811,-99.794003,-37.659266,69.336996,-0.117238,2.817304,10.026252
812,-99.794003,-37.659266,69.336996,-0.117238,2.817304,10.026252
813,-95.155261,-40.405890,73.670558,0.513216,2.991965,9.539355
814,-95.155261,-40.405890,73.670558,0.513216,2.991965,9.539355
815,-95.887694,-42.236973,76.966506,0.984561,3.153466,9.167303
816,-95.887694,-42.236973,76.966506,0.984561,3.153466,9.167303
817,-101.503014,-43.945983,78.858625,1.169989,3.209693,8.819178
818,-101.503014,-43.945983,78.858625,1.169989,3.209693,8.819178
819,-109.925994,-45.410849,79.163806,1.175970,3.155859,8.573935
820,-113.649195,-239.261463,85.023270,-2.745525,4.072230,9.595581
821,-110.780499,-239.810788,87.708858,-2.916597,4.219376,9.649415
822,-110.780499,-239.810788,87.708858,-2.916597,4.219376,9.649415
823,-107.911803,-240.054932,90.760662,-3.085277,4.329436,9.729567
824,-107.911803,-240.054932,90.760662,-3.085277,4.329436,9.729567
825,-104.921035,-240.360113,94.422828,-3.280275,4.474189,9.763064
826,-104.921035,-240.360113,94.422828,-3.280275,4.474189,9.763064
827,-102.113375,-240.726329,98.329137,-3.439384,4.610568,9.803738
828,-102.113375,-240.726329,98.329137,-3.439384,4.610568,9.803738
829,-92.164492,-238.101778,131.227588,-4.053089,5.134551,9.591992
830,142.702373,-57.557031,219.180591,-7.039072,-0.557479,4.018396
831,142.702373,-57.557031,219.180591,-7.039072,-0.557479,4.018396
832,136.598764,-47.669184,206.912337,-7.442228,-0.407941,4.001648
833,136.598764,-47.669184,206.912337,-7.442228,-0.407941,4.001648
834,126.222629,-39.917601,190.859846,-7.884862,-0.202176,3.876036
835,126.222629,-39.917601,190.859846,-7.884862,-0.202176,3.876036
836,108.155947,-34.668498,172.793164,-8.116945,-0.126809,3.877232
837,108.155947,-34.668498,172.793164,-8.116945,-0.126809,3.877232
838,85.450523,-31.921874,152.162966,-8.170779,-0.106471,3.733675
839,85.450523,-31.921874,152.162966,-8.170779,-0.106471,3.733675
840,-13.977264,15.747311,-1.831083,-0.730944,-0.064601,10.291832
841,-13.977264,15.747311,-1.831083,-0.730944,-0.064601,10.291832
842,-12.085145,12.207218,-1.892119,-0.638828,-0.283525,10.199716
843,-12.085145,12.207218,-1.892119,-0.638828,-0.283525,10.199716
844,-6.652934,9.704738,-1.525902,-0.412726,-0.253617,10.009503
845,-6.652934,9.704738,-1.525902,-0.412726,-0.253617,10.009503
846,-1.342794,9.094377,-1.220722,-0.228495,-0.040674,9.900639
847,-1.342794,9.094377,-1.220722,-0.228495,-0.040674,9.900639
848,1.831083,9.216449,-0.854505,-0.200980,0.222513,9.843217
849,-1.159686,5.249104,0.488289,-0.089723,0.040674,9.696071
850,0.000000,4.577707,0.061036,-0.187820,0.135183,9.668556
851,0.000000,4.577707,0.061036,-0.187820,0.135183,9.668556
852,-0.061036,4.760815,-0.122072,-0.172268,0.173465,9.673341
853,-0.061036,4.760815,-0.122072,-0.172268,0.173465,9.673341
854,-0.427253,4.699779,-0.305180,-0.187820,0.174661,9.693678
855,-0.427253,4.699779,-0.305180,-0.187820,0.174661,9.693678
856,-0.671397,4.516670,-0.488289,-0.171072,0.112453,9.690089
857,-0.671397,4.516670,-0.488289,-0.171072,0.112453,9.690089
858,-0.915541,4.516670,-0.671397,-0.181839,0.112453,9.664967
859,-0.915541,4.516670,-0.671397,-0.181839,0.112453,9.664967
860,4.089418,35.767147,0.366217,-0.384015,0.141164,9.578833
861,3.723201,36.133364,0.366217,-0.349322,0.191409,9.645826
862,3.723201,36.133364,0.366217,-0.349322,0.191409,9.645826
863,3.845274,36.682689,0.427253,-0.299077,0.133986,9.565673
864,3.845274,36.682689,0.427253,-0.299077,0.133986,9.565673
865,3.356985,37.598230,-0.366217,-0.285917,0.259599,9.502269
866,3.356985,37.598230,-0.366217,-0.285917,0.259599,9.502269
867,3.295949,38.818952,-0.793469,-0.297881,0.367266,9.533373
868,3.295949,38.818952,-0.793469,-0.297881,0.367266,9.533373
869,-0.305180,45.654994,-4.333562,-0.295488,0.222513,9.438865
870,-125.917449,232.425422,-75.318532,-11.406790,1.260908,12.513375
871,-149.172198,205.508507,-78.065156,-11.825498,1.321920,15.565154
872,-149.172198,205.508507,-78.065156,-11.825498,1.321920,15.565154
873,-181.216144,159.426261,-77.759976,-12.252580,0.969009,14.474122
874,-181.216144,159.426261,-77.759976,-12.252580,0.969009,14.474122
875,-218.753338,121.828031,-78.248264,-12.770581,-0.247636,13.085209
876,-218.753338,121.828031,-78.248264,-12.770581,-0.247636,13.085209
877,-249.393454,96.620127,-82.337682,-13.091191,-0.934316,13.256281
878,-255.619135,74.036774,-84.229801,-13.014627,-1.624585,12.863893
879,-255.619135,74.036774,-84.229801,-13.014627,-1.624585,12.863893
880,-24.414435,-141.176471,101.808194,1.545629,1.239374,8.049952
881,-24.414435,-141.176471,101.808194,1.545629,1.239374,8.049952
882,-22.644388,-146.059358,104.859998,1.410446,1.239374,7.949462
883,-22.644388,-146.059358,104.859998,1.410446,1.239374,7.949462
884,-19.714656,-151.308461,108.888380,1.465476,1.217841,7.658759
885,-19.714656,-151.308461,108.888380,1.465476,1.217841,7.658759
886,-15.564202,-156.008240,113.466087,1.673634,1.186737,7.207752
887,-15.564202,-156.008240,113.466087,1.673634,1.186737,7.207752
888,-10.864424,-159.121080,118.410010,1.948785,1.156829,6.760333
889,7.873655,-153.627832,140.199893,2.442860,1.161614,5.987518
890,2.929732,-48.767834,45.410849,-4.642869,-1.554003,5.096269
891,2.929732,-48.767834,45.410849,-4.642869,-1.554003,5.096269
892,4.211490,-39.307240,37.048905,-4.627317,-1.677223,5.146514
893,4.211490,-39.307240,37.048905,-4.627317,-1.677223,5.146514
894,5.371176,-30.457008,28.076600,-4.478975,-1.705934,5.032865
895,5.371176,-30.457008,28.076600,-4.478975,-1.705934,5.032865
896,7.629511,-21.606775,18.921187,-4.251676,-1.682008,4.913234
897,7.629511,-21.606775,18.921187,-4.251676,-1.682008,4.913234
898,11.352712,-11.963073,10.620279,-3.962170,-1.591089,4.729003
899,11.352712,-11.963073,10.620279,-3.962170,-1.591089,4.729003
900,-5.432212,-4.150454,-10.131991,-0.212943,-0.099294,10.014289
901,-2.258335,-5.127031,-9.704738,-0.240458,-0.055030,9.971221
902,-0.488289,-5.676356,-8.972305,-0.245243,-0.016748,9.903032
903,-0.488289,-5.676356,-8.972305,-0.245243,-0.016748,9.903032
904,0.061036,-6.469825,-8.300908,-0.217728,0.062208,9.853983
905,0.061036,-6.469825,-8.300908,-0.217728,0.062208,9.853983
906,0.610361,-7.263294,-7.995727,-0.098097,0.150735,9.892265
907,0.610361,-7.263294,-7.995727,-0.098097,0.150735,9.892265
908,1.770047,-1.037613,-2.136263,0.167483,-0.064601,9.852787
909,1.770047,-1.037613,-2.136263,0.167483,-0.064601,9.852787
910,1.281758,-5.310140,1.037613,-0.093312,0.191409,9.709230
911,1.281758,-5.310140,1.037613,-0.093312,0.191409,9.709230
912,0.915541,-5.615320,0.732433,-0.126809,0.168679,9.725978
913,0.915541,-5.615320,0.732433,-0.126809,0.168679,9.725978
914,0.244144,-6.103609,0.427253,-0.139968,0.107668,9.763064
915,0.244144,-6.103609,0.427253,-0.139968,0.107668,9.763064
916,-0.427253,-6.897078,0.305180,-0.129201,0.093312,9.758279
917,-0.427253,-6.897078,0.305180,-0.129201,0.093312,9.758279
918,-0.183108,-7.202258,-0.183108,-0.041871,0.072975,9.589599
919,-0.183108,-7.202258,-0.183108,-0.041871,0.072975,9.589599
920,0.854505,30.579080,1.098650,-0.001196,0.242850,9.675734
921,0.854505,30.579080,1.098650,-0.001196,0.242850,9.675734
922,-0.305180,32.532235,1.220722,0.014356,0.204569,9.740334
923,-0.305180,32.532235,1.220722,0.014356,0.204569,9.740334
924,-0.610361,34.302281,1.281758,0.009570,0.190213,9.682911
925,-0.610361,34.302281,1.281758,0.009570,0.190213,9.682911
926,-0.610361,36.621653,1.464866,0.083742,0.189017,9.711623
927,-0.610361,36.621653,1.464866,0.083742,0.189017,9.711623
928,-0.610361,39.368276,1.831083,0.125612,0.145949,9.685304
929,0.000000,60.059510,5.310140,0.046656,-0.094508,9.586011
930,-71.351186,94.056611,-154.665446,-7.189807,-0.084938,11.486943
931,-71.351186,94.056611,-154.665446,-7.189807,-0.084938,11.486943
932,-65.064469,100.526436,-158.083467,-6.787848,-0.331377,11.805161
933,-65.064469,100.526436,-158.083467,-6.787848,-0.331377,11.805161
934,-55.359731,104.615854,-159.548333,-6.305736,-0.514412,11.707063
935,-55.359731,104.615854,-159.548333,-6.305736,-0.514412,11.707063
936,-44.068055,109.254597,-159.914549,-5.772183,-0.637632,11.551543
937,-44.068055,109.254597,-159.914549,-5.772183,-0.637632,11.551543
938,-31.311513,114.442664,-159.609369,-5.258967,-0.654380,11.504887
939,-31.311513,114.442664,-159.609369,-5.258967,-0.654380,11.504887
940,53.223468,-233.035782,171.206226,2.217954,1.348238,6.530642
941,53.223468,-233.035782,171.206226,2.217954,1.348238,6.530642
942,51.941711,-234.439612,176.760510,2.190439,0.815882,6.080830
943,51.941711,-234.439612,176.760510,2.190439,0.815882,6.080830
944,52.429999,-234.134432,180.910964,2.136605,0.261991,5.662123
945,52.429999,-234.134432,180.910964,2.136605,0.261991,5.662123
946,54.627298,-231.815061,183.230335,1.995441,-0.162698,5.333138
947,54.627298,-231.815061,183.230335,1.995441,-0.162698,5.333138
948,57.862211,-227.908751,183.718624,1.783694,-0.521590,5.160870
949,59.632258,-201.052873,163.393606,0.581405,-1.288423,4.927590
950,-148.500801,17.517357,-181.765469,-8.680406,4.012415,16.822473
951,-148.500801,17.517357,-181.765469,-8.680406,4.012415,16.822473
952,-109.010452,-8.972305,-138.429847,-6.158590,2.994357,13.112724
953,-109.010452,-8.972305,-138.429847,-6.158590,2.994357,13.112724
954,-72.388800,-28.809033,-98.146029,-2.289732,2.982394,10.212876
955,-72.388800,-28.809033,-98.146029,-2.289732,2.982394,10.212876
956,-52.491035,-33.081559,-61.951629,1.330294,2.438074,8.102589
957,-52.491035,-33.081559,-61.951629,1.330294,2.438074,8.102589
958,-48.950942,-19.958801,-35.645075,4.078212,1.360201,6.818952
959,-48.950942,-19.958801,-35.645075,4.078212,1.360201,6.818952
960,-0.061036,-0.671397,2.197299,-0.094508,0.041871,9.613526
961,-1.098650,-0.183108,1.953155,-0.185428,0.077760,9.629078
962,-1.098650,-0.183108,1.953155,-0.185428,0.077760,9.629078
963,-0.671397,-0.427253,1.953155,-0.135183,0.009570,9.746316
964,-0.671397,-0.427253,1.953155,-0.135183,0.009570,9.746316
965,0.366217,-0.488289,1.586938,-0.066993,0.000000,9.690089
966,0.366217,-0.488289,1.586938,-0.066993,0.000000,9.690089
967,-0.427253,-0.122072,1.342794,-0.058619,0.000000,9.685304
968,-0.427253,-0.122072,1.342794,-0.058619,0.000000,9.685304
969,-1.220722,1.281758,0.244144,-0.221317,0.017945,9.688893
970,3.906310,162.233921,6.164645,0.141164,-0.405548,9.192425
971,11.718929,171.877623,7.141222,0.026319,-0.311040,9.532177
972,11.718929,171.877623,7.141222,0.026319,-0.311040,9.532177
973,18.310826,179.568170,8.667124,-0.068190,-0.372052,9.728371
974,18.310826,179.568170,8.667124,-0.068190,-0.372052,9.728371
975,22.217136,186.221103,9.826810,-0.265580,-0.291899,9.747512
976,22.217136,186.221103,9.826810,-0.265580,-0.291899,9.747512
977,26.367590,193.240253,10.254063,-0.643613,-0.178250,9.687697
978,26.367590,193.240253,10.254063,-0.643613,-0.178250,9.687697
979,31.555657,199.771115,11.230640,-1.174774,-0.153127,9.694874
980,-23.926146,-26.428626,-48.767834,3.213281,3.329323,11.801572
981,-24.231327,-35.523003,-42.725261,3.782724,3.281471,11.195044
982,-24.231327,-35.523003,-42.725261,3.782724,3.281471,11.195044
983,-23.437858,-43.030442,-36.316472,4.298332,3.257545,10.552627
984,-23.437858,-43.030442,-36.316472,4.298332,3.257545,10.552627
985,-21.301595,-48.584726,-29.236286,4.755322,3.188159,10.078889
986,-21.301595,-48.584726,-29.236286,4.755322,3.188159,10.078889
987,-17.639429,-52.491035,-21.545739,5.113017,3.090062,9.599170
988,-17.639429,-52.491035,-21.545739,5.113017,3.090062,9.599170
989,20.874342,-68.482490,27.344167,5.268537,3.066136,8.705528
990,10.009918,-130.983444,42.847333,-3.303005,-1.959551,4.059071
991,10.009918,-130.983444,42.847333,-3.303005,-1.959551,4.059071
992,10.620279,-119.630732,36.377508,-3.391531,-1.878202,4.266032
993,10.620279,-119.630732,36.377508,-3.391531,-1.878202,4.266032
994,10.803388,-108.644236,30.151827,-3.598492,-1.648511,4.586642
995,10.803388,-108.644236,30.151827,-3.598492,-1.648511,4.586642
996,9.948882,-98.695354,24.170291,-3.836558,-1.475047,4.851026
997,9.948882,-98.695354,24.170291,-3.836558,-1.475047,4.851026
998,8.300908,-90.333410,18.371862,-3.993274,-1.268086,5.040043
999,8.300908,-90.333410,18.371862,-3.993274,-1.268086,5.040043
1000,26.489662,-5.859464,2.136263,0.071778,1.293208,10.017877
1001,16.113527,-5.676356,2.807660,-0.214139,1.330294,10.333703
1002,16.113527,-5.676356,2.807660,-0.214139,1.330294,10.333703
1003,5.065995,-7.934691,1.953155,-0.281132,0.913979,10.269102
1004,5.065995,-7.934691,1.953155,-0.281132,0.913979,10.269102
1005,-4.272526,-10.254063,-0.366217,-0.093312,0.555087,10.084871
1006,-4.272526,-10.254063,-0.366217,-0.093312,0.555087,10.084871
1007,-8.728161,-11.474784,-1.709010,0.125612,0.129201,9.752297
1008,-8.728161,-11.474784,-1.709010,0.125612,0.129201,9.752297
1009,3.784237,-9.033341,1.403830,-0.081349,0.021534,9.814505
1010,-3.234913,3.967346,-2.014191,-0.234476,0.047852,9.749905
1011,-3.784237,3.051804,-2.258335,-0.245243,0.049049,9.723586
1012,-3.784237,3.051804,-2.258335,-0.245243,0.049049,9.723586
1013,-3.356985,2.380407,-2.502480,-0.245243,0.077760,9.729567
1014,-3.356985,2.380407,-2.502480,-0.245243,0.077760,9.729567
1015,-2.502480,1.159686,-2.563516,-0.327788,0.032300,9.718801
1016,-2.502480,1.159686,-2.563516,-0.327788,0.032300,9.718801
1017,-2.502480,0.244144,-2.929732,-0.324199,0.040674,9.745119
1018,-3.173877,-0.854505,-2.990768,-0.287114,0.027515,9.680519
1019,-3.173877,-0.854505,-2.990768,-0.287114,0.027515,9.680519
1020,3.906310,29.236286,2.014191,0.131594,-0.049049,9.633863
1021,3.906310,29.236286,2.014191,0.131594,-0.049049,9.633863
1022,3.845274,32.410163,2.807660,0.086134,-0.107668,9.682911
1023,3.845274,32.410163,2.807660,0.086134,-0.107668,9.682911
1024,3.479057,34.973678,3.173877,0.041871,-0.112453,9.668556
1025,3.479057,34.973678,3.173877,0.041871,-0.112453,9.668556
1026,3.906310,37.293050,3.418021,0.056226,-0.136379,9.700856
1027,3.906310,37.293050,3.418021,0.056226,-0.136379,9.700856
1028,4.577707,39.978637,3.723201,0.070582,-0.144753,9.679323
1029,3.295949,53.711757,4.699779,-0.011963,-0.135183,9.643433
1030,77.821012,97.291524,-79.102770,-6.518679,-0.586191,11.332619
1031,77.821012,97.291524,-79.102770,-6.518679,-0.586191,11.332619
1032,73.975738,96.437018,-86.732280,-6.299754,-0.005982,11.556329
1033,73.975738,96.437018,-86.732280,-6.299754,-0.005982,11.556329
1034,66.163119,95.094224,-93.629358,-5.981537,0.521590,11.687922
1035,66.163119,95.094224,-93.629358,-5.981537,0.521590,11.687922
1036,56.458381,93.812467,-99.305715,-5.648963,0.983365,11.793198
1037,56.458381,93.812467,-99.305715,-5.648963,0.983365,11.793198
1038,46.143282,92.835889,-103.456168,-5.298445,1.416428,11.918810
1039,46.143282,92.835889,-103.456168,-5.298445,1.416428,11.918810
1040,47.425040,-182.375830,129.335470,2.896260,0.565853,7.627655
1041,47.425040,-182.375830,129.335470,2.896260,0.565853,7.627655
1042,51.209277,-186.037995,132.021057,2.521816,0.479719,7.705415
1043,54.139010,-190.798810,134.279393,2.170101,0.363677,7.749679
1044,54.139010,-190.798810,134.279393,2.170101,0.363677,7.749679
1045,55.909056,-195.803769,135.439078,1.842313,0.301469,7.750875
1046,55.909056,-195.803769,135.439078,1.842313,0.301469,7.750875
1047,56.519417,-200.686656,135.988403,1.510936,0.214139,7.805905
1048,56.519417,-200.686656,135.988403,1.510936,0.214139,7.805905
1049,51.270314,-223.514153,129.518578,0.734533,-0.742907,6.540212
1050,-89.662013,-30.029755,-27.405203,7.223304,-1.030021,7.077354
1051,-109.620813,-2.807660,-23.865110,8.399274,-3.377176,5.223078
1052,-109.620813,-2.807660,-23.865110,8.399274,-3.377176,5.223078
1053,-117.067216,35.523003,-32.043946,6.860822,-5.163262,4.749340
1054,-117.067216,35.523003,-32.043946,6.860822,-5.163262,4.749340
1055,-101.991302,69.153887,-41.138323,3.513555,-5.172833,6.164572
1056,-101.991302,69.153887,-41.138323,3.513555,-5.172833,6.164572
1057,-60.486763,92.469673,-39.612421,-0.405548,-4.652439,8.877797
1058,-60.486763,92.469673,-39.612421,-0.405548,-4.652439,8.877797
1059,-3.418021,104.798962,-32.166018,-3.715731,-3.239600,11.699886
1060,-2.319371,-4.638743,-3.356985,-0.155520,0.179446,9.943706
1061,-2.319371,-4.638743,-3.356985,-0.155520,0.179446,9.943706
1062,-3.845274,-6.164645,-4.699779,0.132790,0.293095,9.893462
1063,-3.845274,-6.164645,-4.699779,0.132790,0.293095,9.893462
1064,-5.249104,-6.591897,-5.127031,-0.045460,0.400763,9.612329
1065,-5.249104,-6.591897,-5.127031,-0.045460,0.400763,9.612329
1066,-5.310140,-6.591897,-4.943923,-0.074171,0.202176,9.954473
1067,-5.310140,-6.591897,-4.943923,-0.074171,0.202176,9.954473
1068,-5.065995,-7.873655,-6.103609,0.046656,0.086134,9.965240
1069,-5.737392,-7.324331,-5.310140,0.116042,0.178250,9.404172
1070,-0.305180,9.338521,-2.258335,-0.031104,-0.052638,9.766653
1071,-0.305180,9.338521,-2.258335,-0.031104,-0.052638,9.766653
1072,0.366217,9.521630,-1.709010,0.041871,-0.026319,9.714015
1073,0.366217,9.521630,-1.709010,0.041871,-0.026319,9.714015
1074,1.159686,10.131991,-1.281758,0.099294,0.026319,9.702052
1075,1.159686,10.131991,-1.281758,0.099294,0.026319,9.702052
1076,1.647974,10.925460,-0.793469,0.135183,0.108864,9.737942
1077,1.647974,10.925460,-0.793469,0.135183,0.108864,9.737942
1078,2.014191,11.718929,-0.549325,0.112453,0.171072,9.705641
1079,2.014191,11.718929,-0.549325,0.112453,0.171072,9.705641
1080,3.112840,37.964446,0.549325,-0.183035,0.156716,9.635059
1081,3.112840,37.964446,0.549325,-0.183035,0.156716,9.635059
1082,2.868696,39.795529,0.122072,-0.086134,0.149538,9.702052
1083,2.868696,39.795529,0.122072,-0.086134,0.149538,9.702052
1084,1.953155,41.748684,-0.488289,-0.056226,0.234476,9.613526
1085,1.464866,44.434272,-0.976577,0.044263,0.157913,9.565673
1086,1.464866,44.434272,-0.976577,0.044263,0.157913,9.565673
1087,0.244144,47.486076,-1.647974,0.174661,0.119631,9.559692
1088,2.929732,68.421454,-2.441444,-0.214139,-0.009570,9.558495
1089,3.723201,71.290150,-3.051804,-0.165090,0.065797,9.556103
1090,-41.016251,218.814374,-157.167926,-12.311199,-4.108119,8.874208
1091,-1.892119,219.790951,-149.843595,-12.147304,-2.362707,10.366003
1092,-1.892119,219.790951,-149.843595,-12.147304,-2.362707,10.366003
1093,31.799802,215.091173,-137.392233,-11.620929,-0.899623,11.052683
1094,51.941711,208.133059,-123.476005,-10.910323,0.334966,11.012009
1095,51.941711,208.133059,-123.476005,-10.910323,0.334966,11.012009
1096,58.106355,202.578775,-109.620813,-10.400696,1.307564,10.642350
1097,58.106355,202.578775,-109.620813,-10.400696,1.307564,10.642350
1098,54.016938,200.076295,-96.864271,-9.734353,2.133016,10.616031
1099,54.016938,200.076295,-96.864271,-9.734353,2.133016,10.616031
1100,-47.180896,-143.434806,-16.784924,3.221656,2.501479,9.649415
1101,-43.457694,-149.721523,-10.986496,3.108006,2.360314,9.660182
1102,-43.457694,-149.721523,-10.986496,3.108006,2.360314,9.660182
1103,-39.124132,-155.947204,-5.371176,2.948898,2.245469,9.635059
1104,-39.124132,-155.947204,-5.371176,2.948898,2.245469,9.635059
1105,-34.180209,-162.233921,-0.061036,2.782611,2.137801,9.651807
1106,-34.180209,-162.233921,-0.061036,2.782611,2.137801,9.651807
1107,-28.625925,-168.581674,4.882887,2.639054,2.057649,9.643433
1108,-28.625925,-168.581674,4.882887,2.639054,2.057649,9.643433
1109,-4.211490,-209.597925,24.109255,1.235785,2.229917,10.107601
1110,-39.124132,-271.732662,126.649882,-6.141842,3.000339,10.544253
1111,-40.466926,-273.990997,125.246052,-5.939666,2.978805,10.326525
1112,-40.466926,-273.990997,125.246052,-5.939666,2.978805,10.326525
1113,-41.260395,-275.150683,124.086366,-5.748257,2.940523,10.125545
1114,-41.260395,-275.150683,124.086366,-5.748257,2.940523,10.125545
1115,-41.382467,-275.516899,123.048753,-5.566418,2.898653,9.971221
1116,-41.382467,-275.516899,123.048753,-5.566418,2.898653,9.971221
1117,-40.894179,-275.089647,122.072175,-5.404916,2.887886,9.818094
1118,-40.894179,-275.089647,122.072175,-5.404916,2.887886,9.818094
1119,-39.978637,-273.929961,121.278706,-5.244611,2.866352,9.728371
1120,-2.624552,62.989242,114.869917,-3.291041,-2.342370,3.307790
1121,8.606088,79.163806,109.681849,-3.322145,-1.558788,3.937047
1122,8.606088,79.163806,109.681849,-3.322145,-1.558788,3.937047
1123,16.296635,92.469673,104.371710,-3.423832,-0.704625,4.587839
1124,16.296635,92.469673,104.371710,-3.423832,-0.704625,4.587839
1125,19.531548,102.540627,99.305715,-3.064939,0.467756,5.562829
1126,19.531548,102.540627,99.305715,-3.064939,0.467756,5.562829
1127,19.226368,108.827344,97.169451,-2.446448,1.209467,4.840259
1128,19.226368,108.827344,97.169451,-2.446448,1.209467,4.840259
1129,-57.495995,161.806668,99.305715,-1.281245,2.655802,6.296165
1130,1.586938,9.582666,1.525902,-0.488093,0.787170,10.118367
1131,-3.601129,6.836042,0.671397,-0.247636,0.425885,9.936529
1132,-3.601129,6.836042,0.671397,-0.247636,0.425885,9.936529
1133,-4.821851,5.127031,0.122072,0.061012,0.181839,9.714015
1134,-4.821851,5.127031,0.122072,0.061012,0.181839,9.714015
1135,-3.234913,5.737392,0.488289,0.283525,0.029908,9.599170
1136,-3.234913,5.737392,0.488289,0.283525,0.029908,9.599170
1137,-0.366217,8.300908,0.793469,0.230887,0.051441,9.473558
1138,-0.366217,8.300908,0.793469,0.230887,0.051441,9.473558
1139,2.258335,11.108568,0.793469,0.028711,0.169876,9.551318
1140,0.793469,2.746624,0.549325,-0.259599,0.160305,9.631470
1141,0.610361,2.258335,-0.122072,-0.196194,0.172268,9.625489
1142,0.610361,2.258335,-0.122072,-0.196194,0.172268,9.625489
1143,-1.220722,1.953155,-0.915541,-0.220121,0.269169,9.562084
1144,-1.220722,1.953155,-0.915541,-0.220121,0.269169,9.562084
1145,-2.136263,1.403830,-1.464866,-0.163894,0.229691,9.687697
1146,-2.136263,1.403830,-1.464866,-0.163894,0.229691,9.687697
1147,-2.624552,0.854505,-2.197299,-0.133986,0.300273,9.609937
1148,-2.624552,0.854505,-2.197299,-0.133986,0.300273,9.609937
1149,-4.699779,-0.122072,-4.882887,-0.271562,0.151931,9.678126
1150,-2.563516,7.690547,-2.014191,-0.324199,0.183035,9.243867
1151,-1.098650,8.728161,-1.953155,-0.500056,0.165090,9.778616
1152,-1.098650,8.728161,-1.953155,-0.500056,0.165090,9.778616
1153,-1.464866,6.897078,-2.807660,-0.547909,0.250028,9.876713
1154,-1.464866,6.897078,-2.807660,-0.547909,0.250028,9.876713
1155,-3.540093,4.760815,-3.601129,-0.366070,0.258402,9.737942
1156,-3.540093,4.760815,-3.601129,-0.366070,0.258402,9.737942
1157,-5.249104,3.662165,-4.150454,-0.193802,0.161501,9.526195
1158,-5.249104,3.662165,-4.150454,-0.193802,0.161501,9.526195
1159,-6.164645,4.394598,-4.516670,-0.167483,0.084938,9.497484
1160,-15.564202,134.523537,-12.939651,-0.015552,0.108864,9.292915
1161,-13.794156,142.641337,-13.244831,0.063404,0.155520,9.322823
1162,-13.794156,142.641337,-13.244831,0.063404,0.155520,9.322823
1163,-12.573434,150.698100,-13.672084,0.019141,0.333770,9.213959
1164,-12.573434,150.698100,-13.672084,0.019141,0.333770,9.213959
1165,-12.573434,158.999008,-13.672084,0.125612,0.443830,9.414939
1166,-12.573434,158.999008,-13.672084,0.125612,0.443830,9.414939
1167,-13.733120,166.628519,-13.672084,0.001196,0.378033,9.309664
1168,-13.733120,166.628519,-13.672084,0.001196,0.378033,9.309664
1169,-41.870756,215.762570,-32.471199,-1.219037,0.624472,9.553710
1170,-136.720836,-25.268940,41.931792,0.028711,1.575537,9.252241
1171,-136.720836,-25.268940,41.931792,0.028711,1.575537,9.252241
1172,-140.993362,-31.921874,38.330663,-0.020337,1.467869,9.303682
1173,-143.678950,-39.246204,34.973678,-0.075367,1.411643,9.417331
1174,-143.678950,-39.246204,34.973678,-0.075367,1.411643,9.417331
1175,-145.082780,-47.119860,32.227054,-0.172268,1.360201,9.493895
1176,-145.082780,-47.119860,32.227054,-0.172268,1.360201,9.493895
1177,-145.387961,-55.420768,29.846647,-0.281132,1.348238,9.563281
1178,-145.387961,-55.420768,29.846647,-0.281132,1.348238,9.563281
1179,-145.082780,-64.271000,27.954528,-0.410333,1.295601,9.589599
1180,-46.570535,-250.614176,157.534142,-6.383496,3.342483,8.158816
1181,-46.570535,-250.614176,157.534142,-6.383496,3.342483,8.158816
1182,-48.035401,-250.492103,158.632792,-6.329662,3.402298,8.022437
1183,-48.035401,-250.492103,158.632792,-6.329662,3.402298,8.022437
1184,-49.866484,-249.820707,159.487297,-6.262669,3.404691,7.777194
1185,-49.866484,-249.820707,159.487297,-6.262669,3.404691,7.777194
1186,-52.185855,-248.294804,160.158694,-6.177731,3.411868,7.588177
1187,-52.185855,-248.294804,160.158694,-6.177731,3.411868,7.588177
1188,-54.871443,-246.585794,160.463874,-6.046137,3.413065,7.425480
1189,-64.332036,-230.838483,160.708019,-5.665711,3.441776,7.035483
1190,-44.739452,-73.487449,219.851987,-2.896260,-0.510823,6.275828
1191,-44.434272,-68.665599,211.734188,-2.834052,-0.712999,6.284202
1192,-44.434272,-68.665599,211.734188,-2.834052,-0.712999,6.284202
1193,-41.626612,-63.904784,203.433280,-2.756292,-0.858949,6.267454
1194,-41.626612,-63.904784,203.433280,-2.756292,-0.858949,6.267454
1195,-37.720302,-58.899825,195.132372,-2.683317,-0.988150,6.243528
1196,-37.720302,-58.899825,195.132372,-2.683317,-0.988150,6.243528
1197,-33.752956,-53.894865,186.526284,-2.610343,-1.059928,6.239939
1198,-33.752956,-53.894865,186.526284,-2.610343,-1.059928,6.239939
1199,-30.151827,-48.706798,177.492943,-2.610343,-1.097014,6.121505
1200,0.488289,102.662699,-37.293050,-0.224906,4.112905,9.041691
1201,-23.010605,104.310674,-36.621653,-2.647428,4.182290,11.847031
1202,-23.010605,104.310674,-36.621653,-2.647428,4.182290,11.847031
1203,-33.325704,96.925307,-25.818265,-5.434824,3.855698,14.550686
1204,-33.325704,96.925307,-25.818265,-5.434824,3.855698,14.550686
1205,-27.222095,83.070115,-12.573434,-6.256687,2.147372,17.011490
1206,-27.222095,83.070115,-12.573434,-6.256687,2.147372,17.011490
1207,-17.517357,50.110628,-7.019150,-5.384579,0.090919,15.056724
1208,-17.517357,50.110628,-7.019150,-5.384579,0.090919,15.056724
1209,7.202258,37.415122,1.281758,-0.169876,-0.730944,9.834842
1210,-4.394598,0.488289,-3.845274,-0.132790,-0.081349,9.723586
1211,-4.394598,0.488289,-3.845274,-0.132790,-0.081349,9.723586
1212,-3.540093,0.488289,-4.150454,-0.198587,0.000000,9.679323
1213,-3.540093,0.488289,-4.150454,-0.198587,0.000000,9.679323
1214,-2.807660,0.549325,-4.089418,-0.168679,-0.062208,9.705641
1215,-2.807660,0.549325,-4.089418,-0.168679,-0.062208,9.705641
1216,-2.868696,0.549325,-4.333562,-0.218924,-0.046656,9.700856
1217,-2.868696,0.549325,-4.333562,-0.218924,-0.046656,9.700856
1218,-3.173877,0.427253,-4.394598,-0.238065,-0.076564,9.769046
1219,-3.173877,0.427253,-4.394598,-0.238065,-0.076564,9.769046
1220,0.915541,1.159686,1.525902,-0.291899,-0.059815,9.605151
1221,0.915541,1.159686,1.525902,-0.291899,-0.059815,9.605151
1222,1.709010,1.037613,1.647974,-0.246439,-0.004785,9.609937
1223,1.709010,1.037613,1.647974,-0.246439,-0.004785,9.609937
1224,2.563516,1.281758,1.770047,-0.211746,0.069386,9.594385
1225,2.563516,1.281758,1.770047,-0.211746,0.069386,9.594385
1226,2.929732,1.770047,1.892119,-0.222513,0.089723,9.606348
1227,2.929732,1.770047,1.892119,-0.222513,0.089723,9.606348
1228,2.685588,2.075227,1.953155,-0.211746,0.080153,9.656593
1229,2.807660,4.699779,1.953155,-0.230887,0.041871,9.631470
1230,-8.972305,71.534295,9.704738,-0.050245,-0.035889,9.831254
1231,-10.864424,74.891279,11.108568,-0.033497,-0.118434,9.576440
1232,-10.864424,74.891279,11.108568,-0.033497,-0.118434,9.576440
1233,-9.765774,80.567636,12.451362,-0.001196,-0.154324,9.446043
1234,-9.765774,80.567636,12.451362,-0.001196,-0.154324,9.446043
1235,-7.202258,86.549172,14.709697,-0.229691,-0.275151,9.435276
1236,-7.202258,86.549172,14.709697,-0.229691,-0.275151,9.435276
1237,-5.004959,92.042420,18.188754,-0.727355,-0.313433,9.448435
1238,-5.004959,92.042420,18.188754,-0.727355,-0.313433,9.448435
1239,-0.854505,96.681163,22.522316,-1.335079,-0.275151,9.426902
1240,-13.916228,140.993362,-78.248264,0.366070,1.649708,13.816153
1241,-12.573434,133.974212,-75.440604,0.620883,1.714308,13.615174
1242,-12.573434,133.974212,-75.440604,0.620883,1.714308,13.615174
1243,-11.902037,126.588846,-72.938125,0.925942,1.836332,13.448887
1244,-11.902037,126.588846,-72.938125,0.925942,1.836332,13.448887
1245,-11.841001,118.715190,-70.679789,0.986954,1.936822,13.349593
1246,-11.841001,118.715190,-70.679789,0.986954,1.936822,13.349593
1247,-12.146181,110.536355,-68.848707,1.086247,2.130623,13.377108
1248,-12.146181,110.536355,-68.848707,1.086247,2.130623,13.377108
1249,-25.635157,29.846647,-53.467613,0.389996,2.729973,14.953841
1250,20.874342,-202.944991,34.729534,-1.355416,-0.994131,4.470600
1251,16.723888,-196.902419,28.503853,-1.635352,-0.582602,4.437104
1252,16.723888,-196.902419,28.503853,-1.635352,-0.582602,4.437104
1253,13.488975,-190.615702,24.597543,-1.875810,-0.206961,4.291154
1254,13.488975,-190.615702,24.597543,-1.875810,-0.206961,4.291154
1255,11.230640,-183.718624,23.132677,-2.055256,0.100490,4.026770
1256,11.230640,-183.718624,23.132677,-2.055256,0.100490,4.026770
1257,9.643702,-175.967041,23.987182,-2.134212,0.397174,3.721712
1258,9.643702,-175.967041,23.987182,-2.134212,0.397174,3.721712
1259,8.056764,-166.994736,26.733806,-2.161727,0.679503,3.297023
1260,-85.267414,7.934691,-13.611048,-5.183600,-3.413065,13.773086
1261,-56.580453,-20.263981,-12.329290,-3.812631,-4.213394,11.931969
1262,-56.580453,-20.263981,-12.329290,-3.812631,-4.213394,11.931969
1263,-19.897765,-38.269627,-9.338521,-1.233393,-3.559014,9.704445
1264,-19.897765,-38.269627,-9.338521,-1.233393,-3.559014,9.704445
1265,13.611048,-38.025483,-5.920500,0.604135,-1.878202,8.097804
1266,13.611048,-38.025483,-5.920500,0.604135,-1.878202,8.097804
1267,36.072328,-24.231327,-2.319371,0.882875,-0.166287,8.128908
1268,36.072328,-24.231327,-2.319371,0.882875,-0.166287,8.128908
1269,-10.193027,-19.470512,0.061036,1.012076,-0.199783,9.241474
1270,-5.737392,-13.244831,-5.676356,-0.102882,-0.102882,9.806131
1271,-5.493248,-13.427939,-5.432212,-0.110060,-0.128005,9.812113
1272,-5.493248,-13.427939,-5.432212,-0.110060,-0.128005,9.812113
1273,-5.127031,-13.611048,-5.065995,-0.167483,-0.142361,9.838431
1274,-5.127031,-13.611048,-5.065995,-0.167483,-0.142361,9.838431
1275,-4.821851,-13.977264,-4.760815,-0.128005,-0.228495,9.882695
1276,-4.821851,-13.977264,-4.760815,-0.128005,-0.228495,9.882695
1277,-3.906310,-14.465553,-4.821851,-0.100490,-0.106471,9.776223
1278,-3.906310,-14.465553,-4.821851,-0.100490,-0.106471,9.776223
1279,-3.234913,-14.709697,-4.211490,0.019141,-0.224906,9.850394
1280,2.929732,5.127031,0.549325,0.547909,-0.260795,9.600366
1281,2.929732,5.127031,0.549325,0.547909,-0.260795,9.600366
1282,4.211490,7.263294,1.098650,0.485701,-0.276347,9.633863
1283,4.211490,7.263294,1.098650,0.485701,-0.276347,9.633863
1284,5.981537,8.911269,1.220722,0.497664,-0.179446,9.670948
1285,5.981537,8.911269,1.220722,0.497664,-0.179446,9.670948
1286,7.629511,10.498207,1.159686,0.580209,0.034693,9.582422
1287,7.629511,10.498207,1.159686,0.580209,0.034693,9.582422
1288,7.873655,12.573434,1.464866,0.667539,0.133986,9.547729
1289,7.568475,25.696193,2.929732,0.527572,-0.236869,9.754690
1290,152.285039,165.712978,17.212177,-13.320882,-0.818274,16.747106
1291,163.210498,136.537728,9.094377,-12.443989,0.348125,16.227909
1292,163.210498,136.537728,9.094377,-12.443989,0.348125,16.227909
1293,169.558251,101.686122,-0.183108,-10.730877,0.197391,13.229963
1294,169.558251,101.686122,-0.183108,-10.730877,0.197391,13.229963
1295,150.759136,85.755703,-23.804074,-8.798840,1.423606,10.854096
1296,150.759136,85.755703,-23.804074,-8.798840,1.423606,10.854096
1297,103.212024,79.285878,-48.584726,-7.790353,3.313771,11.525225
1298,103.212024,79.285878,-48.584726,-7.790353,3.313771,11.525225
1299,52.246891,68.238346,-64.820325,-7.062998,3.194141,11.600592
1300,-10.254063,-77.576867,64.332036,3.431009,1.819583,9.901836
1301,-10.254063,-77.576867,64.332036,3.431009,1.819583,9.901836
1302,-7.568475,-84.596017,69.092851,3.488432,1.662867,9.684108
1303,-7.568475,-84.596017,69.092851,3.488432,1.662867,9.684108
1304,-4.272526,-90.638590,73.609522,3.527910,1.530077,9.489110
1305,-4.272526,-90.638590,73.609522,3.527910,1.530077,9.489110
1306,-0.244144,-96.009766,77.943084,3.524321,1.416428,9.376657
1307,-0.244144,-96.009766,77.943084,3.524321,1.416428,9.376657
1308,4.150454,-100.831617,82.154574,3.436991,1.329097,9.392209
1309,18.432898,-129.884794,96.620127,2.924971,0.860145,9.205585
1310,0.610361,-67.811093,37.537194,-2.812519,-0.473738,5.944451
1311,0.366217,-62.012665,35.584039,-2.862763,-0.284721,6.267454
1312,0.366217,-62.012665,35.584039,-2.862763,-0.284721,6.267454
1313,-0.427253,-57.007706,34.241245,-2.951290,-0.113649,6.615579
1314,-0.427253,-57.007706,34.241245,-2.951290,-0.113649,6.615579
1315,-1.525902,-53.101396,33.264668,-3.046995,0.031104,6.872786
1316,-1.525902,-53.101396,33.264668,-3.046995,0.031104,6.872786
1317,-2.868696,-50.171664,32.776379,-3.134325,0.116042,7.072569
1318,-2.868696,-50.171664,32.776379,-3.134325,0.116042,7.072569
1319,-4.516670,-48.157473,32.715343,-3.213281,0.173465,7.163488
1320,-13.183795,-16.845960,-4.760815,0.326592,-0.089723,9.670948
1321,-13.183795,-16.845960,-4.760815,0.326592,-0.089723,9.670948
1322,-11.413748,-13.488975,-4.455634,0.445026,-0.257206,9.418528
1323,-11.413748,-13.488975,-4.455634,0.445026,-0.257206,9.418528
1324,-7.934691,-8.422980,-3.784237,0.254813,-0.309844,9.493895
1325,-4.089418,-4.089418,-2.807660,-0.045460,-0.265580,9.678126
1326,-4.089418,-4.089418,-2.807660,-0.045460,-0.265580,9.678126
1327,-1.709010,-2.136263,-1.647974,-0.215335,-0.168679,10.001129
1328,-0.366217,-3.662165,0.610361,-0.137575,0.095705,9.772634
1329,-0.976577,-3.234913,0.305180,-0.131594,0.145949,9.808524
1330,-0.061036,-3.601129,2.990768,-0.100490,-0.081349,9.776223
1331,0.610361,-3.662165,2.990768,-0.133986,-0.078956,9.742727
1332,0.610361,-3.662165,2.990768,-0.133986,-0.078956,9.742727
1333,1.647974,-3.845274,2.990768,-0.154324,-0.066993,9.721193
1334,1.647974,-3.845274,2.990768,-0.154324,-0.066993,9.721193
1335,2.014191,-3.601129,3.051804,-0.210550,-0.059815,9.772634
1336,2.014191,-3.601129,3.051804,-0.210550,-0.059815,9.772634
1337,1.831083,-4.577707,3.234913,-0.232084,-0.020337,9.848002
1338,1.831083,-4.577707,3.234913,-0.232084,-0.020337,9.848002
1339,2.197299,-5.432212,3.723201,-0.269169,0.010767,9.809720
1340,3.051804,9.277485,0.366217,0.248832,-0.033497,9.620703
1341,3.051804,9.277485,0.366217,0.248832,-0.033497,9.620703
1342,3.051804,10.498207,0.366217,0.278740,0.007178,9.583618
1343,3.295949,12.207218,0.427253,0.333770,0.043067,9.620703
1344,3.295949,12.207218,0.427253,0.333770,0.043067,9.620703
1345,3.479057,14.099336,0.671397,0.385211,0.092116,9.637452
1346,3.479057,14.099336,0.671397,0.385211,0.092116,9.637452
1347,3.418021,16.052491,0.976577,0.403156,0.094508,9.629078
1348,3.418021,16.052491,0.976577,0.403156,0.094508,9.629078
1349,4.943923,28.686961,4.333562,0.009570,0.096901,9.706838
1350,74.525063,213.809415,0.000000,-13.313704,-0.117238,14.572219
1351,74.341955,193.728542,-8.606088,-13.484776,-0.366070,15.941991
1352,74.341955,193.728542,-8.606088,-13.484776,-0.366070,15.941991
1353,72.022583,162.233921,-14.221408,-12.443989,-0.654380,14.649979
1354,72.022583,162.233921,-14.221408,-12.443989,-0.654380,14.649979
1355,73.182269,133.119707,-19.592584,-10.856489,-0.464167,12.302824
1356,73.182269,133.119707,-19.592584,-10.856489,-0.464167,12.302824
1357,84.046693,124.879835,-29.968719,-9.941314,-1.278853,9.985577
1358,84.046693,124.879835,-29.968719,-9.941314,-1.278853,9.985577
1359,84.290837,135.439078,-53.528649,-10.260728,0.108864,10.358825
1360,10.864424,-153.322652,72.083619,3.610455,2.238291,9.115862
1361,10.864424,-153.322652,72.083619,3.610455,2.238291,9.115862
1362,14.526589,-160.036622,78.309300,3.340090,2.201205,9.133806
1363,14.526589,-160.036622,78.309300,3.340090,2.201205,9.133806
1364,18.310826,-167.605097,84.657053,3.128344,2.144979,9.033317
1365,18.310826,-167.605097,84.657053,3.128344,2.144979,9.033317
1366,22.034028,-175.600824,90.943771,2.930953,2.076790,8.827552
1367,22.034028,-175.600824,90.943771,2.930953,2.076790,8.827552
1368,26.306554,-183.413443,97.291524,2.854389,1.981085,8.558383
1369,48.706798,-214.785992,133.913176,2.082771,1.394894,7.859739
1370,5.493248,5.615320,-24.841688,-3.308986,-0.275151,4.715843
1371,8.056764,14.343481,-23.071641,-3.165429,0.110060,5.046024
1372,8.056764,14.343481,-23.071641,-3.165429,0.110060,5.046024
1373,11.230640,22.583352,-19.470512,-3.213281,0.501253,5.695619
1374,11.230640,22.583352,-19.470512,-3.213281,0.501253,5.695619
1375,15.136950,29.053178,-14.099336,-3.462113,0.827845,6.446900
1376,15.136950,29.053178,-14.099336,-3.462113,0.827845,6.446900
1377,19.775692,32.104982,-6.958114,-3.769564,1.033610,7.124010
1378,19.775692,32.104982,-6.958114,-3.769564,1.033610,7.124010
1379,24.841688,31.311513,1.220722,-3.818613,1.265693,7.537932
1380,-3.845274,6.225681,1.037613,-0.075367,0.116042,9.763064
1381,-4.455634,6.836042,1.586938,-0.041871,-0.015552,9.686500
1382,-4.455634,6.836042,1.586938,-0.041871,-0.015552,9.686500
1383,-3.479057,7.995727,1.831083,-0.086134,-0.032300,9.724782
1384,-3.479057,7.995727,1.831083,-0.086134,-0.032300,9.724782
1385,-1.098650,8.911269,2.075227,-0.108864,-0.027515,9.751101
1386,-1.098650,8.911269,2.075227,-0.108864,-0.027515,9.751101
1387,1.037613,9.582666,2.136263,-0.098097,0.044263,9.737942
1388,-0.427253,9.643702,1.770047,-0.364874,0.016748,9.801346
1389,0.183108,8.789197,1.953155,-0.327788,-0.019141,9.757082
1390,0.793469,3.112840,-0.061036,-0.233280,0.196194,9.575244
1391,0.793469,3.112840,-0.061036,-0.233280,0.196194,9.575244
1392,0.732433,2.929732,-0.183108,-0.235673,0.206961,9.554907
1393,0.671397,3.051804,-0.244144,-0.218924,0.179446,9.586011
1394,0.671397,3.051804,-0.244144,-0.218924,0.179446,9.586011
1395,0.854505,3.112840,-0.366217,-0.212943,0.200980,9.589599
1396,0.854505,3.112840,-0.366217,-0.212943,0.200980,9.589599
1397,1.098650,3.173877,-0.366217,-0.226102,0.238065,9.621900
1398,1.098650,3.173877,-0.366217,-0.226102,0.238065,9.621900
1399,0.915541,3.173877,-0.305180,-0.204569,0.214139,9.623096
1400,2.197299,12.207218,-0.366217,-0.247636,0.184231,9.608740
1401,2.197299,12.207218,-0.366217,-0.247636,0.184231,9.608740
1402,2.502480,12.878614,-0.244144,-0.250028,0.169876,9.621900
1403,2.502480,12.878614,-0.244144,-0.250028,0.169876,9.621900
1404,2.441444,13.488975,-0.061036,-0.251225,0.193802,9.613526
1405,2.441444,13.488975,-0.061036,-0.251225,0.193802,9.613526
1406,2.197299,14.099336,-0.061036,-0.266777,0.193802,9.631470
1407,2.197299,14.099336,-0.061036,-0.266777,0.193802,9.631470
1408,3.173877,19.592584,0.427253,-0.226102,0.234476,9.548925
1409,2.502480,20.630198,0.244144,-0.220121,0.181839,9.575244
1410,40.955215,222.049287,13.183795,-3.507573,-0.326592,9.667359
1411,40.955215,222.049287,13.183795,-3.507573,-0.326592,9.667359
1412,40.222782,224.979019,7.629511,-4.931179,-0.442634,9.233100
1413,40.222782,224.979019,7.629511,-4.931179,-0.442634,9.233100
1414,26.245518,227.176318,-2.746624,-6.572512,-0.995328,9.406564
1415,26.245518,227.176318,-2.746624,-6.572512,-0.995328,9.406564
1416,6.530861,223.208972,-18.310826,-7.799924,-1.678419,9.681715
1417,6.530861,223.208972,-18.310826,-7.799924,-1.678419,9.681715
1418,-8.667124,213.809415,-35.584039,-8.827552,-1.826761,10.783514
1419,-8.667124,213.809415,-35.584039,-8.827552,-1.826761,10.783514
1420,-38.391699,118.165866,-112.306401,0.379229,1.021646,12.451167
1421,-38.391699,118.165866,-112.306401,0.379229,1.021646,12.451167
1422,-39.490349,104.615854,-112.489509,0.671128,1.318331,12.505000
1423,-39.490349,104.615854,-112.489509,0.671128,1.318331,12.505000
1424,-40.344854,91.676204,-111.207752,0.898427,1.587500,12.518160
1425,-40.344854,91.676204,-111.207752,0.898427,1.587500,12.518160
1426,-40.772107,79.468986,-108.522164,1.085051,1.820780,12.530123
1427,-40.772107,79.468986,-108.522164,1.085051,1.820780,12.530123
1428,-40.650034,67.261769,-104.493782,1.242963,1.993048,12.423651
1429,-44.007019,7.202258,-74.280919,2.318444,3.015891,11.661604
1430,-37.476158,-306.218051,108.278019,-2.170101,2.518227,9.874321
1431,-37.903410,-306.218051,106.202792,-2.344762,2.738347,9.821683
1432,-37.903410,-306.218051,106.202792,-2.344762,2.738347,9.821683
1433,-39.246204,-306.095979,104.493782,-2.497890,2.945309,9.788186
1434,-41.687648,-306.095979,103.212024,-2.590005,3.050584,9.759475
1435,-41.687648,-306.095979,103.212024,-2.590005,3.050584,9.759475
1436,-44.861524,-305.729763,101.747158,-2.685710,3.198926,9.715212
1437,-44.861524,-305.729763,101.747158,-2.685710,3.198926,9.715212
1438,-48.523690,-304.875258,100.038148,-2.750311,3.263526,9.763064
1439,-48.523690,-304.875258,100.038148,-2.750311,3.263526,9.763064
1440,-8.361944,-114.991989,163.149462,-9.876713,-0.801526,4.583053
1441,-8.361944,-114.991989,163.149462,-9.876713,-0.801526,4.583053
1442,-12.207218,-109.742885,144.716564,-9.753494,-1.296797,4.017200
1443,-12.207218,-109.742885,144.716564,-9.753494,-1.296797,4.017200
1444,-12.817578,-103.822385,127.382315,-9.520214,-1.771731,3.447758
1445,-12.817578,-103.822385,127.382315,-9.520214,-1.771731,3.447758
1446,-9.338521,-96.314946,112.672618,-9.111077,-2.235898,2.729973
1447,-9.338521,-96.314946,112.672618,-9.111077,-2.235898,2.729973
1448,-0.122072,-86.305028,100.587472,-8.554794,-2.582827,2.184457
1449,78.553445,-0.671397,75.440604,-6.060493,-1.355416,1.452317
1450,-3.540093,15.503166,-5.065995,-0.163894,0.507234,9.775027
1451,-3.540093,15.503166,-5.065995,-0.163894,0.507234,9.775027
1452,-5.249104,15.197986,-5.310140,-0.318218,0.403156,9.858769
1453,-5.249104,15.197986,-5.310140,-0.318218,0.403156,9.858769
1454,-6.347753,14.099336,-5.432212,-0.315825,0.290703,9.954473
1455,-6.347753,14.099336,-5.432212,-0.315825,0.290703,9.954473
1456,-6.225681,12.390326,-5.859464,-0.250028,0.214139,9.798953
1457,-6.225681,12.390326,-5.859464,-0.250028,0.214139,9.798953
1458,-5.798428,11.841001,-6.103609,-0.204569,0.236869,9.752297
1459,-5.798428,11.841001,-6.103609,-0.204569,0.236869,9.752297
1460,-2.807660,0.488289,-5.004959,-0.232084,0.116042,9.647022
1461,-2.807660,0.488289,-5.004959,-0.232084,0.116042,9.647022
1462,-3.173877,0.793469,-5.188067,-0.197391,0.058619,9.741530
1463,-3.173877,0.793469,-5.188067,-0.197391,0.058619,9.741530
1464,-4.516670,0.549325,-5.249104,-0.074171,0.011963,9.843217
1465,-4.516670,0.549325,-5.249104,-0.074171,0.011963,9.843217
1466,-5.981537,0.061036,-4.150454,-0.245243,0.071778,9.498680
1467,-5.981537,0.061036,-4.150454,-0.245243,0.071778,9.498680
1468,-3.112840,1.525902,-4.516670,-0.181839,0.118434,9.611133
1469,-4.028382,3.112840,-3.601129,-0.118434,-0.076564,9.673341
1470,-8.972305,74.586099,-0.793469,0.315825,0.074171,9.315645
1471,-9.155413,82.703899,-1.464866,0.354107,0.112453,9.363497
1472,-9.155413,82.703899,-1.464866,0.354107,0.112453,9.363497
1473,-9.643702,90.699626,-2.380407,0.391192,0.199783,9.422116
1474,-9.643702,90.699626,-2.380407,0.391192,0.199783,9.422116
1475,-11.169604,98.695354,-3.479057,0.427082,0.153127,9.376657
1476,-11.169604,98.695354,-3.479057,0.427082,0.153127,9.376657
1477,-13.366903,107.301442,-5.310140,0.441437,0.226102,9.330001
1478,-13.366903,107.301442,-5.310140,0.441437,0.226102,9.330001
1479,-14.770733,116.884108,-7.202258,0.466560,0.394781,9.369479
1480,-95.216297,-6.713970,145.754177,2.036115,3.597296,7.646796
1481,-95.216297,-6.713970,145.754177,2.036115,3.597296,7.646796
1482,-108.155947,-2.319371,141.664759,1.802835,3.434598,7.973388
1483,-108.155947,-2.319371,141.664759,1.802835,3.434598,7.973388
1484,-121.889067,-0.549325,135.927367,1.448728,3.185766,8.321514
1485,-121.889067,-0.549325,135.927367,1.448728,3.185766,8.321514
1486,-135.500114,-1.525902,129.640650,1.150848,2.928560,8.760558
1487,-135.500114,-1.525902,129.640650,1.150848,2.928560,8.760558
1488,-147.951476,-5.004959,123.598077,0.904408,2.670158,9.184051
1489,-171.206226,-42.664225,107.423514,0.516805,1.484617,10.515541
1490,-84.290837,-270.328832,186.037995,-3.736068,4.745751,9.955669
1491,-84.290837,-270.328832,186.037995,-3.736068,4.745751,9.955669
1492,-83.558404,-266.727703,192.385748,-3.913121,4.851026,9.900639
1493,-83.558404,-266.727703,192.385748,-3.913121,4.851026,9.900639
1494,-82.887007,-262.760357,198.855573,-4.126064,5.030472,9.852787
1495,-82.887007,-262.760357,198.855573,-4.126064,5.030472,9.852787
1496,-82.398718,-258.182651,205.325399,-4.379681,5.280500,9.806131
1497,-82.398718,-258.182651,205.325399,-4.379681,5.280500,9.806131
1498,-82.459754,-253.116655,211.917296,-4.682347,5.572399,9.800150
1499,-82.459754,-253.116655,211.917296,-4.682347,5.572399,9.800150
1500,-63.721675,56.153201,-40.039673,-2.562490,3.580548,7.961425
1501,-58.716716,57.129778,-32.104982,-1.216645,2.251450,6.883552
1502,-58.716716,57.129778,-32.104982,-1.216645,2.251450,6.883552
1503,-63.355459,75.257496,-21.667811,0.130397,4.898878,8.969912
1504,-63.355459,75.257496,-21.667811,0.130397,4.898878,8.969912
1505,-40.039673,86.305028,7.873655,0.990542,5.145318,10.490419
1506,-40.039673,86.305028,7.873655,0.990542,5.145318,10.490419
1507,-6.225681,81.727321,33.203632,1.414035,3.926281,8.516512
1508,-6.225681,81.727321,33.203632,1.414035,3.926281,8.516512
1509,-175.478752,182.619974,18.921187,6.864411,-2.792181,5.571203
1510,-6.897078,5.371176,-8.056764,-0.117238,0.289506,9.798953
1511,-8.178836,4.699779,-9.155413,-0.049049,0.358892,9.725978
1512,-8.178836,4.699779,-9.155413,-0.049049,0.358892,9.725978
1513,-9.643702,4.150454,-9.826810,-0.025122,0.332573,9.629078
1514,-9.643702,4.150454,-9.826810,-0.025122,0.332573,9.629078
1515,-10.803388,4.150454,-10.681315,0.050245,0.448615,9.620703
1516,-10.803388,4.150454,-10.681315,0.050245,0.448615,9.620703
1517,-10.742351,4.516670,-10.498207,0.016748,0.470149,9.658985
1518,-10.742351,4.516670,-10.498207,0.016748,0.470149,9.658985
1519,-10.437171,5.310140,-9.765774,-0.034693,0.376837,9.724782
1520,0.000000,1.586938,-1.159686,0.008374,-0.051441,9.715212
1521,0.000000,1.586938,-1.159686,0.008374,-0.051441,9.715212
1522,0.000000,2.075227,-2.319371,0.004785,0.062208,9.629078
1523,0.000000,2.075227,-2.319371,0.004785,0.062208,9.629078
1524,0.183108,2.014191,-1.892119,-0.043067,0.059815,9.664967
1525,0.183108,2.014191,-1.892119,-0.043067,0.059815,9.664967
1526,1.281758,2.380407,-1.464866,0.016748,0.034693,9.758279
1527,1.281758,2.380407,-1.464866,0.016748,0.034693,9.758279
1528,1.403830,3.112840,-1.403830,0.083742,0.032300,9.696071
1529,1.464866,7.385367,0.427253,-0.005982,-0.142361,9.704445
1530,-0.732433,32.288090,-0.671397,-0.305058,0.065797,9.541747
1531,-0.732433,32.288090,-0.671397,-0.305058,0.065797,9.541747
1532,-1.098650,33.386740,-0.366217,-0.317021,0.020337,9.538158
1533,-1.098650,33.386740,-0.366217,-0.317021,0.020337,9.538158
1534,-1.831083,34.607462,0.000000,-0.370855,0.008374,9.481932
1535,-1.831083,34.607462,0.000000,-0.370855,0.008374,9.481932
1536,-1.892119,35.767147,0.488289,-0.416315,-0.040674,9.486717
1537,-1.892119,35.767147,0.488289,-0.416315,-0.040674,9.486717
1538,-1.098650,36.621653,0.671397,-0.417511,0.014356,9.486717
1539,-1.098650,36.621653,0.671397,-0.417511,0.014356,9.486717
1540,-70.496681,217.349508,-64.515145,-7.048643,0.873304,11.380472
1541,-70.496681,217.349508,-64.515145,-7.048643,0.873304,11.380472
1542,-76.539254,211.001755,-63.477531,-7.576214,1.064714,11.756112
1543,-76.539254,211.001755,-63.477531,-7.576214,1.064714,11.756112
1544,-84.840162,200.137331,-62.928206,-8.376544,1.569555,12.299236
1545,-84.840162,200.137331,-62.928206,-8.376544,1.569555,12.299236
1546,-94.911116,182.742046,-60.242618,-8.814392,2.026545,13.384286
1547,-94.911116,182.742046,-60.242618,-8.814392,2.026545,13.384286
1548,-108.155947,156.496529,-55.176623,-9.771438,2.261021,13.831705
1549,-176.394293,-12.085145,1.159686,-9.175677,-0.799133,10.691398
1550,-65.003433,-100.831617,11.169604,0.278740,1.271675,8.400470
1551,-65.003433,-100.831617,11.169604,0.278740,1.271675,8.400470
1552,-58.716716,-103.700313,18.738079,0.464167,1.158025,8.176761
1553,-58.716716,-103.700313,18.738079,0.464167,1.158025,8.176761
1554,-51.270314,-105.836576,26.367590,0.646006,1.106584,8.012866
1555,-51.270314,-105.836576,26.367590,0.646006,1.106584,8.012866
1556,-42.908370,-107.484550,33.997101,0.857752,1.095818,7.804709
1557,-42.908370,-107.484550,33.997101,0.857752,1.095818,7.804709
1558,-34.729534,-108.400092,41.138323,1.044376,1.150848,7.580999
1559,-34.729534,-108.400092,41.138323,1.044376,1.150848,7.580999
1560,4.394598,-138.063630,83.009079,-1.056339,-1.597070,7.451798
1561,4.943923,-138.246738,72.877089,-1.231000,-1.539648,7.530755
1562,5.249104,-138.612955,62.989242,-1.363790,-1.420017,7.514006
1563,5.249104,-138.612955,62.989242,-1.363790,-1.420017,7.514006
1564,5.371176,-139.040208,53.711757,-1.434372,-1.264497,7.419498
1565,5.371176,-139.040208,53.711757,-1.434372,-1.264497,7.419498
1566,6.042573,-139.223316,45.349813,-1.424802,-1.097014,7.314223
1567,6.042573,-139.223316,45.349813,-1.424802,-1.097014,7.314223
1568,16.601816,-122.438392,14.038300,-1.747805,-0.148342,6.774688
1569,16.601816,-122.438392,14.038300,-1.747805,-0.148342,6.774688
1570,3.112840,16.845960,1.159686,-0.419904,0.836219,9.838431
1571,3.540093,14.526589,1.953155,0.191409,1.369772,9.176873
1572,3.540093,14.526589,1.953155,0.191409,1.369772,9.176873
1573,1.892119,16.052491,2.441444,0.349322,1.466673,9.507054
1574,1.892119,16.052491,2.441444,0.349322,1.466673,9.507054
1575,-1.525902,18.249790,2.990768,0.100490,1.020450,9.909014
1576,-1.525902,18.249790,2.990768,0.100490,1.020450,9.909014
1577,-6.713970,18.127718,2.868696,-0.413922,0.468952,10.001129
1578,-6.713970,18.127718,2.868696,-0.413922,0.468952,10.001129
1579,-11.841001,15.869383,1.037613,-0.708214,-0.074171,10.455726
1580,-5.676356,-3.479057,-4.699779,0.157913,-0.077760,9.909014
1581,-6.591897,-3.295949,-4.150454,0.181839,-0.116042,9.870732
1582,-6.591897,-3.295949,-4.150454,0.181839,-0.116042,9.870732
1583,-5.737392,-3.051804,-3.784237,0.220121,-0.129201,9.873124
1584,-5.737392,-3.051804,-3.784237,0.220121,-0.129201,9.873124
1585,-4.516670,-2.258335,-3.784237,0.126809,0.016748,9.830057
1586,-4.516670,-2.258335,-3.784237,0.126809,0.016748,9.830057
1587,-4.089418,-2.075227,-3.356985,0.059815,-0.028711,9.943706
1588,-4.089418,-2.075227,-3.356985,0.059815,-0.028711,9.943706
1589,-0.305180,-0.976577,-2.380407,-0.065797,0.076564,10.227231
1590,3.418021,12.207218,2.075227,0.003589,-0.099294,9.816898
1591,3.418021,11.718929,2.014191,-0.043067,-0.053834,9.825272
1592,3.418021,11.718929,2.014191,-0.043067,-0.053834,9.825272
1593,3.112840,11.047532,1.831083,-0.019141,-0.011963,9.839628
1594,3.112840,11.047532,1.831083,-0.019141,-0.011963,9.839628
1595,2.685588,10.437171,1.586938,-0.009570,0.025122,9.807327
1596,2.685588,10.437171,1.586938,-0.009570,0.025122,9.807327
1597,2.502480,10.009918,1.403830,-0.004785,0.010767,9.775027
1598,2.502480,10.009918,1.403830,-0.004785,0.010767,9.775027
1599,2.319371,9.643702,1.281758,-0.057423,-0.002393,9.820487
1600,3.479057,29.541466,2.685588,-0.037086,-0.045460,9.736745
1601,2.868696,30.884260,3.051804,-0.009570,-0.034693,9.742727
1602,2.868696,30.884260,3.051804,-0.009570,-0.034693,9.742727
1603,2.807660,32.715343,3.540093,-0.001196,-0.069386,9.626685
1604,2.807660,32.715343,3.540093,-0.001196,-0.069386,9.626685
1605,2.685588,35.217823,4.028382,0.074171,-0.084938,9.661378
1606,2.685588,35.217823,4.028382,0.074171,-0.084938,9.661378
1607,2.807660,38.086519,4.577707,0.098097,-0.095705,9.603955
1608,2.807660,38.086519,4.577707,0.098097,-0.095705,9.603955
1609,1.647974,61.524376,4.272526,0.105275,0.039478,9.691286
1610,55.359731,106.385901,-79.102770,-5.833194,-0.872108,11.667585
1611,55.359731,106.385901,-79.102770,-5.833194,-0.872108,11.667585
1612,55.848020,103.456168,-86.427100,-5.614270,-0.646006,11.863780
1613,55.848020,103.456168,-86.427100,-5.614270,-0.646006,11.863780
1614,54.993515,100.160220,-93.873503,-5.303230,-0.384015,11.965466
1615,54.993515,100.160220,-93.873503,-5.303230,-0.384015,11.965466
1616,53.162432,96.681163,-101.014725,-4.873756,-0.136379,11.921202
1617,53.162432,96.681163,-101.014725,-4.873756,-0.136379,11.921202
1618,49.622339,93.507286,-107.423514,-4.389252,0.104079,11.783627
1619,49.622339,93.507286,-107.423514,-4.389252,0.104079,11.783627
1620,19.409476,-176.638437,155.580987,1.865043,0.997720,8.243754
1621,19.409476,-176.638437,155.580987,1.865043,0.997720,8.243754
1622,24.963760,-181.887541,160.830091,1.947588,0.714195,7.856150
1623,24.963760,-181.887541,160.830091,1.947588,0.714195,7.856150
1624,31.555657,-185.183490,165.163653,1.958355,0.460578,7.585785
1625,31.555657,-185.183490,165.163653,1.958355,0.460578,7.585785
1626,38.391699,-187.136645,168.459602,1.877006,0.214139,7.386001
1627,38.391699,-187.136645,168.459602,1.877006,0.214139,7.386001
1628,44.617380,-188.662547,170.595865,1.784891,0.017945,7.185022
1629,58.777752,-186.465248,159.914549,1.379342,-0.634043,5.977948
1630,18.005646,-13.366903,3.051804,-2.294517,1.117351,6.029389
1631,18.005646,-13.366903,3.051804,-2.294517,1.117351,6.029389
1632,21.240558,-6.164645,9.765774,-1.981085,1.193915,5.916936
1633,21.240558,-6.164645,9.765774,-1.981085,1.193915,5.916936
1634,23.743038,0.671397,16.174563,-1.764553,1.580322,5.760220
1635,23.743038,0.671397,16.174563,-1.764553,1.580322,5.760220
1636,32.776379,13.305867,18.677043,-2.684514,2.862763,3.220459
1637,32.776379,13.305867,18.677043,-2.684514,2.862763,3.220459
1638,39.307240,46.326390,8.178836,-3.576959,2.960861,1.979889
1639,39.307240,46.326390,8.178836,-3.576959,2.960861,1.979889
1640,-6.225681,-7.446403,-2.563516,-0.059815,0.234476,9.728371
1641,-6.713970,-7.141222,-2.990768,-0.037086,0.263188,9.800150
1642,-6.713970,-7.141222,-2.990768,-0.037086,0.263188,9.800150
1643,-6.591897,-7.690547,-3.601129,-0.063404,0.218924,9.885087
1644,-6.591897,-7.690547,-3.601129,-0.063404,0.218924,9.885087
1645,-7.263294,-8.178836,-4.516670,0.005982,0.276347,9.907817
1646,-7.263294,-8.178836,-4.516670,0.005982,0.276347,9.907817
1647,-8.972305,-8.667124,-5.127031,0.166287,0.159109,9.764260
1648,-10.009918,-7.019150,-5.493248,-0.059815,0.261991,9.788186
1649,-9.094377,-7.019150,-4.455634,-0.015552,0.208157,10.041804
1650,3.295949,1.892119,1.953155,0.119631,-0.026319,9.954473
1651,3.662165,1.464866,2.075227,0.143557,-0.039478,9.849198
1652,3.662165,1.464866,2.075227,0.143557,-0.039478,9.849198
1653,4.089418,1.464866,2.136263,0.143557,-0.039478,9.849198
1654,4.089418,1.464866,2.136263,0.143557,-0.039478,9.849198
1655,4.577707,1.525902,2.258335,0.159109,-0.017945,9.888676
1656,4.577707,1.525902,2.258335,0.159109,-0.017945,9.888676
1657,4.516670,1.770047,2.441444,0.130397,0.001196,9.875517
1658,4.516670,1.770047,2.441444,0.130397,0.001196,9.875517
1659,4.638743,1.831083,2.746624,0.107668,0.004785,9.873124
1660,4.699779,12.085145,2.685588,-0.008374,0.113649,9.802542
1661,4.516670,11.718929,2.441444,0.019141,0.216532,9.773831
1662,4.516670,11.718929,2.441444,0.019141,0.216532,9.773831
1663,3.845274,11.596857,2.075227,0.066993,0.244047,9.766653
1664,3.845274,11.596857,2.075227,0.066993,0.244047,9.766653
1665,2.746624,11.596857,1.525902,0.100490,0.258402,9.761868
1666,2.746624,11.596857,1.525902,0.100490,0.258402,9.761868
1667,1.281758,11.718929,0.671397,0.132790,0.315825,9.777420
1668,-1.647974,14.770733,-1.586938,0.131594,0.273954,9.773831
1669,-1.770047,15.869383,-1.525902,0.116042,0.187820,9.781009
1670,54.871443,243.961242,-5.004959,-9.873124,-0.289506,11.925988
1671,54.383154,236.453803,-15.503166,-11.135229,0.436652,12.551656
1672,54.383154,236.453803,-15.503166,-11.135229,0.436652,12.551656
1673,55.786984,225.345235,-22.461280,-11.642463,0.703429,13.328060
1674,55.786984,225.345235,-22.461280,-11.642463,0.703429,13.328060
1675,51.697566,204.654002,-26.123445,-11.606574,0.306255,14.371240
1676,51.697566,204.654002,-26.123445,-11.606574,0.306255,14.371240
1677,38.818952,173.830777,-30.457008,-11.061057,0.937905,14.964608
1678,38.818952,173.830777,-30.457008,-11.061057,0.937905,14.964608
1679,24.780652,142.580301,-34.973678,-10.730877,0.635239,13.642689
1680,-13.122759,-74.219883,41.809720,3.895177,2.025348,8.023633
1681,-9.277485,-75.684749,48.218509,3.904747,1.897343,8.029615
1682,-9.277485,-75.684749,48.218509,3.904747,1.897343,8.029615
1683,-4.638743,-77.637903,54.505226,3.821006,1.824369,8.102589
1684,-4.638743,-77.637903,54.505226,3.821006,1.824369,8.102589
1685,0.610361,-79.896239,60.730907,3.665486,1.798050,8.280839
1686,0.610361,-79.896239,60.730907,3.665486,1.798050,8.280839
1687,5.432212,-83.070115,66.895552,3.403494,1.799246,8.509334
1688,19.409476,-121.522850,100.709545,2.548135,1.798050,8.693565
1689,19.409476,-121.522850,100.709545,2.548135,1.798050,8.693565
1690,1.281758,-66.773480,54.077974,-2.849604,0.348125,6.005463
1691,1.281758,-66.773480,54.077974,-2.849604,0.348125,6.005463
1692,0.122072,-61.951629,56.885634,-2.958468,0.077760,6.269847
1693,0.122072,-61.951629,56.885634,-2.958468,0.077760,6.269847
1694,0.122072,-58.472572,59.021897,-3.062547,-0.212943,6.516286
1695,0.122072,-58.472572,59.021897,-3.062547,-0.212943,6.516286
1696,0.732433,-56.092164,60.059510,-3.112792,-0.509627,6.720855
1697,0.732433,-56.092164,60.059510,-3.112792,-0.509627,6.720855
1698,1.647974,-54.322118,59.937438,-3.108006,-0.791955,6.804596
1699,1.647974,-54.322118,59.937438,-3.108006,-0.791955,6.804596
1700,42.359045,-19.226368,4.699779,0.153127,1.536059,10.157845
1701,33.203632,-18.738079,7.934691,0.251225,1.740627,10.138705
1702,33.203632,-18.738079,7.934691,0.251225,1.740627,10.138705
1703,16.296635,-18.493935,9.338521,0.350518,1.349435,10.126741
1704,16.296635,-18.493935,9.338521,0.350518,1.349435,10.126741
1705,3.173877,-18.066682,8.911269,0.436652,0.716588,9.948492
1706,3.173877,-18.066682,8.911269,0.436652,0.716588,9.948492
1707,0.305180,-16.784924,8.545052,0.538338,0.230887,9.723586
1708,8.422980,-6.042573,6.836042,0.324199,0.693858,9.840824
1709,8.422980,-6.042573,6.836042,0.324199,0.693858,9.840824
1710,-2.502480,1.342794,-0.915541,-0.350518,0.257206,10.039411
1711,-2.502480,1.342794,-0.915541,-0.350518,0.257206,10.039411
1712,-1.159686,-0.976577,-0.793469,-0.230887,0.282329,9.935332
1713,-1.159686,-0.976577,-0.793469,-0.230887,0.282329,9.935332
1714,-0.976577,-2.746624,-0.915541,-0.138772,0.350518,9.853983
1715,-0.976577,-2.746624,-0.915541,-0.138772,0.350518,9.853983
1716,-1.464866,-3.601129,-1.098650,-0.104079,0.410333,9.795364
1717,-1.464866,-3.601129,-1.098650,-0.104079,0.410333,9.795364
1718,-1.586938,-4.211490,-1.098650,-0.112453,0.388800,9.855180
1719,-1.586938,-4.211490,-1.098650,-0.112453,0.388800,9.855180
1720,0.122072,-10.070954,-1.220722,0.273954,0.308647,9.814505
1721,0.122072,-10.070954,-1.220722,0.273954,0.308647,9.814505
1722,0.244144,-9.277485,-1.525902,0.256010,0.317021,9.844413
1723,0.244144,-9.277485,-1.525902,0.256010,0.317021,9.844413
1724,-0.488289,-8.972305,-1.647974,0.260795,0.340948,9.867143
1725,-0.488289,-8.972305,-1.647974,0.260795,0.340948,9.867143
1726,-0.732433,-8.850233,-1.709010,0.291899,0.357696,9.819290
1727,-0.732433,-8.850233,-1.709010,0.291899,0.357696,9.819290
1728,-0.488289,-8.300908,-1.831083,0.340948,0.427082,9.730764
1729,-3.723201,-3.540093,-0.976577,0.221317,0.325396,9.920977
1730,-8.728161,121.400778,0.305180,0.763244,0.138772,9.766653
1731,-11.352712,129.396506,0.305180,1.019254,0.098097,9.508251
1732,-11.352712,129.396506,0.305180,1.019254,0.098097,9.508251
1733,-12.268254,140.505074,0.305180,1.403268,-0.089723,9.318038
1734,-12.512398,153.200580,0.305180,1.411643,-0.282329,8.800037
1735,-12.512398,153.200580,0.305180,1.411643,-0.282329,8.800037
1736,-9.399557,169.497215,0.061036,1.252534,-0.184231,8.405255
1737,-9.399557,169.497215,0.061036,1.252534,-0.184231,8.405255
1738,-2.563516,187.685969,1.159686,0.830237,-0.034693,8.563168
1739,-2.563516,187.685969,1.159686,0.830237,-0.034693,8.563168
1740,-1.281758,59.388113,-154.177157,-3.140307,3.433402,11.027561
1741,-8.972305,54.932479,-146.913863,-3.087669,3.564996,11.242896
1742,-8.972305,54.932479,-146.913863,-3.087669,3.564996,11.242896
1743,-15.930419,49.195087,-137.819486,-2.952486,3.673860,11.388846
1744,-15.930419,49.195087,-137.819486,-2.952486,3.673860,11.388846
1745,-22.034028,42.175937,-127.443351,-2.786200,3.725301,11.351760
1746,-22.034028,42.175937,-127.443351,-2.786200,3.725301,11.351760
1747,-26.916915,34.668498,-116.090639,-2.512245,3.775546,11.235718
1748,-34.851606,2.014191,-51.148241,-0.430671,3.536284,9.743923
1749,-33.997101,-2.502480,-38.269627,0.044263,3.508769,9.466380
1750,38.757916,-188.113222,108.033875,0.242850,0.014356,6.128682
1751,38.757916,-188.113222,108.033875,0.242850,0.014356,6.128682
1752,37.476158,-186.831464,105.958648,0.351714,-0.075367,5.803287
1753,37.476158,-186.831464,105.958648,0.351714,-0.075367,5.803287
1754,35.828183,-184.023804,102.906844,0.401959,-0.196194,5.619055
1755,35.828183,-184.023804,102.906844,0.401959,-0.196194,5.619055
1756,33.752956,-180.300603,99.000534,0.400763,-0.314629,5.552062
1757,33.752956,-180.300603,99.000534,0.400763,-0.314629,5.552062
1758,32.104982,-176.089113,94.483864,0.343340,-0.430671,5.507799
1759,32.104982,-176.089113,94.483864,0.343340,-0.430671,5.507799
1760,-362.493324,48.950942,-209.170672,-9.436472,3.427420,19.599701
1761,-362.493324,48.950942,-209.170672,-9.436472,3.427420,19.599701
1762,-278.141451,33.997101,-132.265202,-9.454417,-0.802722,18.488930
1763,-278.141451,33.997101,-132.265202,-9.454417,-0.802722,18.488930
1764,-175.112535,7.873655,-71.107042,-6.291380,-5.097465,15.236170
1765,-175.112535,7.873655,-71.107042,-6.291380,-5.097465,15.236170
1766,-101.564050,-22.339208,-34.363317,-2.130623,-7.863328,11.813535
1767,-101.564050,-22.339208,-34.363317,-2.130623,-7.863328,11.813535
1768,-68.299382,-32.288090,-15.136950,1.967926,-9.258222,8.217435
1769,96.620127,58.411536,15.014878,-1.356612,-2.124642,10.313365
1770,-7.812619,-4.760815,-4.150454,0.099294,-0.221317,9.755886
1771,-7.019150,-3.418021,-3.784237,0.053834,-0.264384,9.674537
1772,-7.019150,-3.418021,-3.784237,0.053834,-0.264384,9.674537
1773,-5.737392,-2.563516,-3.112840,-0.003589,-0.278740,9.715212
1774,-5.737392,-2.563516,-3.112840,-0.003589,-0.278740,9.715212
1775,-4.211490,-2.136263,-2.380407,0.218924,-0.510823,9.828861
1776,-4.211490,-2.136263,-2.380407,0.218924,-0.510823,9.828861
1777,-2.929732,-0.732433,-2.990768,-0.033497,0.022730,9.417331
1778,-2.929732,-0.732433,-2.990768,-0.033497,0.022730,9.417331
1779,-2.014191,0.305180,-1.342794,-0.189017,-0.156716,9.834842
1780,2.563516,4.028382,1.770047,0.055030,-0.144753,9.678126
1781,3.906310,4.638743,2.014191,0.039478,-0.136379,9.650611
1782,3.906310,4.638743,2.014191,0.039478,-0.136379,9.650611
1783,5.432212,5.065995,2.258335,0.019141,-0.070582,9.686500
1784,5.432212,5.065995,2.258335,0.019141,-0.070582,9.686500
1785,6.164645,5.188067,2.441444,0.003589,0.005982,9.672145
1786,6.164645,5.188067,2.441444,0.003589,0.005982,9.672145
1787,6.469825,5.249104,2.685588,-0.004785,-0.016748,9.702052
1788,7.019150,8.239872,3.173877,-0.001196,0.037086,9.690089
1789,7.141222,8.484016,2.929732,-0.017945,0.047852,9.772634
1790,4.394598,51.026169,5.554284,-0.205765,0.193802,9.572851
1791,4.394598,51.026169,5.554284,-0.205765,0.193802,9.572851
1792,3.723201,53.162432,4.943923,-0.211746,0.258402,9.519017
1793,3.723201,53.162432,4.943923,-0.211746,0.258402,9.519017
1794,2.502480,55.481804,4.577707,-0.168679,0.171072,9.520214
1795,2.502480,55.481804,4.577707,-0.168679,0.171072,9.520214
1796,0.915541,58.533608,3.601129,-0.077760,0.083742,9.545336
1797,0.915541,58.533608,3.601129,-0.077760,0.083742,9.545336
1798,-0.793469,62.073701,2.441444,0.083742,0.148342,9.526195
1799,-0.793469,62.073701,2.441444,0.083742,0.148342,9.526195
1800,-51.636530,130.983444,-75.379568,-10.287047,-2.136605,9.874321
1801,-38.391699,130.739300,-73.548486,-9.321627,-1.882988,8.850282
1802,-38.391699,130.739300,-73.548486,-9.321627,-1.882988,8.850282
1803,-26.123445,137.453269,-72.388800,-8.569149,-1.609033,8.177957
1804,-26.123445,137.453269,-72.388800,-8.569149,-1.609033,8.177957
1805,-12.695506,148.073548,-71.168078,-8.005689,-1.137688,8.078663
1806,-12.695506,148.073548,-71.168078,-8.005689,-1.137688,8.078663
1807,0.549325,159.548333,-68.970779,-7.580999,-0.686680,8.227005
1808,0.549325,159.548333,-68.970779,-7.580999,-0.686680,8.227005
1809,4.333562,201.052873,-53.955901,-6.174142,1.420017,10.452137
1810,-125.856413,-99.244678,6.897078,3.297023,1.790872,9.961651
1811,-125.856413,-99.244678,6.897078,3.297023,1.790872,9.961651
1812,-126.771954,-106.080720,6.103609,3.075706,1.806424,10.100423
1813,-126.771954,-106.080720,6.103609,3.075706,1.806424,10.100423
1814,-126.466773,-113.954376,5.798428,2.810126,1.808817,10.211679
1815,-126.466773,-113.954376,5.798428,2.810126,1.808817,10.211679
1816,-125.917449,-122.560464,5.737392,2.580435,1.794461,10.277476
1817,-124.940871,-130.861372,5.859464,2.411756,1.793265,10.337292
1818,-124.940871,-130.861372,5.859464,2.411756,1.793265,10.337292
1819,-123.231861,-139.772641,6.286717,2.205991,1.861454,10.404285
1820,-74.097810,-274.479286,190.249485,-3.922692,4.011218,9.700856
1821,-74.097810,-274.479286,190.249485,-3.922692,4.011218,9.700856
1822,-70.618753,-271.305409,189.089799,-3.883214,3.886802,9.801346
1823,-70.618753,-271.305409,189.089799,-3.883214,3.886802,9.801346
1824,-67.017624,-268.070497,187.502861,-3.910729,3.835361,9.895854
1825,-67.017624,-268.070497,187.502861,-3.910729,3.835361,9.895854
1826,-63.477531,-264.957656,185.793851,-3.963366,3.841343,9.981988
1827,-63.477531,-264.957656,185.793851,-3.963366,3.841343,9.981988
1828,-60.242618,-261.783780,184.084840,-4.044715,3.873643,10.100423
1829,-48.462654,-244.876783,181.460288,-5.111821,4.492134,11.025168
1830,-54.810407,131.898985,19.043259,-1.319527,4.609372,5.522155
1831,-54.810407,131.898985,19.043259,-1.319527,4.609372,5.522155
1832,-66.651408,148.744945,31.982910,0.178250,2.261021,7.437443
1833,-66.651408,148.744945,31.982910,0.178250,2.261021,7.437443
1834,-74.464027,139.467460,32.043946,0.649595,2.221543,6.220798
1835,-74.464027,139.467460,32.043946,0.649595,2.221543,6.220798
1836,-83.070115,140.932326,33.142596,0.372052,2.270591,5.828409
1837,-83.070115,140.932326,33.142596,0.372052,2.270591,5.828409
1838,-88.380255,151.369497,31.494621,0.110060,2.926168,7.596551
1839,-88.380255,151.369497,31.494621,0.110060,2.926168,7.596551
1840,-10.742351,12.146181,-4.150454,0.089723,0.349322,9.751101
1841,-10.742351,12.146181,-4.150454,0.089723,0.349322,9.751101
1842,-11.963073,13.183795,-4.211490,-0.038282,0.189017,9.849198
1843,-11.963073,13.183795,-4.211490,-0.038282,0.189017,9.849198
1844,-11.047532,14.038300,-3.784237,-0.172268,0.092116,9.952081
1845,-11.047532,14.038300,-3.784237,-0.172268,0.092116,9.952081
1846,-7.751583,13.977264,-3.051804,-0.289506,0.032300,9.949688
1847,-7.751583,13.977264,-3.051804,-0.289506,0.032300,9.949688
1848,-4.089418,13.427939,-2.502480,-0.266777,0.149538,9.899443
1849,-4.394598,12.634470,-2.075227,-0.050245,0.381622,9.752297
1850,0.549325,-1.220722,-1.037613,-0.236869,0.308647,9.730764
1851,0.488289,-1.403830,-0.915541,-0.222513,0.319414,9.715212
1852,0.488289,-1.403830,-0.915541,-0.222513,0.319414,9.715212
1853,0.183108,-1.647974,-1.281758,-0.177053,0.317021,9.655396
1854,0.183108,-1.647974,-1.281758,-0.177053,0.317021,9.655396
1855,0.305180,-2.014191,-2.319371,-0.171072,0.429474,9.606348
1856,0.305180,-2.014191,-2.319371,-0.171072,0.429474,9.606348
1857,-0.671397,-2.075227,-2.258335,-0.214139,0.404352,9.688893
1858,-0.671397,-2.075227,-2.258335,-0.214139,0.404352,9.688893
1859,-0.610361,-2.380407,-2.075227,-0.230887,0.327788,9.703249
1860,0.305180,5.188067,-2.197299,-0.185428,0.226102,9.708034
1861,0.305180,5.188067,-2.197299,-0.185428,0.226102,9.708034
1862,0.061036,5.310140,-2.075227,-0.205765,0.174661,9.690089
1863,0.061036,5.310140,-2.075227,-0.205765,0.174661,9.690089
1864,-0.305180,5.920500,-1.586938,-0.157913,0.070582,9.745119
1865,-0.305180,5.920500,-1.586938,-0.157913,0.070582,9.745119
1866,-0.061036,6.652934,-1.159686,-0.226102,0.123220,9.544140
1867,-0.061036,6.652934,-1.159686,-0.226102,0.123220,9.544140
1868,1.037613,11.108568,0.305180,-0.122023,0.251225,9.666163
1869,1.037613,11.108568,0.305180,-0.122023,0.251225,9.666163
1870,-3.662165,151.796750,-11.657893,0.553890,0.531160,9.133806
1871,-3.967346,164.492256,-14.404517,0.716588,0.705821,9.379049
1872,-5.798428,175.722896,-16.052491,0.681895,0.723766,9.193622
1873,-5.798428,175.722896,-16.052491,0.681895,0.723766,9.193622
1874,-8.422980,188.357366,-17.639429,0.711803,0.807507,9.176873
1875,-8.422980,188.357366,-17.639429,0.711803,0.807507,9.176873
1876,-10.803388,201.602197,-18.554971,0.544320,0.734533,8.986661
1877,-10.803388,201.602197,-18.554971,0.544320,0.734533,8.986661
1878,-13.061723,215.884642,-19.836728,0.411530,0.728551,9.082365
1879,-13.061723,215.884642,-19.836728,0.411530,0.728551,9.082365
1880,-163.271534,-5.004959,61.219196,-1.088640,1.967926,11.084984
1881,-169.497215,-15.747311,56.336309,-1.361398,2.028937,11.317067
1882,-169.497215,-15.747311,56.336309,-1.361398,2.028937,11.317067
1883,-174.502174,-27.771420,52.491035,-1.559985,2.104305,11.484550
1884,-174.502174,-27.771420,52.491035,-1.559985,2.104305,11.484550
1885,-178.347448,-40.588998,49.622339,-1.690382,2.136605,11.611359
1886,-181.216144,-54.077974,47.425040,-1.766946,2.183261,11.681941
1887,-181.216144,-54.077974,47.425040,-1.766946,2.183261,11.681941
1888,-175.600824,-134.035248,47.058824,-1.817191,2.357922,10.831366
1889,-175.600824,-134.035248,47.058824,-1.817191,2.357922,10.831366
1890,-41.016251,-251.102464,239.627680,-4.999368,5.007742,6.873982
1891,-39.246204,-252.323186,244.327459,-4.648850,5.014920,6.288988
1892,-39.246204,-252.323186,244.327459,-4.648850,5.014920,6.288988
1893,-37.964446,-251.590753,248.477913,-4.218180,4.958694,5.642982
1894,-37.964446,-251.590753,248.477913,-4.218180,4.958694,5.642982
1895,-37.293050,-248.172732,252.018006,-3.721712,4.837867,5.056791
1896,-38.330663,-242.374304,255.191882,-3.231226,4.681151,4.648850
1897,-38.330663,-242.374304,255.191882,-3.231226,4.681151,4.648850
