Packet number,Gyroscope X (deg/s),Gyroscope Y (deg/s),Gyroscope Z (deg/s),Accelerometer X (g),Accelerometer Y (g),Accelerometer Z (g)
0,0.244144,-0.183108,0.427253,-0.007178,0.017945,9.767849
1,0.244144,-0.183108,0.427253,-0.007178,0.017945,9.767849
2,0.183108,-0.305180,0.427253,0.011963,0.029908,9.755886
3,0.183108,-0.305180,0.427253,0.011963,0.029908,9.755886
4,0.122072,-0.305180,0.427253,0.023926,0.029908,9.747512
5,0.122072,-0.305180,0.427253,0.023926,0.029908,9.747512
6,0.061036,-0.305180,0.427253,0.044263,0.038282,9.800150
7,0.061036,-0.305180,0.427253,0.044263,0.038282,9.800150
8,0.122072,-0.366217,0.427253,0.032300,0.020337,9.766653
9,0.122072,-0.366217,0.427253,0.032300,0.020337,9.766653
10,-0.183108,0.061036,0.183108,0.025122,0.007178,9.749905
11,-0.061036,0.061036,0.183108,0.000000,0.000000,9.737942
12,-0.061036,0.061036,0.183108,0.000000,0.000000,9.737942
13,-0.061036,0.122072,0.183108,0.010767,0.000000,9.773831
14,-0.061036,0.122072,0.183108,0.010767,0.000000,9.773831
15,0.000000,0.061036,0.183108,0.007178,0.009570,9.765457
16,0.000000,0.061036,0.183108,0.007178,0.009570,9.765457
17,-0.061036,0.000000,0.183108,0.025122,0.035889,9.759475
18,-0.061036,0.000000,0.183108,0.025122,0.035889,9.759475
19,-0.061036,-0.061036,0.183108,0.016748,0.037086,9.748708
20,-0.305180,-0.305180,-0.061036,0.035889,0.023926,9.772634
21,-0.305180,-0.244144,-0.122072,0.004785,0.056226,9.767849
22,-0.305180,-0.244144,-0.122072,0.004785,0.056226,9.767849
23,-0.305180,-0.183108,0.000000,0.009570,0.033497,9.740334
24,-0.183108,0.000000,0.061036,0.015552,0.041871,9.753494
25,-0.122072,0.061036,0.183108,0.033497,0.014356,9.754690
26,-0.122072,0.061036,0.183108,0.033497,0.014356,9.754690
27,-0.122072,0.122072,0.122072,0.010767,0.034693,9.759475
28,-0.122072,0.122072,0.122072,0.010767,0.034693,9.759475
29,-0.122072,0.122072,0.122072,-0.004785,0.021534,9.751101
30,-0.122072,0.061036,0.000000,0.002393,0.050245,9.743923
31,-0.122072,0.061036,0.000000,0.002393,0.050245,9.743923
32,-0.183108,0.061036,0.000000,-0.004785,0.061012,9.755886
33,-0.183108,0.061036,0.000000,-0.004785,0.061012,9.755886
34,-0.183108,0.061036,0.000000,0.007178,0.059815,9.758279
35,-0.183108,0.061036,0.000000,0.007178,0.059815,9.758279
36,-0.244144,0.000000,0.000000,0.007178,0.045460,9.789383
37,-0.244144,0.000000,0.000000,0.007178,0.045460,9.789383
38,-0.244144,-0.061036,0.000000,-0.002393,0.051441,9.758279
39,-0.244144,-0.061036,0.000000,-0.002393,0.051441,9.758279
40,-0.427253,-0.244144,-0.061036,0.014356,0.029908,9.784598
41,-0.427253,-0.244144,-0.061036,0.014356,0.029908,9.784598
42,-0.305180,-0.183108,-0.061036,0.029908,0.028711,9.785794
43,-0.305180,-0.183108,-0.061036,0.029908,0.028711,9.785794
44,-0.183108,-0.122072,0.000000,0.021534,0.032300,9.777420
45,-0.183108,-0.122072,0.000000,0.021534,0.032300,9.777420
46,-0.183108,-0.061036,0.000000,0.011963,0.028711,9.752297
47,-0.183108,-0.061036,0.000000,0.011963,0.028711,9.752297
48,-0.183108,0.244144,0.061036,0.016748,0.031104,9.754690
49,-0.183108,0.244144,0.061036,0.016748,0.031104,9.754690
50,-0.427253,-0.244144,0.000000,0.004785,0.050245,9.758279
51,-0.366217,-0.305180,0.000000,-0.009570,0.038282,9.781009
52,-0.366217,-0.305180,0.000000,-0.009570,0.038282,9.781009
53,-0.305180,-0.366217,0.000000,-0.013159,0.023926,9.769046
54,-0.305180,-0.366217,0.000000,-0.013159,0.023926,9.769046
55,-0.366217,-0.427253,0.000000,-0.010767,0.022730,9.770242
56,-0.366217,-0.427253,0.000000,-0.010767,0.022730,9.770242
57,-0.305180,-0.366217,0.061036,-0.022730,0.032300,9.781009
58,-0.305180,-0.366217,0.061036,-0.022730,0.032300,9.781009
59,-0.427253,-0.366217,0.061036,-0.027515,0.034693,9.760671
60,-0.427253,-0.122072,-0.061036,-0.031104,-0.014356,9.747512
61,-0.427253,-0.122072,-0.061036,-0.031104,-0.014356,9.747512
62,-0.427253,-0.122072,-0.061036,0.011963,0.001196,9.754690
63,-0.427253,-0.122072,-0.061036,0.011963,0.001196,9.754690
64,-0.305180,-0.061036,0.061036,0.020337,0.017945,9.771438
65,-0.305180,-0.061036,0.061036,0.020337,0.017945,9.771438
66,-0.244144,0.061036,0.061036,0.005982,0.037086,9.764260
67,-0.244144,0.061036,0.061036,0.005982,0.037086,9.764260
68,-0.244144,0.000000,-0.122072,-0.007178,0.039478,9.800150
69,-0.244144,0.000000,-0.122072,-0.007178,0.039478,9.800150
70,-0.366217,-0.122072,0.000000,-0.003589,0.051441,9.801346
71,-0.366217,-0.122072,0.000000,-0.003589,0.051441,9.801346
72,-0.305180,-0.183108,-0.061036,-0.013159,0.025122,9.791775
73,-0.305180,-0.183108,-0.061036,-0.013159,0.025122,9.791775
74,-0.244144,-0.183108,-0.061036,0.003589,0.037086,9.781009
75,-0.244144,-0.183108,-0.061036,0.003589,0.037086,9.781009
76,-0.244144,-0.122072,-0.061036,-0.017945,0.062208,9.795364
77,-0.244144,-0.122072,-0.061036,-0.017945,0.062208,9.795364
78,-0.366217,-0.122072,-0.061036,-0.003589,0.034693,9.791775
79,-0.366217,-0.122072,-0.061036,-0.003589,0.034693,9.791775
80,-0.427253,-0.061036,-0.061036,0.001196,0.037086,9.777420
81,-0.427253,-0.061036,-0.061036,0.001196,0.037086,9.777420
82,-0.244144,-0.183108,0.000000,-0.015552,0.015552,9.790579
83,-0.244144,-0.183108,0.000000,-0.015552,0.015552,9.790579
84,-0.183108,-0.061036,0.000000,0.023926,0.044263,9.779812
85,-0.183108,-0.061036,0.000000,0.023926,0.044263,9.779812
86,-0.183108,0.000000,0.061036,0.022730,0.050245,9.812113
87,-0.183108,0.000000,0.061036,0.022730,0.050245,9.812113
88,-0.244144,0.000000,0.000000,0.015552,0.056226,9.777420
89,-0.305180,0.061036,0.000000,-0.009570,0.032300,9.769046
90,-0.244144,-0.183108,0.000000,0.011963,0.045460,9.759475
91,-0.183108,-0.183108,0.000000,0.013159,0.029908,9.777420
92,-0.183108,-0.183108,0.000000,0.013159,0.029908,9.777420
93,-0.305180,-0.183108,0.000000,0.019141,0.043067,9.764260
94,-0.305180,-0.183108,0.000000,0.019141,0.043067,9.764260
95,-0.244144,-0.183108,0.061036,0.002393,0.068190,9.747512
96,-0.244144,-0.183108,0.061036,0.002393,0.068190,9.747512
97,-0.305180,-0.244144,0.000000,-0.001196,0.041871,9.760671
98,-0.305180,-0.183108,0.061036,-0.005982,0.038282,9.752297
99,-0.305180,-0.183108,0.061036,-0.005982,0.038282,9.752297
100,-0.244144,-0.061036,-0.061036,-0.011963,0.041871,9.776223
101,-0.366217,-0.122072,-0.061036,-0.002393,0.037086,9.763064
102,-0.366217,-0.122072,-0.061036,-0.002393,0.037086,9.763064
103,-0.366217,0.000000,0.000000,0.005982,0.033497,9.751101
104,-0.366217,0.000000,0.000000,0.005982,0.033497,9.751101
105,-0.427253,0.000000,0.000000,0.001196,0.041871,9.783401
106,-0.427253,0.000000,0.000000,0.001196,0.041871,9.783401
107,-0.488289,0.000000,-0.061036,0.009570,0.040674,9.763064
108,-0.305180,-0.061036,0.000000,0.005982,0.046656,9.773831
109,-0.305180,-0.122072,0.000000,-0.004785,0.026319,9.797757
110,-0.305180,-0.122072,0.000000,-0.031104,0.049049,9.747512
111,-0.305180,-0.122072,0.000000,-0.023926,0.057423,9.755886
112,-0.305180,-0.122072,0.000000,-0.023926,0.057423,9.755886
113,-0.244144,-0.183108,0.000000,-0.005982,0.028711,9.778616
114,-0.244144,-0.183108,0.000000,-0.005982,0.028711,9.778616
115,-0.305180,-0.244144,0.000000,0.011963,0.025122,9.779812
116,-0.305180,-0.244144,0.000000,0.011963,0.025122,9.779812
117,-0.366217,-0.183108,0.000000,0.021534,0.038282,9.749905
118,-0.366217,-0.183108,0.000000,0.021534,0.038282,9.749905
119,-0.305180,-0.244144,-0.122072,0.011963,0.040674,9.764260
120,-1.342794,0.244144,-1.220722,-0.029908,0.082545,9.769046
121,-1.342794,0.244144,-1.220722,-0.029908,0.082545,9.769046
122,-1.647974,0.183108,-1.220722,-0.008374,0.045460,9.795364
123,-1.647974,0.183108,-1.220722,-0.008374,0.045460,9.795364
124,-1.709010,0.122072,-1.220722,-0.027515,0.057423,9.745119
125,-1.709010,0.122072,-1.220722,-0.027515,0.057423,9.745119
126,-1.831083,-0.122072,-1.159686,-0.026319,0.008374,9.775027
127,-1.831083,-0.122072,-1.159686,-0.026319,0.008374,9.775027
128,-1.709010,-1.159686,-1.525902,0.049049,0.009570,9.736745
129,-1.709010,-1.159686,-1.525902,0.049049,0.009570,9.736745
130,0.305180,-0.366217,0.427253,0.011963,0.015552,9.795364
131,0.305180,-0.366217,0.427253,0.011963,0.015552,9.795364
132,0.244144,-0.488289,0.366217,0.003589,0.023926,9.797757
133,0.244144,-0.488289,0.366217,0.003589,0.023926,9.797757
134,0.122072,-0.427253,0.366217,0.020337,0.031104,9.783401
135,0.122072,-0.427253,0.366217,0.020337,0.031104,9.783401
136,0.122072,-0.427253,0.427253,0.019141,0.037086,9.782205
137,0.122072,-0.427253,0.427253,0.019141,0.037086,9.782205
138,0.000000,-0.366217,0.427253,0.000000,0.007178,9.798953
139,0.000000,-0.366217,0.427253,0.000000,0.007178,9.798953
140,-0.122072,0.244144,0.488289,0.037086,-0.004785,9.763064
141,-0.122072,0.244144,0.488289,0.037086,-0.004785,9.763064
142,0.000000,0.488289,0.549325,0.028711,0.032300,9.775027
143,0.000000,0.488289,0.549325,0.028711,0.032300,9.775027
144,0.061036,0.549325,0.549325,0.008374,0.013159,9.763064
145,0.061036,0.549325,0.549325,0.008374,0.013159,9.763064
146,-0.122072,0.610361,0.610361,-0.001196,0.026319,9.761868
147,-0.183108,0.732433,0.610361,0.013159,0.039478,9.747512
148,0.061036,0.976577,0.671397,0.011963,0.026319,9.801346
149,0.000000,1.037613,0.671397,0.004785,0.037086,9.773831
150,0.366217,0.549325,0.671397,0.026319,0.044263,9.775027
151,0.366217,0.549325,0.671397,0.026319,0.044263,9.775027
152,0.244144,0.671397,0.671397,0.013159,0.037086,9.734353
153,0.244144,0.671397,0.671397,0.013159,0.037086,9.734353
154,0.244144,0.732433,0.732433,-0.015552,0.003589,9.767849
155,0.244144,0.732433,0.732433,-0.015552,0.003589,9.767849
156,0.366217,0.854505,0.732433,-0.019141,0.025122,9.748708
157,0.366217,0.854505,0.732433,-0.019141,0.025122,9.748708
158,0.488289,0.854505,0.732433,-0.009570,0.052638,9.769046
159,0.488289,0.854505,0.732433,-0.009570,0.052638,9.769046
160,0.244144,0.427253,1.403830,-0.106471,0.019141,9.792972
161,0.244144,0.427253,1.403830,-0.106471,0.019141,9.792972
162,0.183108,0.183108,1.525902,-0.106471,0.027515,9.781009
163,0.183108,0.183108,1.525902,-0.106471,0.027515,9.781009
164,-0.061036,-0.183108,1.586938,-0.099294,0.013159,9.801346
165,-0.061036,-0.183108,1.586938,-0.099294,0.013159,9.801346
166,-0.183108,-0.549325,1.709010,-0.092116,0.000000,9.749905
167,-0.183108,-0.549325,1.709010,-0.092116,0.000000,9.749905
168,0.000000,-0.976577,1.831083,-0.095705,0.001196,9.754690
169,0.366217,-1.770047,1.770047,0.021534,0.118434,9.767849
170,21.118486,202.700847,-8.911269,-1.507347,0.756066,10.643546
171,18.188754,203.372244,-14.404517,-1.800443,1.014469,11.151977
172,18.188754,203.372244,-14.404517,-1.800443,1.014469,11.151977
173,13.305867,200.991836,-20.019837,-2.272984,1.647315,11.228540
174,13.305867,200.991836,-20.019837,-2.272984,1.647315,11.228540
175,6.897078,197.695888,-22.827497,-2.634269,1.850687,11.418753
176,-2.868696,193.118181,-24.414435,-3.049387,1.683204,11.576666
177,-2.868696,193.118181,-24.414435,-3.049387,1.683204,11.576666
178,-13.122759,186.709392,-28.564889,-3.474076,1.516918,11.703474
179,-13.122759,186.709392,-28.564889,-3.474076,1.516918,11.703474
180,27.283131,-152.773327,3.479057,0.698643,-0.013159,10.684221
181,28.381781,-154.848554,1.831083,0.526375,0.058619,10.681828
182,29.663539,-156.923781,0.488289,0.339751,0.096901,10.686613
183,29.663539,-156.923781,0.488289,0.339751,0.096901,10.686613
184,31.311513,-158.937972,-0.610361,0.196194,0.123220,10.625602
185,31.311513,-158.937972,-0.610361,0.196194,0.123220,10.625602
186,33.081559,-160.769055,-1.586938,0.025122,0.175857,10.606461
187,33.081559,-160.769055,-1.586938,0.025122,0.175857,10.606461
188,45.532921,-166.628519,-4.150454,-0.541927,0.267973,10.246372
189,45.532921,-166.628519,-4.150454,-0.541927,0.267973,10.246372
190,16.601816,-42.298009,-95.216297,-3.124755,-0.573031,5.642982
191,6.164645,-35.889220,-97.901884,-3.019480,-0.495271,5.586755
192,6.164645,-35.889220,-97.901884,-3.019480,-0.495271,5.586755
193,-3.418021,-29.175250,-100.160220,-2.872334,-0.456989,5.485069
194,-3.418021,-29.175250,-100.160220,-2.872334,-0.456989,5.485069
195,-12.085145,-21.911955,-101.747158,-2.727581,-0.373248,5.475499
196,-12.085145,-21.911955,-101.747158,-2.727581,-0.373248,5.475499
197,-19.104295,-14.404517,-102.418555,-2.216757,0.107668,5.554455
198,-21.789883,-6.897078,-101.869230,-1.375753,0.496468,4.378485
199,-21.789883,-6.897078,-101.869230,-1.375753,0.496468,4.378485
200,-9.704738,22.949569,-5.615320,-0.864930,0.784778,10.936641
201,-9.704738,22.949569,-5.615320,-0.864930,0.784778,10.936641
202,-20.141909,16.784924,-5.371176,-1.284834,0.190213,11.217774
203,-20.141909,16.784924,-5.371176,-1.284834,0.190213,11.217774
204,-24.597543,9.033341,-5.615320,-1.402072,-0.446223,11.129247
205,-24.597543,9.033341,-5.615320,-1.402072,-0.446223,11.129247
206,-21.362631,2.319371,-5.004959,-1.179559,-1.166400,10.952193
207,-21.362631,2.319371,-5.004959,-1.179559,-1.166400,10.952193
208,-14.221408,-3.295949,-4.150454,-0.625669,-1.332686,10.193735
209,4.699779,3.173877,-1.342794,-0.096901,0.323003,10.070515
210,4.394598,7.507439,2.502480,-0.004785,-0.023926,9.819290
211,4.394598,7.507439,2.502480,-0.004785,-0.023926,9.819290
212,4.760815,7.446403,2.563516,-0.032300,-0.015552,9.853983
213,4.760815,7.446403,2.563516,-0.032300,-0.015552,9.853983
214,4.821851,7.202258,2.685588,-0.063404,-0.001196,9.839628
215,4.821851,7.202258,2.685588,-0.063404,-0.001196,9.839628
216,4.577707,6.897078,2.685588,-0.052638,0.032300,9.850394
217,4.577707,6.897078,2.685588,-0.052638,0.032300,9.850394
218,4.699779,6.591897,2.563516,-0.031104,0.028711,9.827665
219,4.699779,6.591897,2.563516,-0.031104,0.028711,9.827665
220,1.586938,3.234913,-1.586938,-0.011963,0.002393,9.739138
221,1.586938,3.234913,-1.586938,-0.011963,0.002393,9.739138
222,1.647974,3.601129,-1.647974,0.000000,0.059815,9.766653
223,1.647974,3.601129,-1.647974,0.000000,0.059815,9.766653
224,1.586938,3.845274,-1.525902,-0.066993,0.145949,9.717604
225,2.075227,4.150454,-0.427253,-0.029908,-0.080153,9.837235
226,2.075227,4.150454,-0.427253,-0.029908,-0.080153,9.837235
227,3.173877,4.150454,-0.732433,-0.065797,0.123220,9.776223
228,2.929732,5.432212,-0.244144,0.037086,0.000000,9.740334
229,3.845274,6.103609,0.061036,0.037086,0.040674,9.759475
230,0.549325,322.880903,-18.188754,-1.112566,1.240571,10.161434
231,-9.887846,335.759518,-22.949569,-1.559985,1.496580,10.482045
232,-9.887846,335.759518,-22.949569,-1.559985,1.496580,10.482045
233,-10.742351,349.736782,-25.513085,-2.143783,0.878090,10.686613
234,-10.742351,349.736782,-25.513085,-2.143783,0.878090,10.686613
235,-8.239872,360.601205,-29.663539,-2.173690,0.631650,11.321852
236,-8.239872,360.601205,-29.663539,-2.173690,0.631650,11.321852
237,-10.070954,367.620356,-33.630884,-2.016974,0.538338,12.268132
238,-10.070954,367.620356,-33.630884,-2.016974,0.538338,12.268132
239,-15.991455,371.404593,-36.255436,-2.203598,0.561068,12.130556
240,65.674830,-99.305715,-47.669184,1.327901,-0.416315,9.582422
241,65.674830,-99.305715,-47.669184,1.327901,-0.416315,9.582422
242,68.604562,-105.043107,-43.823911,1.003702,-0.784778,9.952081
243,68.604562,-105.043107,-43.823911,1.003702,-0.784778,9.952081
244,73.182269,-112.062257,-39.734493,0.697447,-1.131707,10.381555
245,73.182269,-112.062257,-39.734493,0.697447,-1.131707,10.381555
246,80.689708,-120.485237,-35.645075,0.412726,-1.492992,10.683024
247,80.689708,-120.485237,-35.645075,0.412726,-1.492992,10.683024
248,90.272374,-129.396506,-31.799802,0.150735,-1.833939,10.875630
249,152.040894,-190.249485,-16.479744,-1.033610,-2.871138,11.088573
250,158.571756,-164.126040,-90.516518,-2.997946,-3.756405,9.511839
251,158.571756,-164.126040,-90.516518,-2.997946,-3.756405,9.511839
252,153.688869,-161.684596,-89.173724,-3.045798,-4.030359,9.406564
253,153.688869,-161.684596,-89.173724,-3.045798,-4.030359,9.406564
254,149.294270,-159.121080,-88.624399,-3.115184,-4.349773,9.259419
255,149.294270,-159.121080,-88.624399,-3.115184,-4.349773,9.259419
256,145.510033,-156.313420,-88.868544,-3.213281,-4.635691,9.138592
257,145.510033,-156.313420,-88.868544,-3.213281,-4.635691,9.138592
258,142.580301,-153.566796,-89.845121,-3.277882,-4.834278,9.005801
259,142.580301,-153.566796,-89.845121,-3.277882,-4.834278,9.005801
260,3.051804,30.823224,-0.915541,3.349660,-1.180755,7.045054
261,1.464866,42.359045,-6.897078,3.454936,-0.367266,7.021128
262,1.464866,42.359045,-6.897078,3.454936,-0.367266,7.021128
263,0.488289,55.115587,-11.474784,2.987179,0.640024,7.500847
264,0.488289,55.115587,-11.474784,2.987179,0.640024,7.500847
265,-1.037613,66.895552,-13.305867,2.045686,1.697560,8.370562
266,-1.037613,66.895552,-13.305867,2.045686,1.697560,8.370562
267,-3.479057,75.257496,-13.000687,0.665147,2.106697,9.190033
268,-68.787671,35.339895,-17.822538,-2.674943,-1.537255,12.548067
269,-68.787671,35.339895,-17.822538,-2.674943,-1.537255,12.548067
270,-1.525902,1.831083,-2.014191,0.015552,-0.224906,9.888676
271,-1.403830,1.342794,-1.831083,0.051441,-0.257206,9.886284
272,-1.403830,1.342794,-1.831083,0.051441,-0.257206,9.886284
273,-1.281758,0.854505,-1.770047,0.122023,-0.252421,9.798953
274,-1.281758,0.854505,-1.770047,0.122023,-0.252421,9.798953
275,-0.793469,0.732433,-1.647974,0.179446,-0.267973,9.745119
276,-0.793469,0.732433,-1.647974,0.179446,-0.267973,9.745119
277,-0.305180,0.854505,-1.525902,0.196194,-0.265580,9.748708
278,-0.305180,0.854505,-1.525902,0.196194,-0.265580,9.748708
279,0.000000,1.403830,-1.342794,0.190213,-0.264384,9.770242
280,14.831769,3.418021,4.394598,0.094508,-0.184231,9.826468
281,14.343481,4.150454,4.699779,-0.035889,-0.086134,9.765457
282,14.343481,4.150454,4.699779,-0.035889,-0.086134,9.765457
283,13.672084,4.394598,4.699779,-0.015552,-0.063404,9.886284
284,13.672084,4.394598,4.699779,-0.015552,-0.063404,9.886284
285,12.329290,3.967346,5.127031,0.025122,-0.132790,9.804935
286,12.329290,3.967346,5.127031,0.025122,-0.132790,9.804935
287,12.024109,4.150454,5.676356,0.138772,-0.080153,9.751101
288,12.024109,4.150454,5.676356,0.138772,-0.080153,9.751101
289,28.320745,12.756542,14.404517,0.254813,-0.250028,9.712819
290,-121.095598,395.696956,-69.275959,-7.570233,2.320836,16.302080
291,-122.865644,369.817655,-67.383841,-6.803400,1.910503,19.291652
292,-122.865644,369.817655,-67.383841,-6.803400,1.910503,19.291652
293,-120.180056,327.641718,-62.073701,-6.354784,0.551498,19.599701
294,-120.180056,327.641718,-62.073701,-6.354784,0.551498,19.599701
295,-115.846494,276.737621,-60.608835,-5.902580,-0.781189,19.599701
296,-115.846494,276.737621,-60.608835,-5.902580,-0.781189,19.599701
297,-105.897612,221.072709,-65.674830,-5.501817,-1.983478,19.599701
298,-105.897612,221.072709,-65.674830,-5.501817,-1.983478,19.599701
299,-91.248951,161.440452,-77.210651,-3.678645,-3.920299,19.599701
300,-2.319371,10.315099,58.899825,-4.189468,-0.988150,7.860935
301,-2.319371,10.315099,58.899825,-4.189468,-0.988150,7.860935
302,-5.859464,6.897078,66.712444,-5.440806,-1.732253,8.600253
303,-5.859464,6.897078,66.712444,-5.440806,-1.732253,8.600253
304,-5.004959,-1.831083,73.426413,-6.288988,-2.588809,8.900526
305,-5.004959,-1.831083,73.426413,-6.288988,-2.588809,8.900526
306,0.122072,-14.221408,78.492409,-6.466041,-3.304201,8.710314
307,0.122072,-14.221408,78.492409,-6.466041,-3.304201,8.710314
308,8.361944,-26.550698,82.581827,-6.188498,-3.969348,8.082252
309,101.747158,-31.189441,85.633631,-4.766088,-5.974359,3.797079
310,-259.464408,-171.999695,-79.224842,-6.523464,2.286143,8.511727
311,-259.464408,-171.999695,-79.224842,-6.523464,2.286143,8.511727
312,-262.211032,-179.446098,-62.195773,-6.304540,1.132903,7.914769
313,-262.211032,-179.446098,-62.195773,-6.304540,1.132903,7.914769
314,-235.294118,-173.586633,-37.659266,-7.218518,-0.320610,7.467350
315,-235.294118,-173.586633,-37.659266,-7.218518,-0.320610,7.467350
316,-174.807355,-165.957122,-15.197986,-7.802316,-2.233506,7.669526
317,-174.807355,-165.957122,-15.197986,-7.802316,-2.233506,7.669526
318,-108.278019,-169.863432,-1.892119,-5.391757,-5.057987,10.929464
319,-108.278019,-169.863432,-1.892119,-5.391757,-5.057987,10.929464
320,-8.911269,-8.789197,-6.775006,-0.077760,0.181839,9.837235
321,-8.911269,-8.789197,-6.775006,-0.077760,0.181839,9.837235
322,-9.948882,-9.460594,-7.202258,0.022730,0.033497,9.759475
323,-9.948882,-9.460594,-7.202258,0.022730,0.033497,9.759475
324,-10.376135,-9.277485,-8.117800,0.063404,0.129201,9.745119
325,-10.376135,-9.277485,-8.117800,0.063404,0.129201,9.745119
326,-10.070954,-9.521630,-7.019150,0.039478,0.344537,9.734353
327,-10.070954,-9.521630,-7.019150,0.039478,0.344537,9.734353
328,-6.652934,-8.911269,-6.042573,0.105275,0.138772,9.759475
329,-4.028382,-4.089418,-6.530861,0.957046,-0.058619,9.497484
330,-7.080186,36.316472,-12.268254,0.443830,-0.105275,9.687697
331,-7.080186,36.316472,-12.268254,0.443830,-0.105275,9.687697
332,-6.652934,40.894179,-11.902037,0.707018,0.087330,9.638648
333,-6.652934,40.894179,-11.902037,0.707018,0.087330,9.638648
334,-6.958114,46.997787,-10.864424,0.971402,0.215335,9.608740
335,-6.958114,46.997787,-10.864424,0.971402,0.215335,9.608740
336,-7.324331,55.054551,-10.986496,1.180755,0.324199,9.588403
337,-7.324331,55.054551,-10.986496,1.180755,0.324199,9.588403
338,-9.765774,63.843748,-11.169604,1.215448,0.317021,9.651807
339,-9.765774,63.843748,-11.169604,1.215448,0.317021,9.651807
340,64.820325,-96.070802,11.474784,-2.777826,0.513216,14.529152
341,66.102083,-141.176471,15.259022,-3.024265,0.245243,14.228879
342,66.102083,-141.176471,15.259022,-3.024265,0.245243,14.228879
343,65.980011,-185.671778,22.705425,-2.299303,-0.003589,12.428437
344,65.980011,-185.671778,22.705425,-2.299303,-0.003589,12.428437
345,76.050965,-216.678111,33.020523,-1.070695,-0.448615,9.595581
346,76.050965,-216.678111,33.020523,-1.070695,-0.448615,9.595581
347,96.253910,-229.800870,42.725261,0.345733,-0.429474,7.181433
348,96.253910,-229.800870,42.725261,0.345733,-0.429474,7.181433
349,144.838636,-170.351720,108.888380,0.896034,2.103108,2.764666
350,49.317159,-5.920500,-7.995727,-11.433109,-1.236982,2.121053
351,-18.677043,23.010605,-75.684749,-13.561340,1.806424,9.312056
352,-18.677043,23.010605,-75.684749,-13.561340,1.806424,9.312056
353,-145.204852,-12.329290,-124.940871,-17.073698,7.856150,17.500780
354,-145.204852,-12.329290,-124.940871,-17.073698,7.856150,17.500780
355,-274.662394,-88.014038,-136.842908,-19.600299,11.599396,19.599701
356,-274.662394,-88.014038,-136.842908,-19.600299,11.599396,19.599701
357,-350.713359,-158.937972,-124.086366,-18.278379,9.836039,18.919600
358,-350.713359,-158.937972,-124.086366,-18.278379,9.836039,18.919600
359,-369.634546,-220.401312,-99.671931,-15.232581,6.109541,14.532741
360,-8.056764,5.371176,-14.404517,-0.035889,0.118434,9.601563
361,-8.056764,5.371176,-14.404517,-0.035889,0.118434,9.601563
362,-6.591897,6.530861,-13.183795,-0.197391,-0.145949,9.666163
363,-6.591897,6.530861,-13.183795,-0.197391,-0.145949,9.666163
364,-6.164645,6.042573,-14.160372,-0.381622,-0.089723,9.627881
365,-6.164645,6.042573,-14.160372,-0.381622,-0.089723,9.627881
366,-7.324331,5.004959,-15.014878,-0.440241,-0.218924,9.792972
367,-7.324331,5.004959,-15.014878,-0.440241,-0.218924,9.792972
368,-9.460594,3.784237,-15.442130,-0.678306,-0.168679,9.747512
369,-2.441444,2.441444,-11.657893,0.244047,0.112453,9.527391
370,-184.267948,540.962844,-109.010452,-0.942690,-1.967926,9.133806
371,-184.267948,540.962844,-109.010452,-0.942690,-1.967926,9.133806
372,-185.305562,539.070726,-113.893339,-1.360201,-2.537368,10.852900
373,-185.305562,539.070726,-113.893339,-1.360201,-2.537368,10.852900
374,-169.619287,522.407874,-115.846494,-0.611313,-2.579239,13.066069
375,-169.619287,522.407874,-115.846494,-0.611313,-2.579239,13.066069
376,-134.096284,487.739376,-115.358206,1.839921,-1.776516,16.043677
377,-134.096284,487.739376,-115.358206,1.839921,-1.776516,16.043677
378,-91.432059,442.206455,-112.001221,4.648850,-0.370855,19.599701
379,-91.432059,442.206455,-112.001221,4.648850,-0.370855,19.599701
380,133.607996,101.625086,151.003281,-9.952081,1.562377,10.718914
381,141.054398,79.896239,172.060731,-11.599396,1.537255,11.708260
382,141.054398,79.896239,172.060731,-11.599396,1.537255,11.708260
383,144.228275,50.415808,191.836423,-12.783740,1.311153,12.426044
384,144.228275,50.415808,191.836423,-12.783740,1.311153,12.426044
385,139.894713,16.357671,207.705806,-13.310115,1.099406,12.999075
386,139.894713,16.357671,207.705806,-13.310115,1.099406,12.999075
387,126.832990,-19.531548,217.776761,-13.255085,1.031217,13.151006
388,126.832990,-19.531548,217.776761,-13.255085,1.031217,13.151006
389,-50.293736,-162.722210,143.495842,-6.177731,-4.426337,5.465928
390,-64.698253,-74.525063,-20.508125,1.344649,-2.628287,7.417105
391,-37.842374,-48.950942,-9.155413,1.184344,-2.517031,6.966098
392,-37.842374,-48.950942,-9.155413,1.184344,-2.517031,6.966098
393,2.990768,-21.179522,0.549325,0.072975,-2.138997,8.078663
394,2.990768,-21.179522,0.549325,0.072975,-2.138997,8.078663
395,36.560616,-5.188067,7.507439,-1.088640,-1.190326,9.879106
396,36.560616,-5.188067,7.507439,-1.088640,-1.190326,9.879106
397,51.148241,-5.493248,11.291676,-1.698756,-0.129201,10.867256
398,51.148241,-5.493248,11.291676,-1.698756,-0.129201,10.867256
399,45.044633,-17.212177,10.559243,-1.603052,0.884071,10.824189
400,-1.403830,10.376135,-8.789197,-0.132790,0.047852,9.770242
401,-2.014191,9.643702,-9.704738,-0.120827,-0.056226,9.581225
402,-2.014191,9.643702,-9.704738,-0.120827,-0.056226,9.581225
403,-3.906310,10.009918,-10.193027,-0.007178,0.184231,9.524999
404,-3.906310,10.009918,-10.193027,-0.007178,0.184231,9.524999
405,-4.150454,11.169604,-10.498207,0.055030,0.193802,9.588403
406,-4.150454,11.169604,-10.498207,0.055030,0.193802,9.588403
407,-3.967346,12.695506,-10.376135,-0.038282,0.016748,9.502269
408,-3.967346,12.695506,-10.376135,-0.038282,0.016748,9.502269
409,-3.479057,23.132677,-14.282444,0.251225,0.443830,9.660182
410,-0.122072,-233.340963,18.249790,1.648511,3.795883,17.439768
411,-1.586938,-265.568017,24.414435,5.081913,3.669075,12.662913
412,-1.586938,-265.568017,24.414435,5.081913,3.669075,12.662913
413,11.718929,-278.141451,29.297322,7.631244,3.314968,7.976977
414,11.718929,-278.141451,29.297322,7.631244,3.314968,7.976977
415,22.156100,-269.230182,31.433585,9.724782,3.275489,4.720629
416,22.156100,-269.230182,31.433585,9.724782,3.275489,4.720629
417,22.034028,-243.167773,32.654307,11.112499,3.481254,2.932149
418,22.034028,-243.167773,32.654307,11.112499,3.481254,2.932149
419,15.564202,-207.644770,34.241245,11.083787,3.197729,2.150961
420,-5.310140,-141.176471,66.651408,-10.558608,-3.666682,9.886284
421,-3.662165,-160.036622,55.481804,-9.808524,-4.199039,8.601450
422,-3.662165,-160.036622,55.481804,-9.808524,-4.199039,8.601450
423,0.976577,-172.976272,43.762875,-9.065617,-4.687132,7.235267
424,0.976577,-172.976272,43.762875,-9.065617,-4.687132,7.235267
425,10.559243,-179.995422,31.128405,-8.203079,-4.933571,5.839176
426,10.559243,-179.995422,31.128405,-8.203079,-4.933571,5.839176
427,24.536507,-180.910964,19.592584,-7.204163,-5.104643,4.438300
428,24.536507,-180.910964,19.592584,-7.204163,-5.104643,4.438300
429,127.626459,-81.239033,-37.903410,-5.148907,-1.381735,2.495497
430,1.281758,-49.317159,-19.592584,-0.835023,0.774011,9.746316
431,-5.737392,-53.772793,-20.630198,-0.587387,0.989346,9.821683
432,-5.737392,-53.772793,-20.630198,-0.587387,0.989346,9.821683
433,-16.906996,-58.045319,-20.752270,-0.295488,0.718981,9.710426
434,-16.906996,-58.045319,-20.752270,-0.295488,0.718981,9.710426
435,-25.940337,-60.547799,-21.606775,0.004785,0.119631,9.574047
436,-25.940337,-60.547799,-21.606775,0.004785,0.119631,9.574047
437,-28.442817,-60.303655,-23.987182,0.311040,-0.139968,9.465183
438,-28.442817,-60.303655,-23.987182,0.311040,-0.139968,9.465183
439,-24.841688,-56.397345,-24.780652,0.586191,-0.307451,9.154144
440,2.197299,30.518044,-6.897078,-0.927138,-0.456989,9.148162
441,2.197299,30.518044,-6.897078,-0.927138,-0.456989,9.148162
442,2.319371,31.189441,-5.188067,-0.886464,-0.327788,9.332393
443,2.319371,31.189441,-5.188067,-0.886464,-0.327788,9.332393
444,1.953155,30.884260,-4.211490,-0.921157,-0.311040,9.239081
445,1.953155,30.884260,-4.211490,-0.921157,-0.311040,9.239081
446,0.488289,30.579080,-3.906310,-0.964224,-0.319414,9.251044
447,0.488289,30.579080,-3.906310,-0.964224,-0.319414,9.251044
448,-0.671397,31.311513,-3.540093,-0.685484,-0.332573,9.182855
449,-7.446403,60.486763,-10.864424,-0.275151,0.078956,8.992642
450,71.595331,239.261463,-33.386740,-3.521929,-0.118434,17.936236
451,71.595331,239.261463,-33.386740,-3.521929,-0.118434,17.936236
452,92.347601,202.334630,-23.865110,-4.635691,0.476130,19.459135
453,111.146716,157.778286,-15.686275,-4.233732,1.574340,19.599701
454,111.146716,157.778286,-15.686275,-4.233732,1.574340,19.599701
455,122.865644,103.944457,-2.807660,-2.429700,2.688103,19.599701
456,122.865644,103.944457,-2.807660,-2.429700,2.688103,19.599701
457,127.748531,51.880674,14.343481,-1.161614,2.668962,16.141775
458,127.748531,51.880674,14.343481,-1.161614,2.668962,16.141775
459,133.363851,21.301595,19.714656,-0.314629,1.890166,12.683250
460,199.343862,-233.340963,-113.832303,-2.150961,-7.146740,12.518160
461,199.343862,-233.340963,-113.832303,-2.150961,-7.146740,12.518160
462,208.010987,-235.782406,-125.062943,-2.408167,-7.127599,12.281291
463,208.010987,-235.782406,-125.062943,-2.408167,-7.127599,12.281291
464,215.579461,-237.308309,-136.171511,-2.639054,-6.919442,12.019300
465,215.579461,-237.308309,-136.171511,-2.639054,-6.919442,12.019300
466,222.415503,-238.284886,-146.364538,-2.824482,-6.554568,11.830283
467,222.415503,-238.284886,-146.364538,-2.824482,-6.554568,11.830283
468,227.603571,-238.467994,-155.458915,-2.880708,-6.074849,11.567095
469,234.256504,-229.800870,-178.347448,-1.994244,-3.489628,10.291832
470,107.118334,-28.015564,-132.631418,-5.220685,-0.909194,5.333138
471,91.309987,-23.620966,-124.757763,-4.957498,-0.778796,5.074736
472,91.309987,-23.620966,-124.757763,-4.957498,-0.778796,5.074736
473,72.693980,-18.493935,-117.982757,-4.739770,-0.576620,4.845045
474,72.693980,-18.493935,-117.982757,-4.739770,-0.576620,4.845045
475,51.575494,-12.329290,-111.757076,-4.553146,-0.403156,4.764892
476,51.575494,-12.329290,-111.757076,-4.553146,-0.403156,4.764892
477,29.663539,-5.554284,-105.897612,-4.433515,-0.281132,4.831885
478,29.663539,-5.554284,-105.897612,-4.433515,-0.281132,4.831885
479,8.178836,1.464866,-100.099184,-4.400018,-0.202176,5.004154
480,-7.019150,23.437858,-13.916228,-0.441437,0.679503,10.482045
481,-11.657893,20.569162,-13.183795,-0.156716,0.850575,10.276280
482,-11.657893,20.569162,-13.183795,-0.156716,0.850575,10.276280
483,-17.212177,18.799115,-12.390326,0.001196,0.692662,10.126741
484,-17.212177,18.799115,-12.390326,0.001196,0.692662,10.126741
485,-22.217136,18.127718,-11.596857,-0.063404,0.406744,10.232016
486,-22.217136,18.127718,-11.596857,-0.063404,0.406744,10.232016
487,-24.597543,17.700465,-10.193027,-0.277543,-0.002393,10.559805
488,-24.597543,17.700465,-10.193027,-0.277543,-0.002393,10.559805
489,-3.906310,13.427939,-2.014191,0.997720,0.413922,9.466380
490,2.014191,11.352712,1.709010,-0.094508,0.106471,9.753494
491,2.014191,11.352712,1.709010,-0.094508,0.106471,9.753494
492,1.953155,11.047532,1.342794,-0.100490,0.142361,9.742727
493,1.953155,11.047532,1.342794,-0.100490,0.142361,9.742727
494,1.892119,10.620279,1.159686,-0.061012,0.190213,9.791775
495,1.892119,10.620279,1.159686,-0.061012,0.190213,9.791775
496,1.464866,9.826810,1.098650,-0.132790,0.111257,9.705641
497,1.464866,9.826810,1.098650,-0.132790,0.111257,9.705641
498,1.220722,9.582666,0.671397,-0.111257,0.171072,9.783401
499,1.220722,9.582666,0.671397,-0.111257,0.171072,9.783401
500,4.333562,31.982910,0.305180,-0.047852,0.142361,9.629078
501,4.272526,33.508812,0.305180,-0.033497,0.110060,9.687697
502,4.272526,33.508812,0.305180,-0.033497,0.110060,9.687697
503,4.455634,35.217823,-0.366217,0.003589,0.190213,9.639844
504,4.455634,35.217823,-0.366217,0.003589,0.190213,9.639844
505,4.333562,37.293050,-0.915541,0.035889,0.181839,9.576440
506,4.333562,37.293050,-0.915541,0.035889,0.181839,9.576440
507,3.784237,39.795529,-1.403830,0.029908,0.149538,9.572851
508,3.784237,39.795529,-1.403830,0.029908,0.149538,9.572851
509,5.432212,54.688334,-0.976577,-0.104079,0.005982,9.370675
510,262.821393,171.633478,-105.958648,-2.223935,-2.801752,14.676298
511,298.344396,154.970626,-112.367437,-1.318331,-2.243076,14.006366
512,298.344396,154.970626,-112.367437,-1.318331,-2.243076,14.006366
513,329.777981,140.199893,-119.508660,-0.715392,-1.171185,13.485972
514,329.777981,140.199893,-119.508660,-0.715392,-1.171185,13.485972
515,348.271916,124.452583,-125.246052,-0.465364,0.209354,12.489448
516,348.271916,124.452583,-125.246052,-0.465364,0.209354,12.489448
517,351.689937,109.925994,-129.884794,-0.710607,1.245356,11.313478
518,351.689937,109.925994,-129.884794,-0.710607,1.245356,11.313478
519,340.703441,99.244678,-135.927367,-1.240571,1.963140,10.948605
520,189.394980,-188.235294,-130.800336,-1.046769,-6.182516,10.824189
521,194.094759,-192.263676,-139.528496,-1.207074,-5.977948,10.715325
522,194.094759,-192.263676,-139.528496,-1.207074,-5.977948,10.715325
523,197.940032,-195.925841,-147.463188,-1.259712,-5.726723,10.564590
524,197.940032,-195.925841,-147.463188,-1.259712,-5.726723,10.564590
525,200.747692,-198.855573,-154.299229,-1.323116,-5.433628,10.422229
526,200.747692,-198.855573,-154.299229,-1.323116,-5.433628,10.422229
527,202.883955,-201.052873,-159.853513,-1.379342,-5.130962,10.275084
528,204.104677,-203.006027,-164.492256,-1.436765,-4.791211,10.145882
529,195.254444,-205.386435,-175.234607,-1.905718,-3.049387,9.914995
530,28.259709,-75.867857,15.259022,-4.033948,0.397174,4.231339
531,28.259709,-75.867857,15.259022,-4.033948,0.397174,4.231339
532,0.427253,-60.608835,21.057450,-3.897569,0.935512,4.425141
533,0.427253,-60.608835,21.057450,-3.897569,0.935512,4.425141
534,-24.109255,-47.547112,27.283131,-4.088978,0.122023,4.260050
535,-24.109255,-47.547112,27.283131,-4.088978,0.122023,4.260050
536,-42.725261,-40.588998,30.273899,-4.648850,-0.145949,3.754012
537,-42.725261,-40.588998,30.273899,-4.648850,-0.145949,3.754012
538,-59.449149,-33.325704,33.813993,-4.925197,-0.739318,3.629596
539,-59.449149,-33.325704,33.813993,-4.925197,-0.739318,3.629596
540,-2.319371,16.357671,-8.178836,-0.150735,0.278740,10.167416
541,-2.319371,16.357671,-8.178836,-0.150735,0.278740,10.167416
542,-0.732433,15.381094,-4.760815,-0.214139,-0.102882,9.818094
543,-0.732433,15.381094,-4.760815,-0.214139,-0.102882,9.818094
544,0.305180,16.052491,-4.394598,-0.183035,-0.455793,9.704445
545,0.305180,16.052491,-4.394598,-0.183035,-0.455793,9.704445
546,-1.709010,16.723888,-5.432212,-0.216532,-0.309844,9.747512
547,-1.709010,16.723888,-5.432212,-0.216532,-0.309844,9.747512
548,3.112840,18.310826,-0.915541,-0.055030,-0.126809,9.765457
549,3.112840,18.310826,-0.915541,-0.055030,-0.126809,9.765457
550,16.418708,28.015564,2.563516,-0.565853,0.211746,9.335982
551,16.418708,28.015564,2.563516,-0.565853,0.211746,9.335982
552,16.052491,27.588312,2.685588,-0.662754,0.239261,9.466380
553,16.052491,27.588312,2.685588,-0.662754,0.239261,9.466380
554,14.892805,27.161059,3.051804,-0.812293,0.093312,9.686500
555,14.892805,27.161059,3.051804,-0.812293,0.093312,9.686500
556,14.038300,25.635157,3.540093,-0.868519,-0.068190,9.733156
557,14.038300,25.635157,3.540093,-0.868519,-0.068190,9.733156
558,14.038300,23.315785,4.089418,-0.718981,-0.084938,9.539355
559,14.038300,23.315785,4.089418,-0.718981,-0.084938,9.539355
560,12.268254,152.529183,1.586938,1.489403,0.443830,8.634946
561,9.460594,173.159380,0.732433,1.845902,0.594565,9.004605
562,9.460594,173.159380,0.732433,1.845902,0.594565,9.004605
563,4.089418,193.911650,0.061036,2.324425,0.498860,8.722277
564,4.089418,193.911650,0.061036,2.324425,0.498860,8.722277
565,-0.976577,217.959869,-1.953155,2.862763,0.506038,8.362188
566,-0.976577,217.959869,-1.953155,2.862763,0.506038,8.362188
567,-3.051804,245.792325,-4.516670,3.251563,0.522786,8.067897
568,-3.051804,245.792325,-4.516670,3.251563,0.522786,8.067897
569,-38.574807,439.337758,-45.532921,2.918990,0.846986,6.760333
570,-49.134051,-88.624399,39.368276,-1.260908,0.323003,2.330407
571,-49.988556,-81.483177,40.772107,-1.428391,-0.217728,2.311266
572,-49.988556,-81.483177,40.772107,-1.428391,-0.217728,2.311266
573,-46.509499,-73.914702,42.481117,-1.447532,-0.693858,2.276573
574,-46.509499,-73.914702,42.481117,-1.447532,-0.693858,2.276573
575,-38.757916,-64.942397,44.617380,-1.501366,-1.057536,2.140194
576,-38.757916,-64.942397,44.617380,-1.501366,-1.057536,2.140194
577,-27.405203,-54.383154,47.425040,-1.567163,-1.306368,2.051667
578,-27.405203,-54.383154,47.425040,-1.567163,-1.306368,2.051667
579,-13.061723,-42.542153,51.087205,-1.721486,-1.405661,2.005011
580,-189.456016,-84.290837,-61.951629,-12.027674,0.631650,16.836829
581,-189.456016,-84.290837,-61.951629,-12.027674,0.631650,16.836829
582,-249.576562,-151.186389,-74.586099,-10.910323,0.449812,13.776675
583,-249.576562,-151.186389,-74.586099,-10.910323,0.449812,13.776675
584,-252.018006,-184.939345,-69.703212,-12.594723,-0.366070,9.542943
585,-252.018006,-184.939345,-69.703212,-12.594723,-0.366070,9.542943
586,-209.353780,-175.844968,-57.618067,-13.808975,-1.009683,11.291945
587,-209.353780,-175.844968,-57.618067,-13.808975,-1.009683,11.291945
588,-150.576028,-183.230335,-41.199359,-11.998962,-1.821976,13.158184
589,74.158846,-258.365759,0.610361,-3.531499,-0.397174,12.372210
590,-116.334783,503.730831,-93.141070,-0.628061,-0.534749,8.729454
591,-116.334783,503.730831,-93.141070,-0.628061,-0.534749,8.729454
592,-111.635004,501.899748,-99.732967,-0.256010,0.217728,10.504775
593,-111.635004,501.899748,-99.732967,-0.256010,0.217728,10.504775
594,-106.263828,487.678340,-102.906844,0.726159,0.660362,12.774170
595,-106.263828,487.678340,-102.906844,0.726159,0.660362,12.774170
596,-106.507973,461.615930,-105.592432,2.231113,0.876893,15.908495
597,-106.507973,461.615930,-105.592432,2.231113,0.876893,15.908495
598,-111.879149,421.454185,-106.019684,3.882017,1.871025,19.599701
599,-111.879149,421.454185,-106.019684,3.882017,1.871025,19.599701
600,76.295109,91.615167,113.099870,-8.466267,1.921270,4.618943
601,76.295109,91.615167,113.099870,-8.466267,1.921270,4.618943
602,71.534295,88.258183,122.865644,-9.155340,2.296910,5.549670
603,71.534295,88.258183,122.865644,-9.155340,2.296910,5.549670
604,66.102083,81.666285,134.218357,-9.892265,2.324425,6.464845
605,66.102083,81.666285,134.218357,-9.892265,2.324425,6.464845
606,60.669871,70.130465,145.632105,-10.578946,2.234702,7.211341
607,60.669871,70.130465,145.632105,-10.578946,2.234702,7.211341
608,54.261082,54.077974,156.191348,-11.012009,2.051667,7.723360
609,2.929732,-36.194400,172.365911,-10.953390,-0.348125,7.657563
610,14.160372,3.479057,-4.028382,-0.521590,0.133986,8.924453
611,17.456321,5.859464,-3.540093,-0.698643,0.559872,9.112273
612,17.456321,5.859464,-3.540093,-0.698643,0.559872,9.112273
613,13.427939,5.432212,-3.723201,-1.091032,0.596957,9.386227
614,13.427939,5.432212,-3.723201,-1.091032,0.596957,9.386227
615,6.775006,1.403830,-5.004959,-1.361398,0.555087,9.388620
616,6.775006,1.403830,-5.004959,-1.361398,0.555087,9.388620
617,1.403830,-4.150454,-6.164645,-1.323116,0.436652,9.341964
618,1.403830,-4.150454,-6.164645,-1.323116,0.436652,9.341964
619,-0.732433,-8.728161,-6.836042,-0.990542,0.275151,9.298897
620,-5.310140,41.016251,-10.376135,0.397174,0.470149,9.227118
621,-7.324331,49.866484,-11.352712,0.455793,0.421100,9.140984
622,-7.324331,49.866484,-11.352712,0.455793,0.421100,9.140984
623,-8.117800,59.693294,-12.634470,0.510823,0.393585,9.166107
624,-8.117800,59.693294,-12.634470,0.510823,0.393585,9.166107
625,-7.934691,70.191501,-13.855192,0.559872,0.392389,9.121843
626,-7.934691,70.191501,-13.855192,0.559872,0.392389,9.121843
627,-8.117800,81.239033,-15.075914,0.561068,0.404352,9.181659
628,-8.117800,81.239033,-15.075914,0.561068,0.404352,9.181659
629,-13.244831,152.407111,-21.972992,0.576620,0.317021,8.900526
630,15.869383,-233.585107,15.869383,-1.421213,0.654380,9.788186
631,15.869383,-233.585107,15.869383,-1.421213,0.654380,9.788186
632,49.683375,-246.036469,31.799802,-0.125612,0.583798,8.247343
633,49.683375,-246.036469,31.799802,-0.125612,0.583798,8.247343
634,81.055924,-250.858320,45.960174,0.846986,0.730944,6.748370
635,103.639277,-249.454490,58.350500,1.391305,0.954653,5.565222
636,103.639277,-249.454490,58.350500,1.391305,0.954653,5.565222
637,115.114061,-244.083314,68.177310,1.612622,1.012076,4.730199
638,115.114061,-244.083314,68.177310,1.612622,1.012076,4.730199
639,117.006180,-236.636912,74.097810,1.430784,0.891249,4.021985
640,-39.490349,20.935378,-164.919509,-11.117284,8.363384,9.458006
641,-39.490349,20.935378,-164.919509,-11.117284,8.363384,9.458006
642,-139.528496,-29.785611,-172.793164,-12.161660,8.685191,9.407761
643,-139.528496,-29.785611,-172.793164,-12.161660,8.685191,9.407761
644,-222.781720,-67.139696,-173.342489,-14.691850,8.942397,5.821231
645,-222.781720,-67.139696,-173.342489,-14.691850,8.942397,5.821231
646,-273.258564,-74.952316,-171.816587,-16.416925,11.692708,9.137395
647,-273.258564,-74.952316,-171.816587,-16.416925,11.692708,9.137395
648,-308.049134,-101.747158,-151.125353,-17.412253,9.649415,13.872380
649,-187.685969,-362.432288,-54.932479,0.300273,-9.639844,8.020044
650,-5.371176,7.629511,-11.108568,-0.363677,-0.311040,9.611133
651,-5.371176,7.629511,-11.108568,-0.363677,-0.311040,9.611133
652,-9.033341,5.859464,-13.061723,-0.338555,0.064601,9.663771
653,-9.033341,5.859464,-13.061723,-0.338555,0.064601,9.663771
654,-9.948882,5.432212,-12.146181,-0.317021,-0.318218,9.376657
655,-9.948882,5.432212,-12.146181,-0.317021,-0.318218,9.376657
656,-10.498207,6.775006,-11.291676,-0.244047,-0.326592,9.503465
657,-10.498207,6.775006,-11.291676,-0.244047,-0.326592,9.503465
658,-6.652934,8.361944,-11.047532,-0.128005,-0.641221,9.358712
659,-6.652934,8.361944,-11.047532,-0.128005,-0.641221,9.358712
660,-114.076448,522.102693,-70.008392,-0.696251,-1.028824,8.516512
661,-109.681849,513.679713,-68.909743,0.141164,-0.979776,8.815589
662,-105.348287,503.852903,-68.543526,1.351827,-1.202289,9.246259
663,-105.348287,503.852903,-68.543526,1.351827,-1.202289,9.246259
664,-105.226215,492.622263,-71.656367,2.622306,-1.175970,10.054963
665,-105.226215,492.622263,-71.656367,2.622306,-1.175970,10.054963
666,-107.789731,478.461891,-75.928893,3.678645,-0.919960,11.733382
667,-107.789731,478.461891,-75.928893,3.678645,-0.919960,11.733382
668,-107.240406,458.930343,-79.163806,5.298445,-0.448615,15.207459
669,108.583200,188.052186,41.687648,-13.762319,-2.377063,19.599701
670,15.503166,61.890593,134.096284,-6.699321,-2.098323,4.829493
671,13.366903,61.524376,131.471733,-7.179040,-2.934542,5.031669
672,13.366903,61.524376,131.471733,-7.179040,-2.934542,5.031669
673,13.061723,60.059510,126.222629,-7.718575,-3.287453,5.379794
674,13.061723,60.059510,126.222629,-7.718575,-3.287453,5.379794
675,15.197986,57.801175,121.644923,-8.270072,-4.116493,6.201657
676,15.197986,57.801175,121.644923,-8.270072,-4.116493,6.201657
677,23.498894,53.162432,114.503700,-9.143377,-4.286369,6.787848
678,23.498894,53.162432,114.503700,-9.143377,-4.286369,6.787848
679,36.011292,46.143282,109.437705,-10.302599,-4.609372,7.518791
680,15.747311,-60.059510,6.897078,0.045460,1.638941,10.082478
681,9.277485,-55.725948,0.305180,-0.196194,1.717897,10.081282
682,9.277485,-55.725948,0.305180,-0.196194,1.717897,10.081282
683,-2.502480,-53.650721,-6.408789,-0.387604,1.306368,9.971221
684,-2.502480,-53.650721,-6.408789,-0.387604,1.306368,9.971221
685,-16.723888,-52.552071,-12.207218,-0.624472,0.898427,9.714015
686,-16.723888,-52.552071,-12.207218,-0.624472,0.898427,9.714015
687,-25.696193,-52.735180,-15.075914,-0.910390,0.344537,9.562084
688,-25.696193,-52.735180,-15.075914,-0.910390,0.344537,9.562084
689,-4.272526,-75.989929,-13.550011,-2.333996,0.590976,8.996231
690,0.671397,14.282444,-6.652934,-0.825452,0.068190,9.218744
691,1.770047,15.686275,-5.127031,-0.640024,0.119631,9.156536
692,1.770047,15.686275,-5.127031,-0.640024,0.119631,9.156536
693,2.868696,18.738079,-3.784237,-0.428278,0.238065,9.290523
694,2.868696,18.738079,-3.784237,-0.428278,0.238065,9.290523
695,2.807660,22.034028,-2.929732,-0.285917,0.229691,9.315645
696,2.807660,22.034028,-2.929732,-0.285917,0.229691,9.315645
697,2.441444,25.757229,-2.807660,-0.186624,0.393585,9.233100
698,2.441444,25.757229,-2.807660,-0.186624,0.393585,9.233100
699,1.953155,31.311513,-2.075227,-0.037086,0.352911,9.233100
700,-0.183108,240.909438,-43.579767,-1.445139,0.428278,7.925536
701,-1.770047,245.304036,-47.974365,-1.604248,0.727355,7.889647
702,-1.770047,245.304036,-47.974365,-1.604248,0.727355,7.889647
703,-4.760815,249.454490,-52.124819,-1.806424,0.946279,7.980566
704,-4.760815,249.454490,-52.124819,-1.806424,0.946279,7.980566
705,-8.300908,251.590753,-56.763561,-1.857865,1.180755,7.895628
706,-8.300908,251.590753,-56.763561,-1.857865,1.180755,7.895628
707,-12.939651,254.337377,-62.256809,-1.963140,1.126921,7.841794
708,-12.939651,254.337377,-62.256809,-1.963140,1.126921,7.841794
709,-44.251164,278.629740,-97.535668,-2.030134,-0.242850,7.618085
710,85.450523,-212.832837,-82.642863,-0.399567,-3.035032,10.502382
711,90.150301,-216.556039,-85.023270,-0.443830,-3.621222,10.435389
712,90.150301,-216.556039,-85.023270,-0.443830,-3.621222,10.435389
713,97.779812,-219.729915,-88.502327,-0.541927,-4.148794,10.316954
714,97.779812,-219.729915,-88.502327,-0.541927,-4.148794,10.316954
715,107.667659,-222.171359,-93.202106,-0.659165,-4.522042,10.167416
716,107.667659,-222.171359,-93.202106,-0.659165,-4.522042,10.167416
717,119.569696,-223.514153,-98.634318,-0.787170,-4.835474,10.054963
718,119.569696,-223.514153,-98.634318,-0.787170,-4.835474,10.054963
719,132.692454,-224.185550,-105.043107,-0.848182,-5.154888,9.983185
720,184.878309,-169.130999,-88.075074,-3.134325,-6.385888,10.491615
721,179.507134,-166.384375,-100.587472,-3.198926,-6.619168,10.245176
722,179.507134,-166.384375,-100.587472,-3.198926,-6.619168,10.245176
723,174.013886,-163.332570,-114.991989,-3.259937,-6.756744,9.916191
724,174.013886,-163.332570,-114.991989,-3.259937,-6.756744,9.916191
725,168.947890,-159.548333,-130.434119,-3.310182,-6.876374,9.455613
726,168.947890,-159.548333,-130.434119,-3.310182,-6.876374,9.455613
727,165.102617,-154.848554,-146.486610,-3.336501,-6.693339,9.087150
728,165.102617,-154.848554,-146.486610,-3.336501,-6.693339,9.087150
729,173.159380,-109.437705,-218.081941,-4.127260,-4.742162,6.915853
730,-68.482490,57.312886,-10.864424,0.461775,1.198700,9.553710
731,-68.482490,57.312886,-10.864424,0.461775,1.198700,9.553710
732,-78.309300,57.557031,-11.596857,-0.045460,0.228495,9.909014
733,-78.309300,57.557031,-11.596857,-0.045460,0.228495,9.909014
734,-76.112001,56.458381,-10.070954,-0.495271,-0.647202,10.150668
735,-76.112001,56.458381,-10.070954,-0.495271,-0.647202,10.150668
736,-66.590372,54.077974,-8.056764,-0.819471,-1.472654,10.410266
737,-66.590372,54.077974,-8.056764,-0.819471,-1.472654,10.410266
738,-53.833829,50.171664,-8.545052,-0.949868,-1.617407,10.870845
739,-53.833829,50.171664,-8.545052,-0.949868,-1.617407,10.870845
740,2.868696,10.193027,2.563516,-0.144753,0.163894,9.845609
741,2.868696,10.193027,2.563516,-0.144753,0.163894,9.845609
742,1.647974,9.582666,1.892119,-0.112453,0.186624,9.815702
743,1.647974,9.582666,1.892119,-0.112453,0.186624,9.815702
744,1.037613,9.094377,1.586938,-0.071778,0.200980,9.802542
745,1.037613,9.094377,1.586938,-0.071778,0.200980,9.802542
746,0.549325,8.606088,1.586938,-0.049049,0.173465,9.791775
747,0.549325,8.606088,1.586938,-0.049049,0.173465,9.791775
748,0.671397,8.484016,1.159686,-0.051441,0.133986,9.735549
749,1.098650,8.056764,1.159686,-0.020337,0.131594,9.753494
750,3.601129,8.422980,2.136263,-0.019141,0.101686,9.666163
751,3.418021,8.850233,1.953155,0.019141,0.175857,9.641041
752,3.418021,8.850233,1.953155,0.019141,0.175857,9.641041
753,3.295949,9.521630,1.953155,0.026319,0.159109,9.679323
754,3.295949,9.521630,1.953155,0.026319,0.159109,9.679323
755,3.234913,10.437171,1.831083,0.038282,0.193802,9.696071
756,3.234913,10.437171,1.831083,0.038282,0.193802,9.696071
757,2.990768,11.230640,1.647974,0.056226,0.198587,9.688893
758,2.990768,11.230640,1.647974,0.056226,0.198587,9.688893
759,2.624552,12.024109,1.220722,0.047852,0.218924,9.698463
760,7.385367,66.102083,2.014191,-0.080153,0.105275,9.472361
761,7.812619,69.581140,1.770047,0.021534,0.153127,9.463987
762,7.812619,69.581140,1.770047,0.021534,0.153127,9.463987
763,8.850233,73.304341,2.258335,0.074171,0.102882,9.340768
764,8.850233,73.304341,2.258335,0.074171,0.102882,9.340768
765,10.742351,78.675517,2.807660,-0.009570,-0.132790,9.143377
766,10.742351,78.675517,2.807660,-0.009570,-0.132790,9.143377
767,13.611048,85.389487,2.136263,0.165090,-0.011963,9.386227
768,13.611048,85.389487,2.136263,0.165090,-0.011963,9.386227
769,32.593271,131.532769,9.765774,0.343340,-0.346929,9.338375
770,143.190661,-112.489509,-190.005341,2.129427,1.471458,6.663432
771,144.777600,-104.554818,-183.108263,2.661784,1.582715,6.494752
772,144.777600,-104.554818,-183.108263,2.661784,1.582715,6.494752
773,139.711604,-98.329137,-176.638437,2.934542,1.710719,6.518679
774,139.711604,-98.329137,-176.638437,2.934542,1.710719,6.518679
775,130.189975,-94.056611,-171.145190,3.005124,1.818387,6.596439
776,130.189975,-94.056611,-171.145190,3.005124,1.818387,6.596439
777,119.935912,-90.882734,-165.896086,3.008713,1.757375,6.607205
778,119.935912,-90.882734,-165.896086,3.008713,1.757375,6.607205
779,111.329824,-87.586786,-160.769055,2.968038,1.689186,6.670610
780,185.915923,-205.752651,-163.942931,-2.642643,-3.354446,10.107601
781,185.915923,-205.752651,-163.942931,-2.642643,-3.354446,10.107601
782,191.042954,-205.935760,-164.003967,-2.692888,-3.286256,10.193735
783,191.042954,-205.935760,-164.003967,-2.692888,-3.286256,10.193735
784,195.925841,-205.996796,-164.248112,-2.819696,-3.200122,10.315758
785,195.925841,-205.996796,-164.248112,-2.819696,-3.200122,10.315758
786,199.954223,-206.424048,-164.492256,-3.033835,-3.100829,10.383948
787,199.954223,-206.424048,-164.492256,-3.033835,-3.100829,10.383948
788,204.043641,-207.217517,-164.614328,-3.287453,-2.968038,10.412659
789,220.889601,-211.184863,-155.214771,-3.952599,-1.731057,9.526195
790,0.793469,18.799115,3.356985,-3.898766,-0.245243,4.329436
791,-27.954528,27.710384,3.356985,-2.378259,-1.000113,4.622531
792,-27.954528,27.710384,3.356985,-2.378259,-1.000113,4.622531
793,-84.473945,43.518730,-8.789197,-0.507234,-1.477440,7.787961
794,-128.053712,44.983597,-25.696193,0.459382,-2.593594,10.373181
795,-128.053712,44.983597,-25.696193,0.459382,-2.593594,10.373181
796,-145.021744,26.611734,-46.021210,0.508431,-2.885493,11.228540
797,-145.021744,26.611734,-46.021210,0.508431,-2.885493,11.228540
798,-139.711604,13.611048,-65.369650,0.957046,-2.386633,11.317067
799,-139.711604,13.611048,-65.369650,0.957046,-2.386633,11.317067
800,-2.014191,9.765774,1.342794,0.017945,-0.192605,9.887480
801,-2.014191,9.765774,1.342794,0.017945,-0.192605,9.887480
802,0.793469,9.826810,1.098650,0.116042,-0.192605,9.883891
803,0.793469,9.826810,1.098650,0.116042,-0.192605,9.883891
804,3.845274,10.131991,0.305180,0.198587,0.078956,9.873124
805,3.845274,10.131991,0.305180,0.198587,0.078956,9.873124
806,4.882887,10.437171,0.732433,0.221317,0.161501,9.773831
807,4.882887,10.437171,0.732433,0.221317,0.161501,9.773831
808,4.455634,10.925460,0.549325,0.151931,0.185428,9.815702
809,3.845274,8.911269,0.976577,0.252421,0.040674,9.746316
810,6.225681,15.747311,-3.723201,-0.442634,0.308647,9.642237
811,5.493248,14.160372,-4.272526,-0.596957,0.287114,9.831254
812,5.493248,14.160372,-4.272526,-0.596957,0.287114,9.831254
813,2.441444,10.681315,-4.516670,-0.674717,0.277543,9.971221
814,2.441444,10.681315,-4.516670,-0.674717,0.277543,9.971221
815,-1.098650,6.286717,-4.211490,-0.729747,0.145949,9.855180
816,-1.098650,6.286717,-4.211490,-0.729747,0.145949,9.855180
817,-2.746624,3.112840,-4.028382,-0.736925,0.083742,9.739138
818,-2.746624,3.112840,-4.028382,-0.736925,0.083742,9.739138
819,-2.563516,0.671397,-3.418021,-0.736925,0.028711,9.779812
820,0.488289,37.170977,-4.394598,-0.258402,-0.064601,9.541747
821,0.549325,38.025483,-4.943923,-0.334966,0.028711,9.721193
822,0.549325,38.025483,-4.943923,-0.334966,0.028711,9.721193
823,0.793469,38.208591,-4.394598,-0.334966,-0.117238,9.699660
824,0.793469,38.208591,-4.394598,-0.334966,-0.117238,9.699660
825,0.854505,39.124132,-3.906310,-0.211746,-0.108864,9.797757
826,0.854505,39.124132,-3.906310,-0.211746,-0.108864,9.797757
827,1.037613,40.283818,-2.197299,-0.078956,-0.058619,9.568066
828,5.554284,59.876402,2.685588,0.458186,0.123220,9.514232
829,6.042573,65.003433,2.990768,0.418708,0.168679,9.435276
830,57.923247,-291.935607,43.640803,3.165429,0.484504,11.922399
831,45.410849,-308.659495,28.809033,7.232874,-0.403156,7.391983
832,45.410849,-308.659495,28.809033,7.232874,-0.403156,7.391983
833,49.011978,-301.213092,7.324331,10.945016,-0.372052,3.502788
834,49.011978,-301.213092,7.324331,10.945016,-0.372052,3.502788
835,52.918288,-271.183337,-15.564202,13.706093,0.271562,0.169876
836,52.918288,-271.183337,-15.564202,13.706093,0.271562,0.169876
837,45.471885,-223.758297,-35.400931,15.529265,0.707018,-0.876893
838,45.471885,-223.758297,-35.400931,15.529265,0.707018,-0.876893
839,21.667811,-169.802396,-51.697566,14.110445,0.654380,-0.507234
840,-140.505074,-88.990616,94.361791,-10.508363,-2.378259,9.986773
841,-140.505074,-88.990616,94.361791,-10.508363,-2.378259,9.986773
842,-147.219043,-110.414282,83.558404,-9.874321,-3.391531,9.429294
843,-147.219043,-110.414282,83.558404,-9.874321,-3.391531,9.429294
844,-144.411383,-127.504387,73.121233,-9.294112,-4.141616,8.673228
845,-144.411383,-127.504387,73.121233,-9.294112,-4.141616,8.673228
846,-131.349660,-139.589532,64.209964,-8.724669,-4.712255,7.974585
847,-131.349660,-139.589532,64.209964,-8.724669,-4.712255,7.974585
848,61.646448,-126.527810,53.284504,-6.387085,-2.518227,3.944225
849,86.060884,-115.602350,55.115587,-6.288988,-1.526488,3.634382
850,-0.061036,-68.238346,4.089418,-1.435569,0.851771,9.632667
851,-0.061036,-68.238346,4.089418,-1.435569,0.851771,9.632667
852,-3.479057,-72.877089,2.990768,-1.618604,0.905605,9.791775
853,-3.479057,-72.877089,2.990768,-1.618604,0.905605,9.791775
854,-7.080186,-80.323491,0.061036,-1.751394,1.006094,9.886284
855,-7.080186,-80.323491,0.061036,-1.751394,1.006094,9.886284
856,-10.986496,-90.028229,-3.967346,-1.787283,1.214252,9.861161
857,-10.986496,-90.028229,-3.967346,-1.787283,1.214252,9.861161
858,-13.794156,-99.366751,-8.300908,-1.666456,1.463084,9.688893
859,-13.794156,-99.366751,-8.300908,-1.666456,1.463084,9.688893
860,1.892119,24.353399,-2.868696,-0.046656,0.392389,9.678126
861,5.188067,26.916915,-1.464866,0.131594,0.234476,9.386227
862,5.188067,26.916915,-1.464866,0.131594,0.234476,9.386227
863,4.333562,29.175250,-1.892119,0.196194,0.448615,9.469969
864,4.333562,29.175250,-1.892119,0.196194,0.448615,9.469969
865,3.112840,31.311513,-2.014191,0.162698,0.531160,9.541747
866,3.112840,31.311513,-2.014191,0.162698,0.531160,9.541747
867,2.563516,33.203632,-1.953155,-0.001196,0.482112,9.440061
868,2.563516,33.203632,-1.953155,-0.001196,0.482112,9.440061
869,0.976577,29.358358,-1.464866,-0.750085,0.283525,9.633863
870,-54.566262,568.123903,-86.060884,-0.210550,0.374444,6.434937
871,-73.548486,577.706569,-92.896925,-0.679503,-0.246439,6.315306
872,-73.548486,577.706569,-92.896925,-0.679503,-0.246439,6.315306
873,-88.685435,583.077745,-97.962921,-1.147259,-0.806311,6.364355
874,-88.685435,583.077745,-97.962921,-1.147259,-0.806311,6.364355
875,-95.033188,583.260853,-100.953689,-1.396091,-0.946279,7.999707
876,-95.033188,583.260853,-100.953689,-1.396091,-0.946279,7.999707
877,-88.197147,574.715801,-100.038148,-2.415344,-0.695055,10.639957
878,-88.197147,574.715801,-100.038148,-2.415344,-0.695055,10.639957
879,-66.956588,555.794614,-95.948730,-3.331716,-0.077760,14.679887
880,-3.234913,11.291676,95.948730,-3.832969,0.751281,2.573257
881,-2.014191,22.339208,104.982071,-4.254069,0.431867,2.873530
882,-2.014191,22.339208,104.982071,-4.254069,0.431867,2.873530
883,0.122072,31.372549,113.099870,-4.703880,0.166287,3.227637
884,0.122072,31.372549,113.099870,-4.703880,0.166287,3.227637
885,2.807660,38.269627,119.752804,-5.159673,-0.088527,3.548248
886,2.807660,38.269627,119.752804,-5.159673,-0.088527,3.548248
887,5.432212,43.091478,125.307088,-5.561633,-0.315825,3.921495
888,5.432212,43.091478,125.307088,-5.561633,-0.315825,3.921495
889,36.011292,38.818952,140.383001,-7.673115,-1.507347,6.098775
890,-208.255131,-236.453803,-14.099336,-2.907027,-2.930953,13.980047
891,-178.591592,-248.294804,-20.325017,-2.575650,-3.798276,14.927523
892,-178.591592,-248.294804,-20.325017,-2.575650,-3.798276,14.927523
893,-144.838636,-263.004501,-23.987182,-0.277543,-3.611652,14.915560
894,-144.838636,-263.004501,-23.987182,-0.277543,-3.611652,14.915560
895,-118.715190,-275.822080,-21.545739,2.533779,-3.992078,12.625827
896,-118.715190,-275.822080,-21.545739,2.533779,-3.992078,12.625827
897,-98.390173,-271.732662,-21.484703,4.264836,-3.636774,8.785681
898,-98.390173,-271.732662,-21.484703,4.264836,-3.636774,8.785681
899,-70.801862,-242.801556,-27.283131,6.092793,-2.110286,6.291380
900,-10.009918,-3.479057,-5.432212,0.331377,0.344537,9.754690
901,-9.826810,-2.075227,-5.310140,0.540731,0.122023,9.540551
902,-9.826810,-2.075227,-5.310140,0.540731,0.122023,9.540551
903,-9.216449,1.586938,-4.882887,0.562264,-0.047852,9.334786
904,-9.216449,1.586938,-4.882887,0.562264,-0.047852,9.334786
905,-6.530861,6.225681,-4.333562,0.392389,-0.011963,9.297700
906,-6.530861,6.225681,-4.333562,0.392389,-0.011963,9.297700
907,-1.281758,10.070954,-3.967346,0.217728,0.184231,9.524999
908,-1.281758,10.070954,-3.967346,0.217728,0.184231,9.524999
909,-2.563516,15.930419,-3.845274,-0.123220,0.162698,9.676930
910,2.807660,75.623713,-9.094377,0.380426,0.388800,9.386227
911,2.197299,83.985657,-8.484016,0.479719,0.406744,9.394601
912,2.197299,83.985657,-8.484016,0.479719,0.406744,9.394601
913,-0.488289,93.324178,-8.239872,0.649595,0.234476,9.449631
914,-0.488289,93.324178,-8.239872,0.649595,0.234476,9.449631
915,-4.150454,103.944457,-8.361944,0.788367,-0.001196,9.416135
916,-4.150454,103.944457,-8.361944,0.788367,-0.001196,9.416135
917,-5.188067,116.456855,-7.934691,0.909194,-0.210550,9.246259
918,-1.953155,131.166552,-7.080186,0.958242,-0.169876,8.947182
919,-1.953155,131.166552,-7.080186,0.958242,-0.169876,8.947182
920,77.210651,-109.620813,-82.642863,3.255152,3.964562,5.318782
921,57.557031,-108.949416,-80.933852,2.488319,4.147597,6.192087
922,57.557031,-108.949416,-80.933852,2.488319,4.147597,6.192087
923,38.025483,-110.902571,-75.318532,1.806424,4.018396,6.878767
924,38.025483,-110.902571,-75.318532,1.806424,4.018396,6.878767
925,25.635157,-115.236133,-65.857939,1.172381,3.690608,7.433854
926,25.635157,-115.236133,-65.857939,1.172381,3.690608,7.433854
927,23.682002,-121.095598,-53.467613,0.666343,3.247974,7.638422
928,23.682002,-121.095598,-53.467613,0.666343,3.247974,7.638422
929,70.374609,-115.602350,42.542153,1.838724,2.479945,3.252760
930,3.967346,-134.279393,-91.309987,-9.446043,6.183713,9.838431
931,-16.174563,-163.210498,-84.473945,-7.955444,4.751733,6.184909
932,-16.174563,-163.210498,-84.473945,-7.955444,4.751733,6.184909
933,-40.650034,-176.455329,-82.337682,-6.375122,3.343679,3.853306
934,-40.650034,-176.455329,-82.337682,-6.375122,3.343679,3.853306
935,-68.848707,-180.666819,-85.023270,-5.304427,2.935738,3.414261
936,-68.848707,-180.666819,-85.023270,-5.304427,2.935738,3.414261
937,-93.629358,-179.262989,-86.793317,-4.807959,2.601968,3.877232
938,-93.629358,-179.262989,-86.793317,-4.807959,2.601968,3.877232
939,-114.259556,-174.929427,-87.647822,-5.291267,1.813602,3.640363
940,-4.211490,5.432212,-6.164645,0.040674,0.236869,9.447239
941,-4.211490,5.432212,-6.164645,0.040674,0.236869,9.447239
942,-3.356985,7.446403,-7.019150,-0.072975,0.245243,9.629078
943,-3.356985,7.446403,-7.019150,-0.072975,0.245243,9.629078
944,-4.211490,7.324331,-7.690547,-0.328985,0.494075,9.566870
945,-4.211490,7.324331,-7.690547,-0.328985,0.494075,9.566870
946,-3.906310,7.080186,-7.812619,-0.372052,0.345733,9.669752
947,-3.906310,7.080186,-7.812619,-0.372052,0.345733,9.669752
948,-6.164645,5.920500,-8.361944,-0.470149,0.113649,9.749905
949,-2.868696,0.976577,-8.667124,-0.647202,0.156716,9.562084
950,-35.950256,315.739681,-27.466239,0.526375,0.483308,8.832337
951,-43.152514,334.416724,-31.738766,0.393585,0.477327,8.578720
952,-43.152514,334.416724,-31.738766,0.393585,0.477327,8.578720
953,-47.974365,353.521019,-36.499580,0.222513,0.270365,8.563168
954,-47.974365,353.521019,-36.499580,0.222513,0.270365,8.563168
955,-52.918288,371.953918,-42.298009,0.142361,0.406744,8.819178
956,-52.918288,371.953918,-42.298009,0.142361,0.406744,8.819178
957,-59.082933,388.311589,-46.692607,-0.057423,0.398370,8.809607
958,-59.082933,388.311589,-46.692607,-0.057423,0.398370,8.809607
959,-64.759289,403.631647,-51.697566,-0.285917,0.369659,8.779699
960,151.735714,-238.834211,-28.931106,-1.654493,-1.813602,7.403946
961,154.299229,-234.927901,-32.837415,-1.412839,-1.900932,6.828522
962,154.299229,-234.927901,-32.837415,-1.412839,-1.900932,6.828522
963,157.961395,-228.030823,-35.828183,-1.300386,-1.987066,6.288988
964,157.961395,-228.030823,-35.828183,-1.300386,-1.987066,6.288988
965,162.966354,-218.692302,-37.659266,-1.317134,-2.020563,5.962396
966,162.966354,-218.692302,-37.659266,-1.317134,-2.020563,5.962396
967,168.581674,-207.583734,-38.208591,-1.440354,-2.042097,5.656141
968,168.581674,-207.583734,-38.208591,-1.440354,-2.042097,5.656141
969,215.518425,-145.143816,-20.325017,-4.019593,-1.628174,7.243641
970,-66.529335,-127.321279,-98.023957,-8.017652,-1.461888,5.654945
971,-42.847333,-134.645609,-77.393759,-7.346523,-2.031330,5.497032
972,-42.847333,-134.645609,-77.393759,-7.346523,-2.031330,5.497032
973,-28.992142,-138.735027,-65.247578,-6.988827,-1.955962,4.715843
974,-28.992142,-138.735027,-65.247578,-6.988827,-1.955962,4.715843
975,-19.287404,-140.566110,-57.557031,-7.232874,-2.927364,3.610455
976,-19.287404,-140.566110,-57.557031,-7.232874,-2.927364,3.610455
977,-17.273213,-139.406424,-58.167391,-7.498454,-3.498003,3.185766
978,-17.273213,-139.406424,-58.167391,-7.498454,-3.498003,3.185766
979,-17.883574,-135.255970,-64.454108,-7.576214,-3.383157,3.164233
980,0.244144,5.920500,-1.220722,-0.052638,0.250028,9.736745
981,0.061036,7.263294,-0.366217,-0.138772,0.082545,9.441257
982,0.305180,9.460594,-0.793469,-0.102882,0.080153,9.578833
983,0.305180,9.460594,-0.793469,-0.102882,0.080153,9.578833
984,-0.488289,10.315099,-1.464866,-0.148342,0.270365,9.757082
985,-0.488289,10.315099,-1.464866,-0.148342,0.270365,9.757082
986,-1.892119,10.437171,-1.464866,-0.185428,0.168679,9.679323
987,-1.892119,10.437171,-1.464866,-0.185428,0.168679,9.679323
988,-4.028382,11.108568,-1.342794,-0.281132,0.168679,9.477147
989,-0.488289,13.611048,-0.671397,-0.284721,0.064601,9.662574
990,0.183108,19.165332,-1.770047,-0.462971,0.193802,9.369479
991,0.183108,19.165332,-1.770047,-0.462971,0.193802,9.369479
992,0.122072,19.653620,-1.770047,-0.456989,0.178250,9.438865
993,0.122072,19.653620,-1.770047,-0.456989,0.178250,9.438865
994,0.244144,20.141909,-1.953155,-0.492879,0.178250,9.406564
995,0.244144,20.141909,-1.953155,-0.492879,0.178250,9.406564
996,0.000000,20.386053,-1.770047,-0.527572,0.159109,9.449631
997,0.000000,20.386053,-1.770047,-0.527572,0.159109,9.449631
998,0.000000,20.447089,-1.770047,-0.532357,0.119631,9.408957
999,0.000000,20.447089,-1.770047,-0.532357,0.119631,9.408957
1000,37.476158,205.874723,30.457008,-0.361285,0.529964,9.542943
1001,40.527962,222.232395,30.395972,-1.213056,0.692662,9.420920
1002,41.077287,239.017319,30.518044,-0.927138,0.856556,9.795364
1003,41.077287,239.017319,30.518044,-0.927138,0.856556,9.795364
1004,40.833143,248.783093,31.067369,-0.677110,0.982168,9.831254
1005,40.833143,248.783093,31.067369,-0.677110,0.982168,9.831254
1006,36.316472,261.051347,31.677729,-0.264384,0.784778,9.700856
1007,36.316472,261.051347,31.677729,-0.264384,0.784778,9.700856
1008,31.616693,276.737621,30.762188,-0.417511,0.728551,9.290523
1009,74.097810,364.141299,31.250477,-1.940410,0.569442,10.724895
1010,132.509346,-133.485924,-134.279393,1.344649,-0.281132,8.567953
1011,126.100557,-137.087053,-129.884794,1.158025,-0.571835,8.917275
1012,126.100557,-137.087053,-129.884794,1.158025,-0.571835,8.917275
1013,121.705959,-142.092012,-125.490196,0.947475,-0.850575,9.257026
1014,121.705959,-142.092012,-125.490196,0.947475,-0.850575,9.257026
1015,119.508660,-147.951476,-120.912490,0.763244,-1.140081,9.528588
1016,119.508660,-147.951476,-120.912490,0.763244,-1.140081,9.528588
1017,119.264515,-154.482338,-116.090639,0.619687,-1.435569,9.791775
1018,119.264515,-154.482338,-116.090639,0.619687,-1.435569,9.791775
1019,120.973526,-161.806668,-111.390860,0.483308,-1.744216,10.009503
1020,188.723583,-184.878309,-184.145876,-3.763583,-3.780331,8.264091
1021,188.723583,-184.878309,-184.145876,-3.763583,-3.780331,8.264091
1022,181.704433,-180.300603,-176.760510,-3.852110,-3.489628,8.224613
1023,181.704433,-180.300603,-176.760510,-3.852110,-3.489628,8.224613
1024,175.295644,-175.906004,-167.238880,-3.913121,-3.195337,8.157620
1025,175.295644,-175.906004,-167.238880,-3.913121,-3.195337,8.157620
1026,167.116808,-170.778973,-157.473106,-3.919103,-2.872334,8.156423
1027,167.116808,-170.778973,-157.473106,-3.919103,-2.872334,8.156423
1028,118.593118,-142.397192,-108.339055,-4.743359,-2.408167,7.177844
1029,118.593118,-142.397192,-108.339055,-4.743359,-2.408167,7.177844
1030,18.738079,56.519417,-2.685588,-0.256010,2.142586,10.144686
1031,18.738079,56.519417,-2.685588,-0.256010,2.142586,10.144686
1032,4.516670,54.932479,-3.051804,-0.478523,2.080378,10.604068
1033,4.516670,54.932479,-3.051804,-0.478523,2.080378,10.604068
1034,-16.479744,48.279545,-4.333562,-0.701036,1.485814,11.001242
1035,-16.479744,48.279545,-4.333562,-0.701036,1.485814,11.001242
1036,-35.950256,39.124132,-5.432212,-0.946279,0.357696,11.064646
1037,-35.950256,39.124132,-5.432212,-0.946279,0.357696,11.064646
1038,-46.631571,31.982910,-7.690547,-0.842200,-0.434260,11.089769
1039,-46.631571,31.982910,-7.690547,-0.842200,-0.434260,11.089769
1040,0.732433,2.807660,-0.122072,-0.128005,0.214139,9.759475
1041,0.732433,2.807660,-0.122072,-0.128005,0.214139,9.759475
1042,0.244144,2.136263,-0.183108,-0.130397,0.189017,9.731960
1043,0.244144,2.136263,-0.183108,-0.130397,0.189017,9.731960
1044,-0.244144,1.647974,-0.366217,-0.117238,0.174661,9.714015
1045,-0.244144,1.647974,-0.366217,-0.117238,0.174661,9.714015
1046,-0.244144,1.342794,-0.366217,-0.117238,0.167483,9.690089
1047,-0.244144,1.342794,-0.366217,-0.117238,0.167483,9.690089
1048,-0.061036,1.037613,-0.366217,-0.092116,0.155520,9.729567
1049,0.000000,-0.671397,-0.366217,-0.110060,0.133986,9.734353
1050,2.563516,0.976577,0.000000,0.069386,0.242850,9.711623
1051,2.868696,1.709010,-0.122072,0.071778,0.246439,9.698463
1052,2.868696,1.709010,-0.122072,0.071778,0.246439,9.698463
1053,3.173877,2.380407,-0.183108,0.033497,0.301469,9.682911
1054,3.173877,2.380407,-0.183108,0.033497,0.301469,9.682911
1055,3.418021,3.173877,-0.061036,0.056226,0.325396,9.751101
1056,3.418021,3.173877,-0.061036,0.056226,0.325396,9.751101
1057,2.868696,4.028382,0.061036,0.062208,0.257206,9.735549
1058,2.868696,4.028382,0.061036,0.062208,0.257206,9.735549
1059,2.380407,4.760815,0.000000,0.058619,0.224906,9.697267
1060,69.092851,421.820401,6.897078,-8.819178,1.995441,14.248020
1061,76.783398,402.044709,1.342794,-5.955218,1.885380,17.163421
1062,76.783398,402.044709,1.342794,-5.955218,1.885380,17.163421
1063,79.041733,366.460670,-4.516670,-5.084306,0.564657,19.460331
1064,79.041733,366.460670,-4.516670,-5.084306,0.564657,19.460331
1065,67.689021,328.191043,-19.104295,-5.090288,-0.632847,19.599701
1066,67.689021,328.191043,-19.104295,-5.090288,-0.632847,19.599701
1067,55.848020,284.916457,-40.772107,-5.251789,-1.336275,19.599701
1068,142.458228,61.463340,-85.023270,1.303975,-2.975216,15.039976
1069,168.764782,39.490349,-96.375982,2.408167,-2.640250,12.841163
1070,33.020523,-249.759670,-7.751583,-1.823172,-6.245921,9.831254
1071,33.020523,-249.759670,-7.751583,-1.823172,-6.245921,9.831254
1072,119.996948,-237.430381,-8.484016,1.091032,-2.247861,8.420807
1073,119.996948,-237.430381,-8.484016,1.091032,-2.247861,8.420807
1074,160.524910,-215.945678,-7.629511,4.545968,2.915401,8.761755
1075,160.524910,-215.945678,-7.629511,4.545968,2.915401,8.761755
1076,148.256657,-200.137331,1.647974,6.751958,5.498228,7.615692
1077,148.256657,-200.137331,1.647974,6.751958,5.498228,7.615692
1078,91.676204,-181.704433,8.178836,7.202966,5.431235,6.153805
1079,91.676204,-181.704433,8.178836,7.202966,5.431235,6.153805
1080,0.244144,-2.929732,-1.342794,0.185428,0.102882,9.455613
1081,0.244144,-2.929732,-1.342794,0.185428,0.102882,9.455613
1082,2.258335,-0.671397,-1.098650,0.339751,0.223709,9.441257
1083,2.258335,-0.671397,-1.098650,0.339751,0.223709,9.441257
1084,2.868696,2.014191,-1.159686,0.384015,0.336162,9.410153
1085,2.868696,2.014191,-1.159686,0.384015,0.336162,9.410153
1086,1.892119,5.371176,-1.403830,0.343340,0.348125,9.503465
1087,1.892119,5.371176,-1.403830,0.343340,0.348125,9.503465
1088,1.037613,7.995727,-1.709010,0.252421,0.215335,9.547729
1089,2.075227,25.391012,-3.601129,0.380426,0.185428,9.328804
1090,8.972305,148.317693,-1.892119,2.854389,0.345733,8.765344
1091,8.972305,148.317693,-1.892119,2.854389,0.345733,8.765344
1092,11.841001,173.586633,-4.028382,3.135521,0.551498,8.686387
1093,11.841001,173.586633,-4.028382,3.135521,0.551498,8.686387
1094,11.108568,201.419089,-6.530861,3.289845,0.648399,8.474641
1095,11.108568,201.419089,-6.530861,3.289845,0.648399,8.474641
1096,6.652934,230.716411,-10.193027,3.208496,0.689073,8.599057
1097,6.652934,230.716411,-10.193027,3.208496,0.689073,8.599057
1098,2.563516,260.624094,-13.427939,3.201318,0.630454,8.626572
1099,2.563516,260.624094,-13.427939,3.201318,0.630454,8.626572
1100,93.873503,-143.862058,19.287404,-0.014356,-2.398596,3.136718
1101,93.873503,-143.862058,19.287404,-0.014356,-2.398596,3.136718
1102,85.999847,-136.781872,5.249104,-0.162698,-2.202402,2.745525
1103,85.999847,-136.781872,5.249104,-0.162698,-2.202402,2.745525
1104,79.835203,-127.931640,-6.958114,-0.028711,-1.967926,2.152157
1105,79.835203,-127.931640,-6.958114,-0.028711,-1.967926,2.152157
1106,75.989929,-114.991989,-16.357671,0.212943,-1.643726,1.555200
1107,75.989929,-114.991989,-16.357671,0.212943,-1.643726,1.555200
1108,74.647135,-98.878462,-21.972992,0.270365,-1.323116,1.015665
1109,106.019684,8.606088,13.061723,-2.747918,1.343453,1.461888
1110,-276.554513,-279.179065,-44.068055,-5.518566,-10.496400,12.783740
1111,-276.554513,-279.179065,-44.068055,-5.518566,-10.496400,12.783740
1112,-188.906691,-289.433127,-50.171664,-2.984787,-9.245063,13.598425
1113,-188.906691,-289.433127,-50.171664,-2.984787,-9.245063,13.598425
1114,-91.737240,-276.066224,-47.547112,-0.436652,-6.912264,12.257365
1115,-91.737240,-276.066224,-47.547112,-0.436652,-6.912264,12.257365
1116,-0.366217,-247.928588,-47.791257,3.415457,-2.105501,11.151977
1117,-0.366217,-247.928588,-47.791257,3.415457,-2.105501,11.151977
1118,60.181582,-223.758297,-40.466926,6.901497,1.603052,9.816898
1119,60.181582,-223.758297,-40.466926,6.901497,1.603052,9.816898
1120,2.136263,4.516670,-3.967346,0.008374,-0.122023,9.718801
1121,3.112840,6.286717,-4.394598,0.001196,0.081349,9.641041
1122,3.112840,6.286717,-4.394598,0.001196,0.081349,9.641041
1123,4.089418,8.361944,-3.173877,-0.009570,0.173465,9.724782
1124,4.089418,8.361944,-3.173877,-0.009570,0.173465,9.724782
1125,5.920500,10.131991,-1.342794,-0.139968,0.033497,9.485521
1126,5.920500,10.131991,-1.342794,-0.139968,0.033497,9.485521
1127,7.995727,11.902037,-1.403830,-0.148342,0.245243,9.710426
1128,7.995727,11.902037,-1.403830,-0.148342,0.245243,9.710426
1129,4.516670,16.296635,-2.075227,0.331377,0.193802,9.292915
1130,5.065995,279.179065,-8.361944,2.444056,0.635239,9.465183
1131,2.929732,307.072557,-10.864424,2.428504,0.784778,9.511839
1132,2.929732,307.072557,-10.864424,2.428504,0.784778,9.511839
1133,3.234913,335.088121,-14.038300,2.261021,0.842200,9.362301
1134,3.234913,335.088121,-14.038300,2.261021,0.842200,9.362301
1135,2.929732,363.042649,-17.700465,1.908110,0.961831,8.920864
1136,2.929732,363.042649,-17.700465,1.908110,0.961831,8.920864
1137,-0.122072,392.523079,-22.034028,1.442747,0.934316,8.748595
1138,-5.615320,422.613870,-29.114214,1.288423,1.294405,9.291719
1139,-5.615320,422.613870,-29.114214,1.288423,1.294405,9.291719
1140,-3.356985,-105.836576,59.632258,-0.667539,2.588809,1.720290
1141,-3.356985,-105.836576,59.632258,-0.667539,2.588809,1.720290
1142,-24.475471,-89.967193,61.402304,-1.265693,1.734646,1.392502
1143,-24.475471,-89.967193,61.402304,-1.265693,1.734646,1.392502
1144,-39.856565,-71.839475,63.233387,-1.949981,0.638828,1.394894
1145,-39.856565,-71.839475,63.233387,-1.949981,0.638828,1.394894
1146,-49.561303,-53.040360,63.538567,-2.685710,-0.575424,1.782498
1147,-49.561303,-53.040360,63.538567,-2.685710,-0.575424,1.782498
1148,-4.760815,17.517357,62.561990,-7.217322,-3.042210,4.435908
1149,-4.760815,17.517357,62.561990,-7.217322,-3.042210,4.435908
1150,72.632944,-217.288472,2.807660,3.847324,2.417737,9.485521
1151,72.632944,-217.288472,2.807660,3.847324,2.417737,9.485521
1152,30.334936,-207.522698,12.268254,4.151186,2.115071,8.225809
1153,30.334936,-207.522698,12.268254,4.151186,2.115071,8.225809
1154,-8.361944,-191.897459,17.944610,2.982394,0.869715,7.665937
1155,-8.361944,-191.897459,17.944610,2.982394,0.869715,7.665937
1156,-25.452049,-173.769741,19.592584,1.040787,-0.155520,7.870506
1157,-25.452049,-173.769741,19.592584,1.040787,-0.155520,7.870506
1158,-20.080873,-160.097658,22.644388,-1.423606,-0.814685,8.030811
1159,-20.080873,-160.097658,22.644388,-1.423606,-0.814685,8.030811
1160,-10.009918,22.278172,-9.765774,-0.203372,0.177053,9.836039
1161,-10.009918,22.278172,-9.765774,-0.203372,0.177053,9.836039
1162,-9.216449,21.972992,-9.216449,-0.273954,-0.478523,9.449631
1163,-9.216449,21.972992,-9.216449,-0.273954,-0.478523,9.449631
1164,-7.568475,23.804074,-11.413748,-0.267973,-0.229691,9.769046
1165,-7.568475,23.804074,-11.413748,-0.267973,-0.229691,9.769046
1166,-5.554284,23.926146,-11.108568,-0.242850,-0.260795,9.785794
1167,-5.554284,23.926146,-11.108568,-0.242850,-0.260795,9.785794
1168,-4.821851,24.109255,-10.131991,0.013159,-0.202176,9.864750
1169,-2.502480,32.654307,-7.385367,-0.233280,-0.114846,9.608740
1170,81.116960,-135.439078,31.006332,-7.959033,0.441437,19.599701
1171,81.116960,-135.439078,31.006332,-7.959033,0.441437,19.599701
1172,54.932479,-215.701534,22.644388,-2.749114,1.307564,19.599701
1173,54.932479,-215.701534,22.644388,-2.749114,1.307564,19.599701
1174,46.692607,-262.333104,17.578393,1.676027,1.704738,15.973095
1175,46.692607,-262.333104,17.578393,1.676027,1.704738,15.973095
1176,55.542840,-288.761730,12.817578,5.132158,1.284834,11.528814
1177,55.542840,-288.761730,12.817578,5.132158,1.284834,11.528814
1178,66.468299,-300.419623,3.051804,8.058326,0.702232,7.487687
1179,66.468299,-300.419623,3.051804,8.058326,0.702232,7.487687
1180,-5.493248,53.284504,119.996948,-8.198294,-1.555200,5.620252
1181,-4.638743,50.476844,116.456855,-8.274858,-2.062434,6.029389
1182,-4.638743,50.476844,116.456855,-8.274858,-2.062434,6.029389
1183,0.061036,46.387427,112.184329,-8.460285,-2.192831,6.198068
1184,0.061036,46.387427,112.184329,-8.460285,-2.192831,6.198068
1185,7.263294,42.114900,109.376669,-8.596664,-2.534975,6.762725
1186,7.263294,42.114900,109.376669,-8.596664,-2.534975,6.762725
1187,16.906996,35.889220,106.324865,-8.739025,-2.350744,7.202966
1188,82.459754,-14.404517,100.953689,-8.906508,-2.641447,7.976977
1189,88.685435,-26.001373,95.155261,-8.462678,-2.454823,7.872898
1190,25.085832,-3.967346,-9.155413,1.626978,-1.534862,9.675734
1191,38.147555,10.254063,-1.281758,1.214252,-0.564657,9.655396
1192,38.147555,10.254063,-1.281758,1.214252,-0.564657,9.655396
1193,38.208591,19.470512,3.112840,0.727355,0.252421,9.440061
1194,38.208591,19.470512,3.112840,0.727355,0.252421,9.440061
1195,27.893492,24.841688,5.432212,0.066993,0.584994,9.489110
1196,27.893492,24.841688,5.432212,0.066993,0.584994,9.489110
1197,14.770733,25.696193,6.103609,-0.667539,0.541927,9.810916
1198,14.770733,25.696193,6.103609,-0.667539,0.541927,9.810916
1199,5.859464,22.156100,5.737392,-1.189129,0.320610,9.918584
1200,2.746624,6.591897,-2.929732,-0.362481,0.287114,9.688893
1201,2.746624,6.591897,-2.929732,-0.362481,0.287114,9.688893
1202,-0.122072,6.225681,-2.319371,-0.418708,0.194998,9.589599
1203,-0.122072,6.225681,-2.319371,-0.418708,0.194998,9.589599
1204,-0.976577,6.103609,-2.014191,-0.338555,0.148342,9.624292
1205,-0.976577,6.103609,-2.014191,-0.338555,0.148342,9.624292
1206,-1.098650,6.286717,-1.342794,-0.281132,0.039478,9.527391
1207,-1.098650,6.286717,-1.342794,-0.281132,0.039478,9.527391
1208,0.671397,7.507439,-0.793469,-0.171072,0.066993,9.471165
1209,4.455634,17.212177,-0.488289,-0.203372,0.270365,9.558495
1210,-76.478218,480.598154,-100.709545,0.435456,-0.126809,13.064872
1211,-76.478218,480.598154,-100.709545,0.435456,-0.126809,13.064872
1212,-74.769207,458.442054,-98.390173,-0.605332,0.045460,15.715889
1213,-74.769207,458.442054,-98.390173,-0.605332,0.045460,15.715889
1214,-58.045319,420.843824,-89.845121,-1.575537,0.111257,19.599701
1215,-58.045319,420.843824,-89.845121,-1.575537,0.111257,19.599701
1216,-26.550698,360.662242,-74.464027,-2.552920,0.196194,19.599701
1217,-26.550698,360.662242,-74.464027,-2.552920,0.196194,19.599701
1218,14.099336,279.240101,-50.293736,-5.324764,0.277543,19.599701
1219,14.099336,279.240101,-50.293736,-5.324764,0.277543,19.599701
1220,140.871290,26.001373,21.484703,-4.873756,-3.910729,5.391757
1221,160.830091,34.424353,26.794842,-5.404916,-3.432206,6.012641
1222,160.830091,34.424353,26.794842,-5.404916,-3.432206,6.012641
1223,177.370871,39.246204,31.494621,-5.931292,-3.127147,6.723247
1224,177.370871,39.246204,31.494621,-5.931292,-3.127147,6.723247
1225,189.517052,40.527962,34.790570,-6.533034,-2.746722,7.433854
1226,189.517052,40.527962,34.790570,-6.533034,-2.746722,7.433854
1227,198.184176,38.452735,36.865797,-7.089317,-2.362707,8.282036
1228,217.715724,-14.953841,44.739452,-8.922060,-0.766833,10.165023
1229,216.556039,-29.968719,46.082246,-8.683995,-0.452204,10.056159
1230,-312.260624,-126.649882,-157.900359,-7.022324,-2.325621,19.599701
1231,-276.920729,-178.835737,-130.312047,-6.655058,-5.330745,19.599701
1232,-276.920729,-178.835737,-130.312047,-6.655058,-5.330745,19.599701
1233,-222.232395,-216.433967,-112.489509,-4.037537,-7.358486,15.163195
1234,-222.232395,-216.433967,-112.489509,-4.037537,-7.358486,15.163195
1235,-160.280766,-224.734875,-106.202792,-0.649595,-5.872673,11.309889
1236,-160.280766,-224.734875,-106.202792,-0.649595,-5.872673,11.309889
1237,-92.774853,-207.339590,-98.939498,2.630680,-2.203598,8.140871
1238,-92.774853,-207.339590,-98.939498,2.630680,-2.203598,8.140871
1239,-35.461967,-176.760510,-81.849393,4.409589,-0.570639,6.619168
1240,-1.342794,-1.647974,-1.953155,0.248832,-0.038282,9.694874
1241,-1.342794,-1.647974,-1.953155,0.248832,-0.038282,9.694874
1242,-0.488289,-0.244144,-1.403830,0.183035,0.017945,9.729567
1243,0.183108,0.732433,-1.037613,0.137575,0.063404,9.769046
1244,0.183108,0.732433,-1.037613,0.137575,0.063404,9.769046
1245,0.183108,1.098650,-0.915541,0.137575,0.093312,9.819290
1246,0.183108,1.098650,-0.915541,0.137575,0.093312,9.819290
1247,-0.305180,1.403830,-0.793469,0.141164,0.039478,9.824076
1248,-0.305180,1.403830,-0.793469,0.141164,0.039478,9.824076
1249,1.281758,4.272526,0.244144,0.031104,-0.128005,9.776223
1250,4.882887,7.568475,0.488289,-0.116042,0.068190,9.691286
1251,4.882887,7.568475,0.488289,-0.116042,0.068190,9.691286
1252,5.065995,7.751583,0.549325,-0.108864,0.061012,9.730764
1253,5.065995,7.751583,0.549325,-0.108864,0.061012,9.730764
1254,4.943923,7.812619,0.427253,-0.099294,0.139968,9.748708
1255,4.943923,7.812619,0.427253,-0.099294,0.139968,9.748708
1256,4.516670,7.751583,0.366217,-0.088527,0.123220,9.740334
1257,4.516670,7.751583,0.366217,-0.088527,0.123220,9.740334
1258,4.272526,7.751583,0.305180,-0.082545,0.130397,9.737942
1259,4.272526,7.751583,0.305180,-0.082545,0.130397,9.737942
1260,-16.174563,356.511788,-9.033341,-2.308873,0.671128,11.690315
1261,-15.808347,360.784314,-8.361944,-2.530190,0.260795,12.534908
1262,-15.808347,360.784314,-8.361944,-2.530190,0.260795,12.534908
1263,-11.108568,363.530938,-7.507439,-3.012302,-0.315825,12.664109
1264,-11.108568,363.530938,-7.507439,-3.012302,-0.315825,12.664109
1265,-4.516670,367.254139,-8.361944,-3.978918,-0.654380,11.346975
1266,-4.516670,367.254139,-8.361944,-3.978918,-0.654380,11.346975
1267,2.441444,371.160449,-12.573434,-4.447871,-0.107668,10.552627
1268,2.441444,371.160449,-12.573434,-4.447871,-0.107668,10.552627
1269,-22.400244,330.937667,-23.682002,-5.559240,-0.687877,15.164392
1270,118.715190,-164.614328,-24.597543,-0.010767,-3.407083,11.204614
1271,123.720150,-171.938659,-24.963760,0.014356,-3.829380,11.021579
1272,123.720150,-171.938659,-24.963760,0.014356,-3.829380,11.021579
1273,128.908217,-178.042268,-26.672770,0.031104,-4.200235,10.857685
1274,128.908217,-178.042268,-26.672770,0.031104,-4.200235,10.857685
1275,134.096284,-182.986191,-29.724575,0.014356,-4.543575,10.635172
1276,134.096284,-182.986191,-29.724575,0.014356,-4.543575,10.635172
1277,139.406424,-187.197681,-33.875029,-0.017945,-4.853419,10.434192
1278,139.406424,-187.197681,-33.875029,-0.017945,-4.853419,10.434192
1279,145.204852,-190.615702,-38.941024,-0.053834,-5.095073,10.284654
1280,186.892500,-124.574655,-161.745632,-3.616437,-5.004154,8.607431
1281,192.629892,-122.316320,-162.050813,-3.822202,-5.129766,8.455500
1282,192.629892,-122.316320,-162.050813,-3.822202,-5.129766,8.455500
1283,198.916609,-120.302129,-162.783246,-4.006433,-5.153692,8.286821
1284,198.916609,-120.302129,-162.783246,-4.006433,-5.153692,8.286821
1285,204.898146,-118.837263,-163.698787,-4.167935,-5.126177,8.104982
1286,208.133059,-117.738613,-165.651942,-4.295940,-5.014920,7.864524
1287,208.133059,-117.738613,-165.651942,-4.295940,-5.014920,7.864524
1288,208.194095,-116.823072,-168.642710,-4.396429,-4.874952,7.658759
1289,184.573129,-107.118334,-189.822232,-4.617746,-4.112905,5.817642
1290,102.235447,14.343481,0.000000,2.246665,-4.411981,7.845383
1291,102.235447,14.343481,0.000000,2.246665,-4.411981,7.845383
1292,151.491569,32.104982,2.014191,3.738460,0.361285,7.339345
1293,151.491569,32.104982,2.014191,3.738460,0.361285,7.339345
1294,159.243153,54.810407,6.713970,3.755209,3.849717,7.821457
1295,159.243153,54.810407,6.713970,3.755209,3.849717,7.821457
1296,140.016785,75.135424,9.948882,2.003815,4.086586,7.463761
1297,140.016785,75.135424,9.948882,2.003815,4.086586,7.463761
1298,104.310674,88.807507,3.112840,0.806311,5.408505,11.251270
1299,104.310674,88.807507,3.112840,0.806311,5.408505,11.251270
1300,0.549325,0.488289,-0.671397,-0.102882,0.151931,9.706838
1301,0.549325,0.488289,-0.671397,-0.102882,0.151931,9.706838
1302,0.915541,0.793469,-0.610361,-0.101686,0.150735,9.733156
1303,0.915541,0.793469,-0.610361,-0.101686,0.150735,9.733156
1304,1.342794,0.976577,-0.732433,-0.084938,0.160305,9.735549
1305,1.342794,0.976577,-0.732433,-0.084938,0.160305,9.735549
1306,1.403830,0.915541,-0.915541,-0.101686,0.135183,9.749905
1307,1.403830,0.915541,-0.915541,-0.101686,0.135183,9.749905
1308,1.098650,0.915541,-1.403830,-0.074171,0.244047,9.740334
1309,1.037613,0.427253,-1.281758,-0.139968,0.105275,9.680519
1310,1.098650,0.244144,-1.464866,-0.037086,0.216532,9.662574
1311,1.098650,0.244144,-1.464866,-0.037086,0.216532,9.662574
1312,0.793469,0.549325,-1.586938,-0.057423,0.226102,9.708034
1313,0.793469,0.549325,-1.586938,-0.057423,0.226102,9.708034
1314,0.122072,0.793469,-1.647974,-0.087330,0.181839,9.663771
1315,0.122072,0.793469,-1.647974,-0.087330,0.181839,9.663771
1316,-0.305180,0.671397,-1.831083,-0.113649,0.204569,9.662574
1317,-0.305180,0.671397,-1.831083,-0.113649,0.204569,9.662574
1318,-0.366217,0.610361,-1.770047,-0.123220,0.145949,9.670948
1319,-0.366217,0.610361,-1.770047,-0.123220,0.145949,9.670948
1320,2.136263,32.898451,0.915541,0.020337,0.211746,9.606348
1321,2.136263,32.898451,0.915541,0.020337,0.211746,9.606348
1322,1.647974,35.523003,0.427253,-0.033497,0.233280,9.693678
1323,1.647974,35.523003,0.427253,-0.033497,0.233280,9.693678
1324,1.464866,37.720302,0.244144,0.004785,0.144753,9.727175
1325,1.464866,37.720302,0.244144,0.004785,0.144753,9.727175
1326,1.403830,39.978637,0.000000,0.096901,0.114846,9.670948
1327,1.403830,39.978637,0.000000,0.096901,0.114846,9.670948
1328,3.540093,70.252537,1.709010,0.483308,-0.040674,9.471165
1329,3.540093,70.252537,1.709010,0.483308,-0.040674,9.471165
1330,100.038148,-97.840848,-122.499428,-3.340090,-1.720290,17.542650
1331,100.038148,-97.840848,-122.499428,-3.340090,-1.720290,17.542650
1332,165.712978,-116.700999,-108.583200,-2.408167,-0.717784,17.798660
1333,165.712978,-116.700999,-108.583200,-2.408167,-0.717784,17.798660
1334,224.185550,-145.815213,-91.248951,-0.912782,0.369659,16.744714
1335,224.185550,-145.815213,-91.248951,-0.912782,0.369659,16.744714
1336,258.243687,-181.094072,-74.769207,0.746496,1.092229,14.057807
1337,258.243687,-181.094072,-74.769207,0.746496,1.092229,14.057807
1338,270.511940,-208.621347,-62.989242,2.223935,1.564770,11.035935
1339,270.511940,-208.621347,-62.989242,2.223935,1.564770,11.035935
1340,153.749905,63.050278,94.605936,-6.119112,-3.465702,3.415457
1341,150.026703,66.041047,96.925307,-6.394263,-3.538677,3.549444
1342,150.026703,66.041047,96.925307,-6.394263,-3.538677,3.549444
1343,144.777600,67.444877,96.437018,-6.568923,-3.608063,3.744442
1344,144.777600,67.444877,96.437018,-6.568923,-3.608063,3.744442
1345,137.819486,67.261769,94.361791,-6.694536,-3.724105,3.896373
1346,137.819486,67.261769,94.361791,-6.694536,-3.724105,3.896373
1347,129.335470,65.369650,89.112688,-6.817755,-3.836558,4.124868
1348,129.335470,65.369650,89.112688,-6.817755,-3.836558,4.124868
1349,65.125505,34.973678,25.635157,-6.239939,-3.676252,5.252985
1350,-329.900053,-217.898833,-68.055238,-10.722502,-0.120827,14.976571
1351,-329.900053,-217.898833,-68.055238,-10.722502,-0.120827,14.976571
1352,-287.418936,-266.971847,-48.584726,-7.838206,-7.157507,13.042142
1353,-245.365072,-303.288319,-52.735180,-4.705077,-11.577862,11.394827
1354,-245.365072,-303.288319,-52.735180,-4.705077,-11.577862,11.394827
1355,-190.432593,-312.687877,-69.214923,-2.942916,-9.423313,10.054963
1356,-190.432593,-312.687877,-69.214923,-2.942916,-9.423313,10.054963
1357,-103.150988,-290.348669,-70.069429,-1.631763,-5.883439,9.624292
1358,-103.150988,-290.348669,-70.069429,-1.631763,-5.883439,9.624292
1359,-2.136263,-252.506294,-59.754330,1.477440,-1.297993,11.507280
1360,-3.723201,-17.944610,-8.484016,-0.504842,0.314629,9.798953
1361,-3.723201,-17.944610,-8.484016,-0.504842,0.314629,9.798953
1362,-3.295949,-20.263981,-8.667124,-0.393585,0.246439,9.552514
1363,-3.295949,-20.263981,-8.667124,-0.393585,0.246439,9.552514
1364,-2.441444,-21.179522,-9.338521,-0.279936,0.465364,9.607544
1365,-2.502480,-21.423667,-8.484016,-0.251225,0.588583,9.617115
1366,-2.502480,-21.423667,-8.484016,-0.251225,0.588583,9.617115
1367,-3.295949,-21.057450,-7.507439,-0.218924,0.556283,9.727175
1368,-3.295949,-21.057450,-7.507439,-0.218924,0.556283,9.727175
1369,-4.028382,-15.991455,-5.310140,0.669932,0.782385,9.669752
1370,-5.737392,23.865110,-18.249790,-0.301469,0.233280,9.630274
1371,-5.737392,23.865110,-18.249790,-0.301469,0.233280,9.630274
1372,-5.188067,24.597543,-17.639429,-0.232084,0.338555,9.786990
1373,-5.188067,24.597543,-17.639429,-0.232084,0.338555,9.786990
1374,-4.455634,25.329976,-16.418708,-0.165090,0.032300,9.563281
1375,-4.455634,25.329976,-16.418708,-0.165090,0.032300,9.563281
1376,-3.967346,27.038987,-16.662852,0.025122,0.208157,9.746316
1377,-3.967346,27.038987,-16.662852,0.025122,0.208157,9.746316
1378,-2.258335,28.625925,-16.540780,0.053834,0.112453,9.485521
1379,-2.258335,28.625925,-16.540780,0.053834,0.112453,9.485521
1380,-179.568170,430.121309,-138.918135,1.307564,-1.850687,16.695665
1381,-140.383001,390.936141,-120.912490,3.103221,-0.620883,19.599701
1382,-140.383001,390.936141,-120.912490,3.103221,-0.620883,19.599701
1383,-76.600290,350.041962,-91.859312,2.753899,0.677110,19.599701
1384,-76.600290,350.041962,-91.859312,2.753899,0.677110,19.599701
1385,6.897078,311.833371,-61.890593,-0.425885,0.954653,19.599701
1386,6.897078,311.833371,-61.890593,-0.425885,0.954653,19.599701
1387,89.600977,271.183337,-40.588998,-6.835700,3.659504,19.599701
1388,154.299229,210.513466,-12.268254,-11.358938,3.811435,19.599701
1389,17.334249,-342.473487,24.353399,-1.617407,3.685823,15.713497
1390,-23.682002,29.297322,142.946517,-9.402976,-1.047965,5.985126
1391,-29.358358,20.630198,136.598764,-9.414939,-1.506151,6.183713
1392,-29.358358,20.630198,136.598764,-9.414939,-1.506151,6.183713
1393,-31.677729,11.047532,131.593805,-9.496287,-2.203598,6.431348
1394,-31.677729,11.047532,131.593805,-9.496287,-2.203598,6.431348
1395,-29.419394,1.342794,125.917449,-9.286934,-2.677336,6.678984
1396,-29.419394,1.342794,125.917449,-9.286934,-2.677336,6.678984
1397,-21.972992,-9.094377,120.546273,-9.330001,-3.219263,6.720855
1398,-21.972992,-9.094377,120.546273,-9.330001,-3.219263,6.720855
1399,-9.704738,-18.432898,115.419242,-9.166107,-3.353249,6.795026
1400,46.204318,-95.826658,-5.798428,-1.213056,0.472541,9.807327
1401,48.096437,-92.774853,-15.197986,-0.928334,0.672325,10.337292
1402,26.611734,-97.230488,-24.902724,-0.818274,2.024152,11.563507
1403,26.611734,-97.230488,-24.902724,-0.818274,2.024152,11.563507
1404,-11.291676,-107.728695,-27.405203,-0.620883,1.537255,11.252467
1405,-11.291676,-107.728695,-27.405203,-0.620883,1.537255,11.252467
1406,-44.190127,-117.921721,-33.752956,0.101686,1.459495,10.635172
1407,-44.190127,-117.921721,-33.752956,0.101686,1.459495,10.635172
1408,-21.728847,-56.153201,-30.273899,1.648511,-1.217841,8.660069
1409,-21.728847,-56.153201,-30.273899,1.648511,-1.217841,8.660069
1410,-3.051804,44.800488,-10.925460,0.801526,0.257206,9.797757
1411,-3.051804,44.800488,-10.925460,0.801526,0.257206,9.797757
1412,-3.540093,49.500267,-10.498207,0.846986,0.291899,9.471165
1413,-3.540093,49.500267,-10.498207,0.846986,0.291899,9.471165
1414,-2.929732,55.298695,-11.779965,0.724962,0.431867,9.687697
1415,-2.929732,55.298695,-11.779965,0.724962,0.431867,9.687697
1416,-3.906310,60.364691,-12.268254,0.442634,0.344537,9.751101
1417,-3.906310,60.364691,-12.268254,0.442634,0.344537,9.751101
1418,-6.286717,63.660639,-11.841001,0.136379,0.521590,9.649415
1419,-6.286717,63.660639,-11.841001,0.136379,0.521590,9.649415
1420,81.910430,-346.562905,31.799802,-1.557592,-0.378033,18.674357
1421,81.910430,-346.562905,31.799802,-1.557592,-0.378033,18.674357
1422,111.940185,-388.372625,33.325704,1.824369,-0.250028,13.052909
1423,111.940185,-388.372625,33.325704,1.824369,-0.250028,13.052909
1424,129.335470,-413.458457,34.790570,4.605783,-0.149538,8.614609
1425,129.335470,-413.458457,34.790570,4.605783,-0.149538,8.614609
1426,131.776913,-420.416571,35.828183,7.059409,0.264384,4.605783
1427,131.776913,-420.416571,35.828183,7.059409,0.264384,4.605783
1428,126.222629,-409.308003,37.048905,9.095525,0.842200,0.831434
1429,126.100557,-179.751278,14.587625,8.907704,0.808704,0.393585
1430,17.090105,-145.143816,4.821851,-9.949688,-2.636661,8.554794
1431,17.090105,-145.143816,4.821851,-9.949688,-2.636661,8.554794
1432,35.828183,-158.693828,3.723201,-9.307271,-2.520620,7.624067
1433,35.828183,-158.693828,3.723201,-9.307271,-2.520620,7.624067
1434,54.871443,-167.727169,2.624552,-8.593075,-2.174887,6.773492
1435,54.871443,-167.727169,2.624552,-8.593075,-2.174887,6.773492
1436,73.243305,-172.304875,1.586938,-8.011670,-1.723879,5.938470
1437,73.243305,-172.304875,1.586938,-8.011670,-1.723879,5.938470
1438,90.028229,-173.342489,1.342794,-7.618085,-1.250141,5.101054
1439,90.028229,-173.342489,1.342794,-7.618085,-1.250141,5.101054
1440,7.080186,77.149615,-14.343481,-0.983365,1.136492,9.912602
1441,7.080186,77.149615,-14.343481,-0.983365,1.136492,9.912602
1442,-7.751583,72.083619,-15.259022,-1.412839,0.953457,10.054963
1443,-7.751583,72.083619,-15.259022,-1.412839,0.953457,10.054963
1444,-21.972992,64.148928,-16.540780,-1.629371,0.397174,9.880302
1445,-21.972992,64.148928,-16.540780,-1.629371,0.397174,9.880302
1446,-29.114214,56.153201,-18.249790,-1.531273,-0.120827,9.619507
1447,-29.114214,56.153201,-18.249790,-1.531273,-0.120827,9.619507
1448,-5.859464,22.034028,-26.550698,-2.828070,-0.264384,9.937725
1449,-5.859464,22.034028,-26.550698,-2.828070,-0.264384,9.937725
1450,-24.353399,266.544595,-29.358358,1.344649,0.199783,8.443537
1451,-24.353399,266.544595,-29.358358,1.344649,0.199783,8.443537
1452,-29.297322,288.639658,-32.654307,1.396091,0.348125,8.438752
1453,-29.297322,288.639658,-32.654307,1.396091,0.348125,8.438752
1454,-31.433585,310.978866,-34.058137,1.262104,0.431867,8.022437
1455,-31.433585,310.978866,-34.058137,1.262104,0.431867,8.022437
1456,-30.823224,335.637446,-35.278859,1.207074,0.634043,7.717379
1457,-30.823224,335.637446,-35.278859,1.207074,0.634043,7.717379
1458,-30.884260,360.234989,-37.537194,0.964224,1.138885,7.442228
1459,-30.884260,360.234989,-37.537194,0.964224,1.138885,7.442228
1460,109.132525,-151.796750,117.433433,-1.465476,-2.786200,4.112905
1461,109.132525,-151.796750,117.433433,-1.465476,-2.786200,4.112905
1462,102.662699,-142.763409,101.319905,-1.585107,-2.676139,3.763583
1463,102.662699,-142.763409,101.319905,-1.585107,-2.676139,3.763583
1464,93.507286,-132.936599,83.619440,-1.664063,-2.438074,3.385550
1465,93.507286,-132.936599,83.619440,-1.664063,-2.438074,3.385550
1466,81.910430,-121.889067,66.102083,-1.763357,-2.179672,3.115184
1467,81.910430,-121.889067,66.102083,-1.763357,-2.179672,3.115184
1468,69.336996,-110.292210,49.439231,-1.843510,-1.874614,2.828070
1469,26.062409,-39.124132,0.793469,-2.567276,-1.504955,2.180868
1470,-158.937972,-259.769589,-79.957275,-5.224274,-2.922579,8.985464
1471,-158.937972,-259.769589,-79.957275,-5.224274,-2.922579,8.985464
1472,-123.903258,-263.004501,-61.646448,-3.931066,-4.407196,8.295195
1473,-123.903258,-263.004501,-61.646448,-3.931066,-4.407196,8.295195
1474,-80.140383,-256.534676,-52.735180,-3.019480,-4.825904,9.979596
1475,-80.140383,-256.534676,-52.735180,-3.019480,-4.825904,9.979596
1476,-40.100710,-253.360800,-47.425040,-2.188046,-3.579351,11.258448
1477,-40.100710,-253.360800,-47.425040,-2.188046,-3.579351,11.258448
1478,-8.667124,-251.163500,-40.344854,-0.795544,-2.269395,11.351760
1479,-8.667124,-251.163500,-40.344854,-0.795544,-2.269395,11.351760
1480,-6.103609,24.902724,-8.667124,-0.849378,0.123220,9.654200
1481,-6.591897,22.095064,-8.545052,-0.839808,-0.040674,9.558495
1482,-6.591897,22.095064,-8.545052,-0.839808,-0.040674,9.558495
1483,-5.310140,19.775692,-8.300908,-0.751281,-0.062208,9.554907
1484,-5.310140,19.775692,-8.300908,-0.751281,-0.062208,9.554907
1485,-3.234913,17.578393,-7.751583,-0.716588,0.095705,9.461595
1486,-3.234913,17.578393,-7.751583,-0.716588,0.095705,9.461595
1487,-0.427253,15.747311,-6.958114,-0.710607,0.015552,9.499876
1488,-5.371176,6.530861,-8.972305,-0.242850,0.010767,9.545336
1489,-4.577707,7.141222,-8.728161,-0.218924,0.051441,9.331197
1490,4.638743,56.885634,-4.272526,-0.837415,0.111257,8.896938
1491,5.004959,60.059510,-5.065995,-0.687877,0.181839,8.813196
1492,5.004959,60.059510,-5.065995,-0.687877,0.181839,8.813196
1493,5.371176,65.552758,-5.737392,-0.433063,0.208157,8.965127
1494,5.371176,65.552758,-5.737392,-0.433063,0.208157,8.965127
1495,5.554284,71.595331,-6.164645,-0.389996,0.238065,9.042887
1496,5.554284,71.595331,-6.164645,-0.389996,0.238065,9.042887
1497,5.920500,78.309300,-6.713970,-0.275151,0.381622,9.180462
1498,5.920500,78.309300,-6.713970,-0.275151,0.381622,9.180462
1499,6.286717,84.412909,-6.897078,-0.337359,0.422296,9.079973
1500,230.350195,-79.652094,28.381781,-4.967068,0.117238,14.868904
1501,248.355840,-106.935225,38.086519,-4.075819,0.814685,14.325780
1502,248.355840,-106.935225,38.086519,-4.075819,0.814685,14.325780
1503,258.793011,-140.138857,43.335622,-2.563687,1.711916,14.295872
1504,258.793011,-140.138857,43.335622,-2.563687,1.711916,14.295872
1505,248.966201,-176.333257,45.777066,-0.546712,2.231113,12.886622
1506,248.966201,-176.333257,45.777066,-0.546712,2.231113,12.886622
1507,218.387121,-208.743420,46.143282,1.236982,1.896147,9.510643
1508,218.387121,-208.743420,46.143282,1.236982,1.896147,9.510643
1509,72.205692,-145.082780,-17.029068,5.104643,-1.410446,3.385550
1510,236.758984,-220.523384,-132.875563,-3.366409,-6.120308,10.933053
1511,241.824979,-220.645457,-135.927367,-3.448954,-5.767398,10.693791
1512,241.824979,-220.645457,-135.927367,-3.448954,-5.767398,10.693791
1513,244.815747,-220.035096,-138.796063,-3.533892,-5.316390,10.485634
1514,244.815747,-220.035096,-138.796063,-3.533892,-5.316390,10.485634
1515,245.365072,-218.936446,-141.359579,-3.580548,-4.816333,10.336095
1516,245.365072,-218.936446,-141.359579,-3.580548,-4.816333,10.336095
1517,243.167773,-217.227436,-143.739986,-3.592511,-4.282780,10.264317
1518,243.167773,-217.227436,-143.739986,-3.592511,-4.282780,10.264317
1519,238.406958,-215.274281,-145.754177,-3.594903,-3.752816,10.218857
1520,-57.129778,61.524376,-102.601663,-1.174774,-0.781189,7.883665
1521,-57.129778,61.524376,-102.601663,-1.174774,-0.781189,7.883665
1522,-54.566262,82.520790,-104.737926,-0.340948,-0.276347,10.423426
1523,-54.566262,82.520790,-104.737926,-0.340948,-0.276347,10.423426
1524,-40.344854,70.862898,-106.996262,1.619800,-2.138997,12.592331
1525,-40.344854,70.862898,-106.996262,1.619800,-2.138997,12.592331
1526,-20.813306,41.016251,-131.349660,3.992078,-0.869715,14.457374
1527,-14.282444,31.006332,-151.369497,6.035370,3.218067,16.859559
1528,-14.282444,31.006332,-151.369497,6.035370,3.218067,16.859559
1529,-87.037461,138.490883,-85.999847,4.560323,12.410492,1.953570
1530,2.136263,6.897078,-0.610361,-0.130397,0.142361,9.745119
1531,2.136263,6.897078,-0.610361,-0.130397,0.142361,9.745119
1532,3.234913,7.080186,-0.366217,-0.166287,0.116042,9.911406
1533,3.234913,7.080186,-0.366217,-0.166287,0.116042,9.911406
1534,4.211490,6.775006,0.610361,-0.119631,-0.258402,9.633863
1535,4.211490,6.775006,0.610361,-0.119631,-0.258402,9.633863
1536,3.234913,6.958114,-1.220722,-0.052638,0.051441,9.614722
1537,3.234913,6.958114,-1.220722,-0.052638,0.051441,9.614722
1538,0.976577,7.080186,-1.831083,-0.089723,0.056226,9.855180
1539,0.976577,7.080186,-1.831083,-0.089723,0.056226,9.855180
1540,0.854505,3.906310,-0.122072,-0.218924,0.045460,9.636255
1541,0.854505,3.906310,-0.122072,-0.218924,0.045460,9.636255
1542,1.342794,3.845274,0.183108,-0.179446,0.015552,9.615918
1543,1.953155,3.906310,0.244144,-0.162698,0.022730,9.690089
1544,1.953155,3.906310,0.244144,-0.162698,0.022730,9.690089
1545,2.075227,4.028382,0.244144,-0.163894,0.040674,9.648219
1546,2.075227,4.028382,0.244144,-0.163894,0.040674,9.648219
1547,2.014191,4.028382,0.244144,-0.171072,0.019141,9.627881
1548,2.014191,4.028382,0.244144,-0.171072,0.019141,9.627881
1549,2.380407,5.493248,0.549325,-0.160305,-0.025122,9.664967
1550,169.985504,138.429847,-110.048066,-2.347155,-4.889308,16.125026
1551,169.985504,138.429847,-110.048066,-2.347155,-4.889308,16.125026
1552,199.832151,107.423514,-116.578927,-2.156942,-5.162066,13.908269
1553,199.832151,107.423514,-116.578927,-2.156942,-5.162066,13.908269
1554,229.861906,83.131151,-128.114748,-2.481141,-5.217096,11.466606
1555,229.861906,83.131151,-128.114748,-2.481141,-5.217096,11.466606
1556,251.834897,62.623026,-149.233234,-3.000339,-4.356951,11.137621
1557,251.834897,62.623026,-149.233234,-3.000339,-4.356951,11.137621
1558,251.163500,39.124132,-167.299916,-2.911812,-2.591202,12.829200
1559,251.163500,39.124132,-167.299916,-2.911812,-2.591202,12.829200
1560,196.292058,-216.861219,-77.943084,-0.184231,-7.939892,8.575131
1561,196.292058,-216.861219,-77.943084,-0.184231,-7.939892,8.575131
1562,202.944991,-212.039368,-88.075074,-0.391192,-7.943481,8.701939
1563,202.944991,-212.039368,-88.075074,-0.391192,-7.943481,8.701939
1564,210.452430,-207.644770,-97.596704,-0.727355,-7.866917,8.997427
1565,210.452430,-207.644770,-97.596704,-0.727355,-7.866917,8.997427
1566,218.570230,-204.348821,-106.263828,-1.185541,-7.685078,9.316841
1567,218.570230,-204.348821,-106.263828,-1.185541,-7.685078,9.316841
1568,226.565957,-202.395666,-113.649195,-1.759768,-7.396768,9.757082
1569,264.774548,-222.049287,-130.739300,-3.909532,-6.170553,11.557525
1570,-33.508812,-11.963073,-10.498207,-5.937273,-1.902129,5.315193
1571,-33.508812,-11.963073,-10.498207,-5.937273,-1.902129,5.315193
1572,-28.503853,-9.765774,-10.254063,-5.469517,-1.815995,5.158477
1573,-28.503853,-9.765774,-10.254063,-5.469517,-1.815995,5.158477
1574,-23.010605,-6.225681,-9.216449,-4.937160,-1.794461,4.967068
1575,-23.010605,-6.225681,-9.216449,-4.937160,-1.794461,4.967068
1576,-16.723888,-1.464866,-8.667124,-4.391644,-1.603052,4.800781
1577,-16.723888,-1.464866,-8.667124,-4.391644,-1.603052,4.800781
1578,-11.779965,4.394598,-8.117800,-3.831772,-1.116155,4.823511
1579,-11.779965,4.394598,-8.117800,-3.831772,-1.116155,4.823511
1580,-12.268254,1.953155,-12.695506,-0.050245,-0.762048,9.802542
1581,-12.268254,1.953155,-12.695506,-0.050245,-0.762048,9.802542
1582,-4.882887,3.662165,-11.963073,0.095705,-0.442634,9.723586
1583,-4.882887,3.662165,-11.963073,0.095705,-0.442634,9.723586
1584,0.305180,5.676356,-11.230640,0.144753,-0.092116,9.822879
1585,1.525902,7.019150,-10.376135,0.120827,0.308647,9.918584
1586,1.525902,7.019150,-10.376135,0.120827,0.308647,9.918584
1587,-0.244144,7.263294,-8.972305,-0.019141,0.421100,9.852787
1588,-7.934691,5.798428,-7.995727,0.235673,-0.216532,9.708034
1589,-5.432212,7.019150,-8.361944,0.297881,-0.116042,9.703249
1590,7.202258,24.109255,-1.831083,0.429474,0.276347,9.338375
1591,5.737392,26.245518,-2.868696,0.522786,0.350518,9.318038
1592,5.737392,26.245518,-2.868696,0.522786,0.350518,9.318038
1593,5.310140,28.503853,-4.028382,0.470149,0.400763,9.217548
1594,5.310140,28.503853,-4.028382,0.470149,0.400763,9.217548
1595,5.371176,30.334936,-5.920500,0.418708,0.285917,9.358712
1596,5.371176,30.334936,-5.920500,0.418708,0.285917,9.358712
1597,2.380407,30.823224,-7.873655,0.162698,0.474934,9.302486
1598,2.380407,30.823224,-7.873655,0.162698,0.474934,9.302486
1599,0.854505,31.189441,-10.864424,-0.132790,0.337359,9.481932
1600,-0.732433,13.611048,-0.610361,0.277543,0.216532,9.278560
1601,-0.732433,13.611048,-0.610361,0.277543,0.216532,9.278560
1602,1.281758,17.334249,-1.403830,0.160305,-0.130397,9.364694
1603,1.281758,17.334249,-1.403830,0.160305,-0.130397,9.364694
1604,1.525902,20.325017,-2.319371,-0.022730,0.148342,9.483128
1605,1.525902,20.325017,-2.319371,-0.022730,0.148342,9.483128
1606,2.136263,22.156100,-1.709010,0.057423,-0.150735,9.721193
1607,2.136263,22.156100,-1.709010,0.057423,-0.150735,9.721193
1608,1.098650,22.644388,-2.014191,-0.119631,-0.124416,9.318038
1609,3.784237,31.128405,-3.173877,-0.259599,-0.050245,9.369479
1610,127.321279,-238.406958,-45.166705,15.794846,4.339007,-5.672889
1611,74.280919,-175.234607,-63.965820,16.589194,4.353362,-3.718123
1612,74.280919,-175.234607,-63.965820,16.589194,4.353362,-3.718123
1613,10.009918,-116.700999,-75.806821,13.677382,3.929870,-1.652100
1614,10.009918,-116.700999,-75.806821,13.677382,3.929870,-1.652100
1615,-37.659266,-65.308614,-85.084306,10.035822,3.612848,1.745412
1616,-37.659266,-65.308614,-85.084306,10.035822,3.612848,1.745412
1617,-61.158160,-36.194400,-90.516518,6.177731,3.690608,4.992190
1618,-61.158160,-36.194400,-90.516518,6.177731,3.690608,4.992190
1619,-67.200732,-27.344167,-88.502327,3.221656,3.800668,8.358599
1620,-20.691234,-48.645762,107.240406,-3.570977,-4.334221,1.153240
1621,-20.691234,-48.645762,107.240406,-3.570977,-4.334221,1.153240
1622,-6.469825,-28.931106,93.324178,-3.622419,-4.761303,1.926055
1623,-6.469825,-28.931106,93.324178,-3.622419,-4.761303,1.926055
1624,13.672084,-10.742351,80.201419,-4.031556,-4.871363,2.903438
1625,13.672084,-10.742351,80.201419,-4.031556,-4.871363,2.903438
1626,37.415122,4.211490,69.153887,-4.679954,-4.822315,4.019593
1627,37.415122,4.211490,69.153887,-4.679954,-4.822315,4.019593
1628,141.725795,-15.075914,20.813306,-8.802429,-1.830350,8.755773
1629,147.035935,-32.959487,15.503166,-9.513036,-0.409137,8.527279
1630,-9.948882,-36.438544,-19.043259,0.301469,0.264384,9.436472
1631,-11.108568,-31.616693,-16.968032,0.293095,0.040674,9.606348
1632,-11.108568,-31.616693,-16.968032,0.293095,0.040674,9.606348
1633,-11.047532,-27.222095,-13.977264,0.354107,-0.267973,9.672145
1634,-11.047532,-27.222095,-13.977264,0.354107,-0.267973,9.672145
1635,-9.338521,-22.278172,-10.498207,0.466560,-0.516805,9.520214
1636,-9.338521,-22.278172,-10.498207,0.466560,-0.516805,9.520214
1637,-3.723201,-16.174563,-8.484016,0.480916,-0.288310,9.349142
1638,-3.723201,-16.174563,-8.484016,0.480916,-0.288310,9.349142
1639,2.929732,-9.277485,-5.676356,0.534749,-0.093312,9.420920
1640,5.432212,61.768521,-7.690547,0.315825,0.281132,9.483128
1641,6.897078,66.468299,-8.606088,0.478523,0.556283,9.440061
1642,6.897078,66.468299,-8.606088,0.478523,0.556283,9.440061
1643,6.897078,72.205692,-9.094377,0.575424,0.727355,9.548925
1644,6.897078,72.205692,-9.094377,0.575424,0.727355,9.548925
1645,4.943923,78.431373,-9.460594,0.647202,0.735729,9.590796
1646,4.943923,78.431373,-9.460594,0.647202,0.735729,9.590796
1647,1.098650,84.840162,-10.070954,0.666343,0.470149,9.636255
1648,1.098650,84.840162,-10.070954,0.666343,0.470149,9.636255
1649,10.681315,148.439765,-15.075914,1.012076,0.736925,9.351534
1650,-77.088579,-123.414969,-30.823224,2.834052,2.444056,8.364581
1651,-79.041733,-135.622187,-30.884260,1.873417,2.104305,9.108684
1652,-79.041733,-135.622187,-30.884260,1.873417,2.104305,9.108684
1653,-77.576867,-149.233234,-27.405203,1.253730,1.902129,9.465183
1654,-77.576867,-149.233234,-27.405203,1.253730,1.902129,9.465183
1655,-70.984970,-162.172885,-19.714656,0.866126,1.481028,9.694874
1656,-70.984970,-162.172885,-19.714656,0.866126,1.481028,9.694874
1657,-56.580453,-174.624247,-8.789197,0.617295,0.907997,9.668556
1658,-56.580453,-174.624247,-8.789197,0.617295,0.907997,9.668556
1659,-33.630884,-185.549706,4.577707,0.562264,0.288310,9.443650
1660,51.880674,-72.388800,31.616693,-8.453108,-2.268199,5.613074
1661,51.880674,-72.388800,31.616693,-8.453108,-2.268199,5.613074
1662,43.030442,-80.140383,15.808347,-7.931518,-1.727468,5.291267
1663,43.030442,-80.140383,15.808347,-7.931518,-1.727468,5.291267
1664,34.485389,-85.755703,1.586938,-7.467350,-1.149651,5.030472
1665,34.485389,-85.755703,1.586938,-7.467350,-1.149651,5.030472
1666,27.222095,-89.112688,-10.254063,-7.018735,-0.573031,4.822315
1667,27.222095,-89.112688,-10.254063,-7.018735,-0.573031,4.822315
1668,22.034028,-91.309987,-18.982223,-6.596439,0.010767,4.630906
1669,-9.216449,-57.007706,-55.725948,-11.076609,8.303569,9.571655
1670,26.977951,3.906310,-3.051804,-0.496468,0.998917,10.087263
1671,12.756542,-0.244144,-3.418021,-0.325396,1.019254,10.556216
1672,12.756542,-0.244144,-3.418021,-0.325396,1.019254,10.556216
1673,-4.577707,-6.042573,-4.943923,-0.031104,0.580209,10.401892
1674,-4.577707,-6.042573,-4.943923,-0.031104,0.580209,10.401892
1675,-13.855192,-9.826810,-6.897078,0.302666,0.327788,9.825272
1676,-13.855192,-9.826810,-6.897078,0.302666,0.327788,9.825272
1677,-11.841001,-8.667124,-8.056764,0.606528,0.133986,9.533373
1678,-11.841001,-8.667124,-8.056764,0.606528,0.133986,9.533373
1679,-4.943923,-3.418021,-8.361944,0.492879,0.168679,9.309664
1680,0.122072,92.347601,-14.831769,0.077760,0.295488,9.508251
1681,0.000000,97.047379,-15.869383,0.033497,0.355303,9.529784
1682,0.000000,97.047379,-15.869383,0.033497,0.355303,9.529784
1683,-0.854505,101.625086,-17.395285,0.099294,0.434260,9.517821
1684,-0.854505,101.625086,-17.395285,0.099294,0.434260,9.517821
1685,-2.563516,106.752117,-18.921187,0.217728,0.580209,9.477147
1686,-2.563516,106.752117,-18.921187,0.217728,0.580209,9.477147
1687,-4.455634,113.710231,-20.141909,0.272758,0.473738,9.339571
1688,-4.455634,113.710231,-20.141909,0.272758,0.473738,9.339571
1689,-12.451362,194.155795,-29.236286,1.423606,0.248832,9.112273
1690,73.609522,-156.862745,98.084993,5.343905,3.905943,1.696364
1691,58.045319,-139.284352,103.150988,4.190665,3.241993,3.268312
1692,58.045319,-139.284352,103.150988,4.190665,3.241993,3.268312
1693,46.143282,-130.617227,105.043107,3.204907,2.660587,4.434711
1694,46.143282,-130.617227,105.043107,3.204907,2.660587,4.434711
1695,38.208591,-124.818799,104.676890,2.348351,2.030134,5.292464
1696,38.208591,-124.818799,104.676890,2.348351,2.030134,5.292464
1697,31.372549,-120.729381,102.967880,1.545629,1.381735,6.133468
1698,31.372549,-120.729381,102.967880,1.545629,1.381735,6.133468
1699,24.658579,-119.203479,100.831617,0.728551,0.735729,6.988827
1700,28.198672,-157.961395,59.693294,-5.930095,-0.110060,3.148681
1701,25.513085,-153.933013,52.368963,-5.062773,-0.005982,2.253843
1702,25.513085,-153.933013,52.368963,-5.062773,-0.005982,2.253843
1703,26.550698,-144.960708,46.631571,-4.310295,-0.045460,1.379342
1704,26.550698,-144.960708,46.631571,-4.310295,-0.045460,1.379342
1705,31.128405,-131.410697,41.565576,-3.594903,-0.056226,0.612509
1706,31.128405,-131.410697,41.565576,-3.594903,-0.056226,0.612509
1707,39.307240,-114.442664,37.109941,-5.115410,-0.052638,0.094508
1708,39.307240,-114.442664,37.109941,-5.115410,-0.052638,0.094508
1709,-148.867018,-98.268101,-149.721523,-11.022776,3.627204,4.604587
1710,-3.418021,5.798428,-7.019150,0.343340,0.744103,9.570459
1711,-3.418021,5.798428,-7.019150,0.343340,0.744103,9.570459
1712,-6.897078,7.751583,-9.765774,0.348125,0.498860,9.435276
1713,-6.897078,7.751583,-9.765774,0.348125,0.498860,9.435276
1714,-9.704738,10.681315,-11.535821,0.288310,0.370855,9.596777
1715,-9.704738,10.681315,-11.535821,0.288310,0.370855,9.596777
1716,-8.178836,13.244831,-12.695506,0.210550,0.078956,9.647022
1717,-8.178836,13.244831,-12.695506,0.210550,0.078956,9.647022
1718,-7.019150,14.770733,-13.733120,0.122023,0.349322,9.562084
1719,-7.019150,14.770733,-13.733120,0.122023,0.349322,9.562084
1720,-3.234913,73.121233,-11.108568,-0.388800,0.050245,9.286934
1721,-3.234913,73.121233,-11.108568,-0.388800,0.050245,9.286934
1722,-2.990768,76.478218,-11.047532,-0.301469,0.100490,9.291719
1723,-2.990768,76.478218,-11.047532,-0.301469,0.100490,9.291719
1724,-2.807660,81.422141,-10.864424,-0.163894,0.074171,9.351534
1725,-2.807660,81.422141,-10.864424,-0.163894,0.074171,9.351534
1726,-3.234913,87.586786,-11.047532,0.078956,0.082545,9.294112
1727,-3.234913,87.586786,-11.047532,0.078956,0.082545,9.294112
1728,-4.028382,95.521477,-11.596857,0.349322,0.269169,9.307271
1729,-9.948882,173.647669,-15.686275,1.765750,0.241654,9.039298
1730,84.779126,-114.442664,63.050278,5.476695,1.564770,3.408280
1731,84.779126,-114.442664,63.050278,5.476695,1.564770,3.408280
1732,69.398032,-102.540627,59.754330,3.657111,1.891362,5.633411
1733,69.398032,-102.540627,59.754330,3.657111,1.891362,5.633411
1734,51.514458,-104.127565,56.275273,2.307677,1.935625,7.191003
1735,51.514458,-104.127565,56.275273,2.307677,1.935625,7.191003
1736,32.288090,-114.747845,52.491035,1.491795,1.644923,7.955444
1737,32.288090,-114.747845,52.491035,1.491795,1.644923,7.955444
1738,12.390326,-128.297856,47.608148,1.141277,1.270478,8.197098
1739,12.390326,-128.297856,47.608148,1.141277,1.270478,8.197098
1740,73.548486,-31.555657,61.646448,-7.175451,-1.325509,10.771551
1741,73.548486,-31.555657,61.646448,-7.175451,-1.325509,10.771551
1742,72.755016,-42.725261,55.481804,-7.395572,-1.166400,10.961764
1743,72.755016,-42.725261,55.481804,-7.395572,-1.166400,10.961764
1744,69.581140,-55.420768,48.096437,-7.569036,-1.018058,11.099339
1745,69.581140,-55.420768,48.096437,-7.569036,-1.018058,11.099339
1746,63.721675,-69.214923,39.246204,-7.652778,-0.838611,11.181884
1747,63.721675,-69.214923,39.246204,-7.652778,-0.838611,11.181884
1748,55.970092,-83.741512,29.297322,-7.578607,-0.692662,11.128051
1749,22.949569,-131.654841,-16.479744,-5.317586,-0.881678,8.967520
1750,-510.444801,-147.341115,-114.381628,-8.700743,5.469517,15.601044
1751,-510.444801,-147.341115,-114.381628,-8.700743,5.469517,15.601044
1752,-520.637827,-217.410544,-148.439765,-3.832969,7.980566,9.625489
1753,-520.637827,-217.410544,-148.439765,-3.832969,7.980566,9.625489
1754,-447.455558,-235.782406,-121.156634,0.370855,-2.926168,7.570233
1755,-447.455558,-235.782406,-121.156634,0.370855,-2.926168,7.570233
1756,-450.324254,-242.008087,-88.685435,0.576620,-5.308016,3.649934
1757,-450.324254,-242.008087,-88.685435,0.576620,-5.308016,3.649934
1758,-385.687037,-201.968414,-93.507286,1.886577,-6.457667,4.272013
1759,-385.687037,-201.968414,-93.507286,1.886577,-6.457667,4.272013
1760,-7.141222,2.624552,-4.821851,-0.150735,0.196194,9.763064
1761,-7.141222,2.624552,-4.821851,-0.150735,0.196194,9.763064
1762,-7.690547,2.197299,-4.943923,-0.066993,0.151931,9.719997
1763,-7.690547,2.197299,-4.943923,-0.066993,0.151931,9.719997
1764,-7.629511,2.441444,-5.004959,-0.070582,0.178250,9.614722
1765,-7.629511,2.441444,-5.004959,-0.070582,0.178250,9.614722
1766,-6.530861,3.356985,-4.638743,-0.061012,0.069386,9.636255
1767,-6.530861,3.356985,-4.638743,-0.061012,0.069386,9.636255
1768,-6.042573,6.286717,-4.150454,0.008374,0.039478,9.716408
1769,-5.615320,7.141222,-3.723201,0.037086,-0.016748,9.698463
1770,0.915541,3.784237,-5.249104,-0.083742,0.075367,9.675734
1771,0.915541,3.784237,-5.249104,-0.083742,0.075367,9.675734
1772,0.610361,4.638743,-5.004959,-0.084938,0.000000,9.654200
1773,0.610361,4.638743,-5.004959,-0.084938,0.000000,9.654200
1774,1.037613,5.676356,-4.272526,-0.078956,-0.065797,9.651807
1775,1.037613,5.676356,-4.272526,-0.078956,-0.065797,9.651807
1776,2.441444,6.897078,-3.723201,-0.045460,-0.034693,9.627881
1777,2.441444,6.897078,-3.723201,-0.045460,-0.034693,9.627881
1778,3.845274,8.117800,-2.990768,-0.058619,-0.028711,9.606348
1779,3.845274,8.117800,-2.990768,-0.058619,-0.028711,9.606348
1780,4.211490,24.231327,1.342794,-0.294292,0.107668,9.458006
1781,4.333562,25.940337,1.709010,-0.254813,0.047852,9.608740
1782,4.333562,25.940337,1.709010,-0.254813,0.047852,9.608740
1783,4.211490,26.550698,1.831083,-0.205765,0.050245,9.644630
1784,4.211490,26.550698,1.831083,-0.205765,0.050245,9.644630
1785,4.150454,27.283131,2.258335,-0.129201,0.077760,9.478343
1786,4.150454,27.283131,2.258335,-0.129201,0.077760,9.478343
1787,3.967346,29.358358,2.685588,-0.125612,0.053834,9.394601
1788,3.967346,29.358358,2.685588,-0.125612,0.053834,9.394601
1789,6.897078,41.870756,6.042573,-0.288310,0.100490,9.449631
1790,-10.559243,284.794385,-29.785611,-3.304201,0.747692,10.063337
1791,-13.427939,282.719158,-30.884260,-3.709749,1.052750,10.507167
1792,-13.427939,282.719158,-30.884260,-3.709749,1.052750,10.507167
1793,-13.122759,278.568704,-29.724575,-4.163149,1.015665,10.759588
1794,-13.122759,278.568704,-29.724575,-4.163149,1.015665,10.759588
1795,-14.160372,270.634012,-28.137636,-4.568698,0.801526,10.411463
1796,-14.160372,270.634012,-28.137636,-4.568698,0.801526,10.411463
1797,-16.845960,261.539635,-27.038987,-4.761303,0.763244,9.979596
1798,-16.845960,261.539635,-27.038987,-4.761303,0.763244,9.979596
1799,-17.822538,253.238727,-25.391012,-4.368914,0.467756,10.868452
1800,-3.295949,-202.822919,38.452735,-0.902016,0.919960,7.869310
1801,-5.554284,-203.982605,42.114900,-0.976187,0.821863,7.778390
1802,-5.554284,-203.982605,42.114900,-0.976187,0.821863,7.778390
1803,-7.507439,-204.837110,45.838102,-1.065910,0.684288,7.682686
1804,-7.507439,-204.837110,45.838102,-1.065910,0.684288,7.682686
1805,-9.521630,-205.264363,50.049592,-1.164007,0.570639,7.578607
1806,-9.521630,-205.264363,50.049592,-1.164007,0.570639,7.578607
1807,-10.986496,-205.020218,54.566262,-1.311153,0.430671,7.563055
1808,-10.986496,-205.020218,54.566262,-1.311153,0.430671,7.563055
1809,-0.488289,-196.658274,82.032502,-2.365100,-0.338555,7.535540
1810,9.887846,-70.069429,8.361944,-1.875810,1.339864,7.694649
1811,5.249104,-66.285191,12.329290,-1.781302,1.325509,7.525969
1812,5.249104,-66.285191,12.329290,-1.781302,1.325509,7.525969
1813,-0.488289,-62.134737,15.442130,-1.672438,1.330294,7.316616
1814,-0.488289,-62.134737,15.442130,-1.672438,1.330294,7.316616
1815,-7.202258,-57.495995,17.639429,-1.520507,1.274067,7.061802
1816,-14.099336,-52.185855,19.043259,-1.418820,1.216645,6.847663
1817,-14.099336,-52.185855,19.043259,-1.418820,1.216645,6.847663
1818,-21.179522,-46.387427,19.836728,-1.338668,1.114958,6.653861
1819,-21.179522,-46.387427,19.836728,-1.338668,1.114958,6.653861
1820,-8.422980,12.390326,-3.601129,-0.404352,-0.325396,9.877910
1821,-8.422980,12.390326,-3.601129,-0.404352,-0.325396,9.877910
1822,-5.249104,12.024109,-2.807660,-0.909194,-0.544320,10.675846
1823,-5.249104,12.024109,-2.807660,-0.909194,-0.544320,10.675846
1824,-2.563516,8.545052,-2.014191,-1.296797,-0.646006,10.587320
1825,-2.563516,8.545052,-2.014191,-1.296797,-0.646006,10.587320
1826,0.366217,2.563516,-2.136263,-1.219037,-0.526375,10.142293
1827,0.366217,2.563516,-2.136263,-1.219037,-0.526375,10.142293
1828,3.418021,-3.418021,-2.380407,-0.797937,-0.279936,9.897050
1829,0.366217,-3.356985,-1.892119,-0.203372,0.138772,9.882695
1830,2.441444,2.807660,0.488289,-0.138772,0.050245,9.702052
1831,2.990768,2.502480,0.610361,-0.175857,0.116042,9.715212
1832,2.990768,2.502480,0.610361,-0.175857,0.116042,9.715212
1833,3.112840,2.014191,0.305180,-0.174661,0.163894,9.792972
1834,3.112840,2.014191,0.305180,-0.174661,0.163894,9.792972
1835,2.136263,1.403830,-0.183108,-0.147146,0.183035,9.807327
1836,2.136263,1.403830,-0.183108,-0.147146,0.183035,9.807327
1837,0.915541,0.854505,-0.610361,-0.110060,0.174661,9.772634
1838,0.915541,0.854505,-0.610361,-0.110060,0.174661,9.772634
1839,-0.244144,0.549325,-1.037613,-0.090919,0.122023,9.742727
1840,0.000000,1.464866,-0.915541,-0.116042,-0.020337,9.746316
1841,0.000000,1.464866,-0.915541,-0.116042,-0.020337,9.746316
1842,-0.061036,1.159686,-0.915541,-0.143557,-0.015552,9.766653
1843,-0.061036,1.159686,-0.915541,-0.143557,-0.015552,9.766653
1844,-0.366217,0.610361,-0.793469,-0.108864,-0.029908,9.704445
1845,-0.366217,0.610361,-0.793469,-0.108864,-0.029908,9.704445
1846,0.183108,0.671397,-1.159686,-0.057423,0.043067,9.727175
1847,0.183108,0.671397,-1.159686,-0.057423,0.043067,9.727175
1848,-0.366217,0.854505,-1.159686,-0.072975,0.063404,9.773831
1849,-0.366217,1.159686,-0.976577,-0.076564,-0.002393,9.704445
1850,1.403830,1.342794,1.586938,-0.062208,0.089723,9.711623
1851,1.403830,1.342794,1.586938,-0.062208,0.089723,9.711623
1852,0.732433,1.403830,1.403830,-0.083742,0.004785,9.779812
1853,0.732433,1.403830,1.403830,-0.083742,0.004785,9.779812
1854,0.244144,1.098650,1.159686,-0.101686,-0.020337,9.771438
1855,0.427253,0.854505,1.037613,-0.052638,-0.031104,9.697267
1856,0.427253,0.854505,1.037613,-0.052638,-0.031104,9.697267
1857,0.610361,0.793469,0.915541,-0.044263,-0.013159,9.705641
1858,0.610361,0.793469,0.915541,-0.044263,-0.013159,9.705641
1859,0.671397,0.976577,0.976577,-0.062208,-0.040674,9.748708
1860,-1.586938,0.610361,-0.366217,-0.099294,0.020337,9.712819
1861,-1.586938,0.610361,-0.366217,-0.099294,0.020337,9.712819
1862,-2.136263,0.549325,-0.488289,-0.100490,0.021534,9.709230
1863,-2.136263,0.549325,-0.488289,-0.100490,0.021534,9.709230
1864,-3.051804,0.305180,-0.793469,-0.111257,0.046656,9.725978
1865,-3.051804,0.305180,-0.793469,-0.111257,0.046656,9.725978
1866,-4.089418,0.000000,-0.976577,-0.104079,0.028711,9.739138
1867,-4.089418,0.000000,-0.976577,-0.104079,0.028711,9.739138
1868,-5.065995,-0.366217,-1.220722,-0.092116,0.038282,9.718801
